"rt","url","trial_type","trial_index","time_elapsed","internal_node_id","view_history","stimulus","key_press","test_part","correct_response","correct","use_rew","which_stim","reward","responses"
"35901.30000001192","consent.html","external-html","0","35956","0.0-0.0","","","","","","","","","",""
"124140.40000000596","","instructions","1","160098","0.0-1.0","[{""page_index"":0,""viewing_time"":3458.9000000059605},{""page_index"":1,""viewing_time"":46818.80000001192},{""page_index"":2,""viewing_time"":8115},{""page_index"":3,""viewing_time"":35563},{""page_index"":4,""viewing_time"":13470.09999999404},{""page_index"":5,""viewing_time"":5534.799999982119},{""page_index"":6,""viewing_time"":11179}]","","","","","","","","",""
"667.1999999880791","","image-keyboard-response","2","160767","0.0-2.0-0.0","","img/test1.PNG","32","practice","32","true","","","",""
"null","","html-keyboard-response","3","161783","0.0-2.0-1.0","","<img src=""img/test1-reward.PNG"" border=""10px; grey"">","null","","","","","","",""
"null","","html-keyboard-response","4","162789","0.0-2.0-2.0","","<div style=""font-size:60px;"">+</div>","null","","","","","","",""
"null","","image-keyboard-response","5","164294","0.0-2.0-0.1","","img/test2.PNG","null","practice","null","true","","","",""
"null","","html-keyboard-response","6","165308","0.0-2.0-1.1","","<img src=""img/test2-reward.PNG"">","null","","","","","","",""
"null","","html-keyboard-response","7","166314","0.0-2.0-2.1","","<div style=""font-size:60px;"">+</div>","null","","","","","","",""
"null","","image-keyboard-response","8","167818","0.0-2.0-0.2","","img/test3.PNG","null","practice","null","true","","","",""
"null","","html-keyboard-response","9","168830","0.0-2.0-1.2","","<img src=""img/test3-reward.PNG"">","null","","","","","","",""
"null","","html-keyboard-response","10","169841","0.0-2.0-2.2","","<div style=""font-size:60px;"">+</div>","null","","","","","","",""
"500.90000000596046","","image-keyboard-response","11","170343","0.0-2.0-0.3","","img/test1.PNG","32","practice","32","true","","","",""
"null","","html-keyboard-response","12","171355","0.0-2.0-1.3","","<img src=""img/test1-reward.PNG"" border=""10px; grey"">","null","","","","","","",""
"null","","html-keyboard-response","13","172367","0.0-2.0-2.3","","<div style=""font-size:60px;"">+</div>","null","","","","","","",""
"null","","image-keyboard-response","14","173876","0.0-2.0-0.4","","img/test2.PNG","null","practice","null","true","","","",""
"null","","html-keyboard-response","15","174890","0.0-2.0-1.4","","<img src=""img/test2-reward.PNG"">","null","","","","","","",""
"null","","html-keyboard-response","16","175903","0.0-2.0-2.4","","<div style=""font-size:60px;"">+</div>","null","","","","","","",""
"null","","image-keyboard-response","17","177414","0.0-2.0-0.5","","img/test3.PNG","null","practice","null","true","","","",""
"null","","html-keyboard-response","18","178429","0.0-2.0-1.5","","<img src=""img/test3-reward.PNG"">","null","","","","","","",""
"null","","html-keyboard-response","19","179440","0.0-2.0-2.5","","<div style=""font-size:60px;"">+</div>","null","","","","","","",""
"null","","image-keyboard-response","20","180945","0.0-2.0-0.6","","img/test2.PNG","null","practice","null","true","","","",""
"null","","html-keyboard-response","21","181957","0.0-2.0-1.6","","<img src=""img/test2-reward.PNG"">","null","","","","","","",""
"null","","html-keyboard-response","22","182964","0.0-2.0-2.6","","<div style=""font-size:60px;"">+</div>","null","","","","","","",""
"409.90000000596046","","image-keyboard-response","23","183375","0.0-2.0-0.7","","img/test1.PNG","32","practice","32","true","","","",""
"null","","html-keyboard-response","24","184384","0.0-2.0-1.7","","<img src=""img/test1-reward.PNG"" border=""10px; grey"">","null","","","","","","",""
"null","","html-keyboard-response","25","185392","0.0-2.0-2.7","","<div style=""font-size:60px;"">+</div>","null","","","","","","",""
"null","","image-keyboard-response","26","186907","0.0-2.0-0.8","","img/test3.PNG","null","practice","null","true","","","",""
"null","","html-keyboard-response","27","187909","0.0-2.0-1.8","","<img src=""img/test3-reward.PNG"">","null","","","","","","",""
"null","","html-keyboard-response","28","188924","0.0-2.0-2.8","","<div style=""font-size:60px;"">+</div>","null","","","","","","",""
"null","","image-keyboard-response","29","190434","0.0-2.0-0.9","","img/test3.PNG","null","practice","null","true","","","",""
"null","","html-keyboard-response","30","191448","0.0-2.0-1.9","","<img src=""img/test3-reward.PNG"">","null","","","","","","",""
"null","","html-keyboard-response","31","192456","0.0-2.0-2.9","","<div style=""font-size:60px;"">+</div>","null","","","","","","",""
"350","","image-keyboard-response","32","192807","0.0-2.0-0.10","","img/test1.PNG","32","practice","32","true","","","",""
"null","","html-keyboard-response","33","193808","0.0-2.0-1.10","","<img src=""img/test1-reward.PNG"" border=""10px; grey"">","null","","","","","","",""
"null","","html-keyboard-response","34","194813","0.0-2.0-2.10","","<div style=""font-size:60px;"">+</div>","null","","","","","","",""
"null","","image-keyboard-response","35","196315","0.0-2.0-0.11","","img/test2.PNG","null","practice","null","true","","","",""
"null","","html-keyboard-response","36","197316","0.0-2.0-1.11","","<img src=""img/test2-reward.PNG"">","null","","","","","","",""
"null","","html-keyboard-response","37","198318","0.0-2.0-2.11","","<div style=""font-size:60px;"">+</div>","null","","","","","","",""
"2302.4000000059605","","instructions","38","200621","0.0-3.0","[{""page_index"":0,""viewing_time"":2302.199999988079}]","","","","","","","","",""
"896.7000000178814","","image-keyboard-response","39","201519","0.0-4.0-0.0","","img/blue.png","32","trial","32","true","0.8,0.2","1:go_a","",""
"null","","html-keyboard-response","40","202523","0.0-4.0-1.0","","<img src=""img/blue-n.png"" border=""10"">","null","trial","32","","0.8,0.2","1:go_a","0",""
"null","","html-keyboard-response","41","203527","0.0-4.0-2.0","","<div style=""font-size:60px;"">+</div>","null","","","","","","",""
"1430.5999999940395","","image-keyboard-response","42","204959","0.0-4.0-0.1","","img/yellow.png","32","trial","null","false","0.2,0.8","2:nogo_b","",""
"null","","html-keyboard-response","43","205961","0.0-4.0-1.1","","<img src=""img/yellow-n.png"" border=""10"">","null","trial","null","","0.2,0.8","2:nogo_b","0",""
"null","","html-keyboard-response","44","206973","0.0-4.0-2.1","","<div style=""font-size:60px;"">+</div>","null","","","","","","",""
"633","","image-keyboard-response","45","207607","0.0-4.0-0.2","","img/yellow.png","32","trial","null","false","0.2,0.8","2:nogo_b","",""
"null","","html-keyboard-response","46","208621","0.0-4.0-1.2","","<img src=""img/yellow-n.png"" border=""10"">","null","trial","null","","0.2,0.8","2:nogo_b","0",""
"null","","html-keyboard-response","47","209633","0.0-4.0-2.2","","<div style=""font-size:60px;"">+</div>","null","","","","","","",""
"908.9000000059605","","image-keyboard-response","48","210543","0.0-4.0-0.3","","img/blue.png","32","trial","32","true","0.8,0.2","1:go_a","",""
"null","","html-keyboard-response","49","211559","0.0-4.0-1.3","","<img src=""img/blue-r.png"" border=""10"">","null","trial","32","","0.8,0.2","1:go_a","1",""
"null","","html-keyboard-response","50","212568","0.0-4.0-2.3","","<div style=""font-size:60px;"">+</div>","null","","","","","","",""
"null","","image-keyboard-response","51","214074","0.0-4.0-0.4","","img/yellow.png","null","trial","null","true","0.2,0.8","2:nogo_b","",""
"null","","html-keyboard-response","52","215087","0.0-4.0-1.4","","<img src=""img/yellow-r.png"">","null","trial","null","","0.2,0.8","2:nogo_b","1",""
"null","","html-keyboard-response","53","216100","0.0-4.0-2.4","","<div style=""font-size:60px;"">+</div>","null","","","","","","",""
"338.10000002384186","","image-keyboard-response","54","216438","0.0-4.0-0.5","","img/blue.png","32","trial","32","true","0.8,0.2","1:go_a","",""
"null","","html-keyboard-response","55","217451","0.0-4.0-1.5","","<img src=""img/blue-r.png"" border=""10"">","null","trial","32","","0.8,0.2","1:go_a","1",""
"null","","html-keyboard-response","56","218460","0.0-4.0-2.5","","<div style=""font-size:60px;"">+</div>","null","","","","","","",""
"433.59999999403954","","image-keyboard-response","57","218895","0.0-4.0-0.6","","img/blue.png","32","trial","32","true","0.8,0.2","1:go_a","",""
"null","","html-keyboard-response","58","219907","0.0-4.0-1.6","","<img src=""img/blue-n.png"" border=""10"">","null","trial","32","","0.8,0.2","1:go_a","0",""
"null","","html-keyboard-response","59","220913","0.0-4.0-2.6","","<div style=""font-size:60px;"">+</div>","null","","","","","","",""
"null","","image-keyboard-response","60","222420","0.0-4.0-0.7","","img/yellow.png","null","trial","null","true","0.2,0.8","2:nogo_b","",""
"null","","html-keyboard-response","61","223429","0.0-4.0-1.7","","<img src=""img/yellow-r.png"">","null","trial","null","","0.2,0.8","2:nogo_b","1",""
"null","","html-keyboard-response","62","224436","0.0-4.0-2.7","","<div style=""font-size:60px;"">+</div>","null","","","","","","",""
"null","","image-keyboard-response","63","225952","0.0-4.0-0.8","","img/yellow.png","null","trial","null","true","0.2,0.8","2:nogo_b","",""
"null","","html-keyboard-response","64","226966","0.0-4.0-1.8","","<img src=""img/yellow-r.png"">","null","trial","null","","0.2,0.8","2:nogo_b","1",""
"null","","html-keyboard-response","65","227967","0.0-4.0-2.8","","<div style=""font-size:60px;"">+</div>","null","","","","","","",""
"447","","image-keyboard-response","66","228415","0.0-4.0-0.9","","img/blue.png","32","trial","32","true","0.8,0.2","1:go_a","",""
"null","","html-keyboard-response","67","229424","0.0-4.0-1.9","","<img src=""img/blue-r.png"" border=""10"">","null","trial","32","","0.8,0.2","1:go_a","1",""
"null","","html-keyboard-response","68","230435","0.0-4.0-2.9","","<div style=""font-size:60px;"">+</div>","null","","","","","","",""
"435.2000000178814","","image-keyboard-response","69","230871","0.0-4.0-0.10","","img/blue.png","32","trial","32","true","0.8,0.2","1:go_a","",""
"null","","html-keyboard-response","70","231877","0.0-4.0-1.10","","<img src=""img/blue-r.png"" border=""10"">","null","trial","32","","0.8,0.2","1:go_a","1",""
"null","","html-keyboard-response","71","232890","0.0-4.0-2.10","","<div style=""font-size:60px;"">+</div>","null","","","","","","",""
"null","","image-keyboard-response","72","234392","0.0-4.0-0.11","","img/yellow.png","null","trial","null","true","0.2,0.8","2:nogo_b","",""
"null","","html-keyboard-response","73","235393","0.0-4.0-1.11","","<img src=""img/yellow-r.png"">","null","trial","null","","0.2,0.8","2:nogo_b","1",""
"null","","html-keyboard-response","74","236396","0.0-4.0-2.11","","<div style=""font-size:60px;"">+</div>","null","","","","","","",""
"null","","image-keyboard-response","75","237900","0.0-4.0-0.12","","img/yellow.png","null","trial","null","true","0.2,0.8","2:nogo_b","",""
"null","","html-keyboard-response","76","238912","0.0-4.0-1.12","","<img src=""img/yellow-r.png"">","null","trial","null","","0.2,0.8","2:nogo_b","1",""
"null","","html-keyboard-response","77","239921","0.0-4.0-2.12","","<div style=""font-size:60px;"">+</div>","null","","","","","","",""
"381.5","","image-keyboard-response","78","240303","0.0-4.0-0.13","","img/blue.png","32","trial","32","true","0.8,0.2","1:go_a","",""
"null","","html-keyboard-response","79","241305","0.0-4.0-1.13","","<img src=""img/blue-r.png"" border=""10"">","null","trial","32","","0.8,0.2","1:go_a","1",""
"null","","html-keyboard-response","80","242312","0.0-4.0-2.13","","<div style=""font-size:60px;"">+</div>","null","","","","","","",""
"397.7999999821186","","image-keyboard-response","81","242711","0.0-4.0-0.14","","img/blue.png","32","trial","32","true","0.8,0.2","1:go_a","",""
"null","","html-keyboard-response","82","243717","0.0-4.0-1.14","","<img src=""img/blue-r.png"" border=""10"">","null","trial","32","","0.8,0.2","1:go_a","1",""
"null","","html-keyboard-response","83","244726","0.0-4.0-2.14","","<div style=""font-size:60px;"">+</div>","null","","","","","","",""
"null","","image-keyboard-response","84","246231","0.0-4.0-0.15","","img/yellow.png","null","trial","null","true","0.2,0.8","2:nogo_b","",""
"null","","html-keyboard-response","85","247239","0.0-4.0-1.15","","<img src=""img/yellow-r.png"">","null","trial","null","","0.2,0.8","2:nogo_b","1",""
"null","","html-keyboard-response","86","248248","0.0-4.0-2.15","","<div style=""font-size:60px;"">+</div>","null","","","","","","",""
"null","","image-keyboard-response","87","249758","0.0-4.0-0.16","","img/yellow.png","null","trial","null","true","0.2,0.8","2:nogo_b","",""
"null","","html-keyboard-response","88","250766","0.0-4.0-1.16","","<img src=""img/yellow-r.png"">","null","trial","null","","0.2,0.8","2:nogo_b","1",""
"null","","html-keyboard-response","89","251777","0.0-4.0-2.16","","<div style=""font-size:60px;"">+</div>","null","","","","","","",""
"397","","image-keyboard-response","90","252175","0.0-4.0-0.17","","img/blue.png","32","trial","32","true","0.8,0.2","1:go_a","",""
"null","","html-keyboard-response","91","253181","0.0-4.0-1.17","","<img src=""img/blue-n.png"" border=""10"">","null","trial","32","","0.8,0.2","1:go_a","0",""
"null","","html-keyboard-response","92","254192","0.0-4.0-2.17","","<div style=""font-size:60px;"">+</div>","null","","","","","","",""
"837.6000000238419","","image-keyboard-response","93","255031","0.0-4.0-0.18","","img/blue.png","32","trial","32","true","0.8,0.2","1:go_a","",""
"null","","html-keyboard-response","94","256043","0.0-4.0-1.18","","<img src=""img/blue-r.png"" border=""10"">","null","trial","32","","0.8,0.2","1:go_a","1",""
"null","","html-keyboard-response","95","257055","0.0-4.0-2.18","","<div style=""font-size:60px;"">+</div>","null","","","","","","",""
"null","","image-keyboard-response","96","258562","0.0-4.0-0.19","","img/yellow.png","null","trial","null","true","0.2,0.8","2:nogo_b","",""
"null","","html-keyboard-response","97","259573","0.0-4.0-1.19","","<img src=""img/yellow-n.png"">","null","trial","null","","0.2,0.8","2:nogo_b","0",""
"null","","html-keyboard-response","98","260585","0.0-4.0-2.19","","<div style=""font-size:60px;"">+</div>","null","","","","","","",""
"null","","image-keyboard-response","99","262091","0.0-4.0-0.20","","img/yellow.png","null","trial","null","true","0.2,0.8","2:nogo_b","",""
"null","","html-keyboard-response","100","263104","0.0-4.0-1.20","","<img src=""img/yellow-r.png"">","null","trial","null","","0.2,0.8","2:nogo_b","1",""
"null","","html-keyboard-response","101","264105","0.0-4.0-2.20","","<div style=""font-size:60px;"">+</div>","null","","","","","","",""
"525.0999999940395","","image-keyboard-response","102","264631","0.0-4.0-0.21","","img/blue.png","32","trial","32","true","0.8,0.2","1:go_a","",""
"null","","html-keyboard-response","103","265636","0.0-4.0-1.21","","<img src=""img/blue-r.png"" border=""10"">","null","trial","32","","0.8,0.2","1:go_a","1",""
"null","","html-keyboard-response","104","266644","0.0-4.0-2.21","","<div style=""font-size:60px;"">+</div>","null","","","","","","",""
"418.30000001192093","","image-keyboard-response","105","267063","0.0-4.0-0.22","","img/blue.png","32","trial","32","true","0.8,0.2","1:go_a","",""
"null","","html-keyboard-response","106","268079","0.0-4.0-1.22","","<img src=""img/blue-r.png"" border=""10"">","null","trial","32","","0.8,0.2","1:go_a","1",""
"null","","html-keyboard-response","107","269091","0.0-4.0-2.22","","<div style=""font-size:60px;"">+</div>","null","","","","","","",""
"null","","image-keyboard-response","108","270597","0.0-4.0-0.23","","img/yellow.png","null","trial","null","true","0.2,0.8","2:nogo_b","",""
"null","","html-keyboard-response","109","271598","0.0-4.0-1.23","","<img src=""img/yellow-n.png"">","null","trial","null","","0.2,0.8","2:nogo_b","0",""
"null","","html-keyboard-response","110","272612","0.0-4.0-2.23","","<div style=""font-size:60px;"">+</div>","null","","","","","","",""
"null","","image-keyboard-response","111","274118","0.0-4.0-0.24","","img/yellow.png","null","trial","null","true","0.2,0.8","2:nogo_b","",""
"null","","html-keyboard-response","112","275120","0.0-4.0-1.24","","<img src=""img/yellow-n.png"">","null","trial","null","","0.2,0.8","2:nogo_b","0",""
"null","","html-keyboard-response","113","276129","0.0-4.0-2.24","","<div style=""font-size:60px;"">+</div>","null","","","","","","",""
"373","","image-keyboard-response","114","276503","0.0-4.0-0.25","","img/blue.png","32","trial","32","true","0.8,0.2","1:go_a","",""
"null","","html-keyboard-response","115","277512","0.0-4.0-1.25","","<img src=""img/blue-r.png"" border=""10"">","null","trial","32","","0.8,0.2","1:go_a","1",""
"null","","html-keyboard-response","116","278528","0.0-4.0-2.25","","<div style=""font-size:60px;"">+</div>","null","","","","","","",""
"453.90000000596046","","image-keyboard-response","117","278983","0.0-4.0-0.26","","img/blue.png","32","trial","32","true","0.8,0.2","1:go_a","",""
"null","","html-keyboard-response","118","279987","0.0-4.0-1.26","","<img src=""img/blue-r.png"" border=""10"">","null","trial","32","","0.8,0.2","1:go_a","1",""
"null","","html-keyboard-response","119","280997","0.0-4.0-2.26","","<div style=""font-size:60px;"">+</div>","null","","","","","","",""
"null","","image-keyboard-response","120","282500","0.0-4.0-0.27","","img/yellow.png","null","trial","null","true","0.2,0.8","2:nogo_b","",""
"null","","html-keyboard-response","121","283512","0.0-4.0-1.27","","<img src=""img/yellow-r.png"">","null","trial","null","","0.2,0.8","2:nogo_b","1",""
"null","","html-keyboard-response","122","284522","0.0-4.0-2.27","","<div style=""font-size:60px;"">+</div>","null","","","","","","",""
"339.80000001192093","","image-keyboard-response","123","284863","0.0-4.0-0.28","","img/blue.png","32","trial","32","true","0.8,0.2","1:go_a","",""
"null","","html-keyboard-response","124","285878","0.0-4.0-1.28","","<img src=""img/blue-n.png"" border=""10"">","null","trial","32","","0.8,0.2","1:go_a","0",""
"null","","html-keyboard-response","125","286886","0.0-4.0-2.28","","<div style=""font-size:60px;"">+</div>","null","","","","","","",""
"null","","image-keyboard-response","126","288393","0.0-4.0-0.29","","img/yellow.png","null","trial","null","true","0.2,0.8","2:nogo_b","",""
"null","","html-keyboard-response","127","289404","0.0-4.0-1.29","","<img src=""img/yellow-r.png"">","null","trial","null","","0.2,0.8","2:nogo_b","1",""
"null","","html-keyboard-response","128","290413","0.0-4.0-2.29","","<div style=""font-size:60px;"">+</div>","null","","","","","","",""
"393.09999999403954","","image-keyboard-response","129","290807","0.0-4.0-0.30","","img/blue.png","32","trial","32","true","0.8,0.2","1:go_a","",""
"null","","html-keyboard-response","130","291810","0.0-4.0-1.30","","<img src=""img/blue-r.png"" border=""10"">","null","trial","32","","0.8,0.2","1:go_a","1",""
"null","","html-keyboard-response","131","292818","0.0-4.0-2.30","","<div style=""font-size:60px;"">+</div>","null","","","","","","",""
"null","","image-keyboard-response","132","294321","0.0-4.0-0.31","","img/yellow.png","null","trial","null","true","0.2,0.8","2:nogo_b","",""
"null","","html-keyboard-response","133","295334","0.0-4.0-1.31","","<img src=""img/yellow-r.png"">","null","trial","null","","0.2,0.8","2:nogo_b","1",""
"null","","html-keyboard-response","134","296347","0.0-4.0-2.31","","<div style=""font-size:60px;"">+</div>","null","","","","","","",""
"387","","image-keyboard-response","135","296735","0.0-4.0-0.32","","img/blue.png","32","trial","32","true","0.8,0.2","1:go_a","",""
"null","","html-keyboard-response","136","297746","0.0-4.0-1.32","","<img src=""img/blue-r.png"" border=""10"">","null","trial","32","","0.8,0.2","1:go_a","1",""
"null","","html-keyboard-response","137","298756","0.0-4.0-2.32","","<div style=""font-size:60px;"">+</div>","null","","","","","","",""
"null","","image-keyboard-response","138","300265","0.0-4.0-0.33","","img/yellow.png","null","trial","null","true","0.2,0.8","2:nogo_b","",""
"null","","html-keyboard-response","139","301275","0.0-4.0-1.33","","<img src=""img/yellow-r.png"">","null","trial","null","","0.2,0.8","2:nogo_b","1",""
"null","","html-keyboard-response","140","302285","0.0-4.0-2.33","","<div style=""font-size:60px;"">+</div>","null","","","","","","",""
"null","","image-keyboard-response","141","303800","0.0-4.0-0.34","","img/yellow.png","null","trial","null","true","0.2,0.8","2:nogo_b","",""
"null","","html-keyboard-response","142","304808","0.0-4.0-1.34","","<img src=""img/yellow-r.png"">","null","trial","null","","0.2,0.8","2:nogo_b","1",""
"null","","html-keyboard-response","143","305809","0.0-4.0-2.34","","<div style=""font-size:60px;"">+</div>","null","","","","","","",""
"413.19999998807907","","image-keyboard-response","144","306223","0.0-4.0-0.35","","img/blue.png","32","trial","32","true","0.8,0.2","1:go_a","",""
"null","","html-keyboard-response","145","307234","0.0-4.0-1.35","","<img src=""img/blue-r.png"" border=""10"">","null","trial","32","","0.8,0.2","1:go_a","1",""
"null","","html-keyboard-response","146","308248","0.0-4.0-2.35","","<div style=""font-size:60px;"">+</div>","null","","","","","","",""
"454.40000000596046","","image-keyboard-response","147","308703","0.0-4.0-0.36","","img/blue.png","32","trial","32","true","0.8,0.2","1:go_a","",""
"null","","html-keyboard-response","148","309712","0.0-4.0-1.36","","<img src=""img/blue-r.png"" border=""10"">","null","trial","32","","0.8,0.2","1:go_a","1",""
"null","","html-keyboard-response","149","310717","0.0-4.0-2.36","","<div style=""font-size:60px;"">+</div>","null","","","","","","",""
"null","","image-keyboard-response","150","312228","0.0-4.0-0.37","","img/yellow.png","null","trial","null","true","0.2,0.8","2:nogo_b","",""
"null","","html-keyboard-response","151","313239","0.0-4.0-1.37","","<img src=""img/yellow-r.png"">","null","trial","null","","0.2,0.8","2:nogo_b","1",""
"null","","html-keyboard-response","152","314250","0.0-4.0-2.37","","<div style=""font-size:60px;"">+</div>","null","","","","","","",""
"356.09999999403954","","image-keyboard-response","153","314607","0.0-4.0-0.38","","img/blue.png","32","trial","32","true","0.8,0.2","1:go_a","",""
"null","","html-keyboard-response","154","315620","0.0-4.0-1.38","","<img src=""img/blue-n.png"" border=""10"">","null","trial","32","","0.8,0.2","1:go_a","0",""
"null","","html-keyboard-response","155","316633","0.0-4.0-2.38","","<div style=""font-size:60px;"">+</div>","null","","","","","","",""
"null","","image-keyboard-response","156","318139","0.0-4.0-0.39","","img/yellow.png","null","trial","null","true","0.2,0.8","2:nogo_b","",""
"null","","html-keyboard-response","157","319152","0.0-4.0-1.39","","<img src=""img/yellow-r.png"">","null","trial","null","","0.2,0.8","2:nogo_b","1",""
"null","","html-keyboard-response","158","320156","0.0-4.0-2.39","","<div style=""font-size:60px;"">+</div>","null","","","","","","",""
"314.19999998807907","","image-keyboard-response","159","320471","0.0-4.0-0.40","","img/blue.png","32","trial","32","true","0.8,0.2","1:go_a","",""
"null","","html-keyboard-response","160","321477","0.0-4.0-1.40","","<img src=""img/blue-r.png"" border=""10"">","null","trial","32","","0.8,0.2","1:go_a","1",""
"null","","html-keyboard-response","161","322486","0.0-4.0-2.40","","<div style=""font-size:60px;"">+</div>","null","","","","","","",""
"null","","image-keyboard-response","162","323994","0.0-4.0-0.41","","img/yellow.png","null","trial","null","true","0.2,0.8","2:nogo_b","",""
"null","","html-keyboard-response","163","325001","0.0-4.0-1.41","","<img src=""img/yellow-r.png"">","null","trial","null","","0.2,0.8","2:nogo_b","1",""
"null","","html-keyboard-response","164","326014","0.0-4.0-2.41","","<div style=""font-size:60px;"">+</div>","null","","","","","","",""
"null","","image-keyboard-response","165","327524","0.0-4.0-0.42","","img/yellow.png","null","trial","null","true","0.2,0.8","2:nogo_b","",""
"null","","html-keyboard-response","166","328526","0.0-4.0-1.42","","<img src=""img/yellow-r.png"">","null","trial","null","","0.2,0.8","2:nogo_b","1",""
"null","","html-keyboard-response","167","329530","0.0-4.0-2.42","","<div style=""font-size:60px;"">+</div>","null","","","","","","",""
"307.7000000178814","","image-keyboard-response","168","329838","0.0-4.0-0.43","","img/blue.png","32","trial","32","true","0.8,0.2","1:go_a","",""
"null","","html-keyboard-response","169","330855","0.0-4.0-1.43","","<img src=""img/blue-r.png"" border=""10"">","null","trial","32","","0.8,0.2","1:go_a","1",""
"null","","html-keyboard-response","170","331865","0.0-4.0-2.43","","<div style=""font-size:60px;"">+</div>","null","","","","","","",""
"null","","image-keyboard-response","171","333372","0.0-4.0-0.44","","img/yellow.png","null","trial","null","true","0.2,0.8","2:nogo_b","",""
"null","","html-keyboard-response","172","334386","0.0-4.0-1.44","","<img src=""img/yellow-r.png"">","null","trial","null","","0.2,0.8","2:nogo_b","1",""
"null","","html-keyboard-response","173","335396","0.0-4.0-2.44","","<div style=""font-size:60px;"">+</div>","null","","","","","","",""
"362.19999998807907","","image-keyboard-response","174","335759","0.0-4.0-0.45","","img/blue.png","32","trial","32","true","0.8,0.2","1:go_a","",""
"null","","html-keyboard-response","175","336765","0.0-4.0-1.45","","<img src=""img/blue-n.png"" border=""10"">","null","trial","32","","0.8,0.2","1:go_a","0",""
"null","","html-keyboard-response","176","337780","0.0-4.0-2.45","","<div style=""font-size:60px;"">+</div>","null","","","","","","",""
"434.10000002384186","","image-keyboard-response","177","338215","0.0-4.0-0.46","","img/blue.png","32","trial","32","true","0.8,0.2","1:go_a","",""
"null","","html-keyboard-response","178","339218","0.0-4.0-1.46","","<img src=""img/blue-n.png"" border=""10"">","null","trial","32","","0.8,0.2","1:go_a","0",""
"null","","html-keyboard-response","179","340230","0.0-4.0-2.46","","<div style=""font-size:60px;"">+</div>","null","","","","","","",""
"null","","image-keyboard-response","180","341744","0.0-4.0-0.47","","img/yellow.png","null","trial","null","true","0.2,0.8","2:nogo_b","",""
"null","","html-keyboard-response","181","342755","0.0-4.0-1.47","","<img src=""img/yellow-r.png"">","null","trial","null","","0.2,0.8","2:nogo_b","1",""
"null","","html-keyboard-response","182","343756","0.0-4.0-2.47","","<div style=""font-size:60px;"">+</div>","null","","","","","","",""
"314.59999999403954","","image-keyboard-response","183","344071","0.0-4.0-0.48","","img/blue.png","32","trial","32","true","0.8,0.2","1:go_a","",""
"null","","html-keyboard-response","184","345083","0.0-4.0-1.48","","<img src=""img/blue-r.png"" border=""10"">","null","trial","32","","0.8,0.2","1:go_a","1",""
"null","","html-keyboard-response","185","346099","0.0-4.0-2.48","","<div style=""font-size:60px;"">+</div>","null","","","","","","",""
"null","","image-keyboard-response","186","347604","0.0-4.0-0.49","","img/yellow.png","null","trial","null","true","0.2,0.8","2:nogo_b","",""
"null","","html-keyboard-response","187","348612","0.0-4.0-1.49","","<img src=""img/yellow-r.png"">","null","trial","null","","0.2,0.8","2:nogo_b","1",""
"null","","html-keyboard-response","188","349618","0.0-4.0-2.49","","<div style=""font-size:60px;"">+</div>","null","","","","","","",""
"348.19999998807907","","image-keyboard-response","189","349967","0.0-4.0-0.50","","img/blue.png","32","trial","32","true","0.8,0.2","1:go_a","",""
"null","","html-keyboard-response","190","350971","0.0-4.0-1.50","","<img src=""img/blue-r.png"" border=""10"">","null","trial","32","","0.8,0.2","1:go_a","1",""
"null","","html-keyboard-response","191","351978","0.0-4.0-2.50","","<div style=""font-size:60px;"">+</div>","null","","","","","","",""
"null","","image-keyboard-response","192","353491","0.0-4.0-0.51","","img/yellow.png","null","trial","null","true","0.2,0.8","2:nogo_b","",""
"null","","html-keyboard-response","193","354504","0.0-4.0-1.51","","<img src=""img/yellow-r.png"">","null","trial","null","","0.2,0.8","2:nogo_b","1",""
"null","","html-keyboard-response","194","355514","0.0-4.0-2.51","","<div style=""font-size:60px;"">+</div>","null","","","","","","",""
"380","","image-keyboard-response","195","355895","0.0-4.0-0.52","","img/blue.png","32","trial","32","true","0.8,0.2","1:go_a","",""
"null","","html-keyboard-response","196","356902","0.0-4.0-1.52","","<img src=""img/blue-r.png"" border=""10"">","null","trial","32","","0.8,0.2","1:go_a","1",""
"null","","html-keyboard-response","197","357910","0.0-4.0-2.52","","<div style=""font-size:60px;"">+</div>","null","","","","","","",""
"null","","image-keyboard-response","198","359415","0.0-4.0-0.53","","img/yellow.png","null","trial","null","true","0.2,0.8","2:nogo_b","",""
"null","","html-keyboard-response","199","360425","0.0-4.0-1.53","","<img src=""img/yellow-r.png"">","null","trial","null","","0.2,0.8","2:nogo_b","1",""
"null","","html-keyboard-response","200","361431","0.0-4.0-2.53","","<div style=""font-size:60px;"">+</div>","null","","","","","","",""
"null","","image-keyboard-response","201","362945","0.0-4.0-0.54","","img/yellow.png","null","trial","null","true","0.2,0.8","2:nogo_b","",""
"null","","html-keyboard-response","202","363953","0.0-4.0-1.54","","<img src=""img/yellow-r.png"">","null","trial","null","","0.2,0.8","2:nogo_b","1",""
"null","","html-keyboard-response","203","364961","0.0-4.0-2.54","","<div style=""font-size:60px;"">+</div>","null","","","","","","",""
"413.09999999403954","","image-keyboard-response","204","365375","0.0-4.0-0.55","","img/blue.png","32","trial","32","true","0.8,0.2","1:go_a","",""
"null","","html-keyboard-response","205","366376","0.0-4.0-1.55","","<img src=""img/blue-r.png"" border=""10"">","null","trial","32","","0.8,0.2","1:go_a","1",""
"null","","html-keyboard-response","206","367385","0.0-4.0-2.55","","<div style=""font-size:60px;"">+</div>","null","","","","","","",""
"500.90000000596046","","image-keyboard-response","207","367886","0.0-4.0-0.56","","img/blue.png","32","trial","32","true","0.8,0.2","1:go_a","",""
"null","","html-keyboard-response","208","368888","0.0-4.0-1.56","","<img src=""img/blue-r.png"" border=""10"">","null","trial","32","","0.8,0.2","1:go_a","1",""
"null","","html-keyboard-response","209","369904","0.0-4.0-2.56","","<div style=""font-size:60px;"">+</div>","null","","","","","","",""
"null","","image-keyboard-response","210","371412","0.0-4.0-0.57","","img/yellow.png","null","trial","null","true","0.2,0.8","2:nogo_b","",""
"null","","html-keyboard-response","211","372425","0.0-4.0-1.57","","<img src=""img/yellow-r.png"">","null","trial","null","","0.2,0.8","2:nogo_b","1",""
"null","","html-keyboard-response","212","373432","0.0-4.0-2.57","","<div style=""font-size:60px;"">+</div>","null","","","","","","",""
"null","","image-keyboard-response","213","374941","0.0-4.0-0.58","","img/yellow.png","null","trial","null","true","0.2,0.8","2:nogo_b","",""
"null","","html-keyboard-response","214","375956","0.0-4.0-1.58","","<img src=""img/yellow-r.png"">","null","trial","null","","0.2,0.8","2:nogo_b","1",""
"null","","html-keyboard-response","215","376961","0.0-4.0-2.58","","<div style=""font-size:60px;"">+</div>","null","","","","","","",""
"381.09999999403954","","image-keyboard-response","216","377343","0.0-4.0-0.59","","img/blue.png","32","trial","32","true","0.8,0.2","1:go_a","",""
"null","","html-keyboard-response","217","378359","0.0-4.0-1.59","","<img src=""img/blue-r.png"" border=""10"">","null","trial","32","","0.8,0.2","1:go_a","1",""
"null","","html-keyboard-response","218","379371","0.0-4.0-2.59","","<div style=""font-size:60px;"">+</div>","null","","","","","","",""
"69368","","instructions","219","448739","0.0-5.0","[{""page_index"":0,""viewing_time"":69367.70000001788}]","","","","","","","","",""
"1450.0999999940395","","image-keyboard-response","220","450190","0.0-6.0-0.0","","img/purple.png","32","trial","null","false","0.4,0.6","4:nogo_d","",""
"null","","html-keyboard-response","221","451191","0.0-6.0-1.0","","<img src=""img/purple-n.png"" border=""10"">","null","trial","null","","0.4,0.6","4:nogo_d","0",""
"null","","html-keyboard-response","222","452200","0.0-6.0-2.0","","<div style=""font-size:60px;"">+</div>","null","","","","","","",""
"477.90000000596046","","image-keyboard-response","223","452678","0.0-6.0-0.1","","img/green.png","32","trial","32","true","0.6,0.4","3:go_c","",""
"null","","html-keyboard-response","224","453688","0.0-6.0-1.1","","<img src=""img/green-r.png"" border=""10"">","null","trial","32","","0.6,0.4","3:go_c","1",""
"null","","html-keyboard-response","225","454697","0.0-6.0-2.1","","<div style=""font-size:60px;"">+</div>","null","","","","","","",""
"837","","image-keyboard-response","226","455534","0.0-6.0-0.2","","img/blue.png","32","trial","32","true","0.6,0.4","1:go_a","",""
"null","","html-keyboard-response","227","456545","0.0-6.0-1.2","","<img src=""img/blue-r.png"" border=""10"">","null","trial","32","","0.6,0.4","1:go_a","1",""
"null","","html-keyboard-response","228","457553","0.0-6.0-2.2","","<div style=""font-size:60px;"">+</div>","null","","","","","","",""
"637.0999999940395","","image-keyboard-response","229","458190","0.0-6.0-0.3","","img/grey.png","32","trial","null","false","0.4,0.6","2:nogo_b","",""
"null","","html-keyboard-response","230","459203","0.0-6.0-1.3","","<img src=""img/grey-r.png"" border=""10"">","null","trial","null","","0.4,0.6","2:nogo_b","1",""
"null","","html-keyboard-response","231","460211","0.0-6.0-2.3","","<div style=""font-size:60px;"">+</div>","null","","","","","","",""
"779.0999999940395","","image-keyboard-response","232","460990","0.0-6.0-0.4","","img/blue.png","32","trial","32","true","0.6,0.4","1:go_a","",""
"null","","html-keyboard-response","233","462006","0.0-6.0-1.4","","<img src=""img/blue-n.png"" border=""10"">","null","trial","32","","0.6,0.4","1:go_a","0",""
"null","","html-keyboard-response","234","463018","0.0-6.0-2.4","","<div style=""font-size:60px;"">+</div>","null","","","","","","",""
"676.3999999761581","","image-keyboard-response","235","463694","0.0-6.0-0.5","","img/grey.png","32","trial","null","false","0.4,0.6","2:nogo_b","",""
"null","","html-keyboard-response","236","464701","0.0-6.0-1.5","","<img src=""img/grey-r.png"" border=""10"">","null","trial","null","","0.4,0.6","2:nogo_b","1",""
"null","","html-keyboard-response","237","465710","0.0-6.0-2.5","","<div style=""font-size:60px;"">+</div>","null","","","","","","",""
"471.40000000596046","","image-keyboard-response","238","466182","0.0-6.0-0.6","","img/purple.png","32","trial","null","false","0.4,0.6","4:nogo_d","",""
"null","","html-keyboard-response","239","467186","0.0-6.0-1.6","","<img src=""img/purple-r.png"" border=""10"">","null","trial","null","","0.4,0.6","4:nogo_d","1",""
"null","","html-keyboard-response","240","468196","0.0-6.0-2.6","","<div style=""font-size:60px;"">+</div>","null","","","","","","",""
"425.90000000596046","","image-keyboard-response","241","468622","0.0-6.0-0.7","","img/green.png","32","trial","32","true","0.6,0.4","3:go_c","",""
"null","","html-keyboard-response","242","469638","0.0-6.0-1.7","","<img src=""img/green-r.png"" border=""10"">","null","trial","32","","0.6,0.4","3:go_c","1",""
"null","","html-keyboard-response","243","470640","0.0-6.0-2.7","","<div style=""font-size:60px;"">+</div>","null","","","","","","",""
"478.09999999403954","","image-keyboard-response","244","471118","0.0-6.0-0.8","","img/purple.png","32","trial","null","false","0.4,0.6","4:nogo_d","",""
"null","","html-keyboard-response","245","472132","0.0-6.0-1.8","","<img src=""img/purple-n.png"" border=""10"">","null","trial","null","","0.4,0.6","4:nogo_d","0",""
"null","","html-keyboard-response","246","473142","0.0-6.0-2.8","","<div style=""font-size:60px;"">+</div>","null","","","","","","",""
"480","","image-keyboard-response","247","473622","0.0-6.0-0.9","","img/grey.png","32","trial","null","false","0.4,0.6","2:nogo_b","",""
"null","","html-keyboard-response","248","474633","0.0-6.0-1.9","","<img src=""img/grey-n.png"" border=""10"">","null","trial","null","","0.4,0.6","2:nogo_b","0",""
"null","","html-keyboard-response","249","475649","0.0-6.0-2.9","","<div style=""font-size:60px;"">+</div>","null","","","","","","",""
"445.19999998807907","","image-keyboard-response","250","476094","0.0-6.0-0.10","","img/blue.png","32","trial","32","true","0.6,0.4","1:go_a","",""
"null","","html-keyboard-response","251","477110","0.0-6.0-1.10","","<img src=""img/blue-r.png"" border=""10"">","null","trial","32","","0.6,0.4","1:go_a","1",""
"null","","html-keyboard-response","252","478126","0.0-6.0-2.10","","<div style=""font-size:60px;"">+</div>","null","","","","","","",""
"391.19999998807907","","image-keyboard-response","253","478518","0.0-6.0-0.11","","img/green.png","32","trial","32","true","0.6,0.4","3:go_c","",""
"null","","html-keyboard-response","254","479522","0.0-6.0-1.11","","<img src=""img/green-n.png"" border=""10"">","null","trial","32","","0.6,0.4","3:go_c","0",""
"null","","html-keyboard-response","255","480536","0.0-6.0-2.11","","<div style=""font-size:60px;"">+</div>","null","","","","","","",""
"461.09999999403954","","image-keyboard-response","256","480998","0.0-6.0-0.12","","img/grey.png","32","trial","null","false","0.4,0.6","2:nogo_b","",""
"null","","html-keyboard-response","257","482003","0.0-6.0-1.12","","<img src=""img/grey-r.png"" border=""10"">","null","trial","null","","0.4,0.6","2:nogo_b","1",""
"null","","html-keyboard-response","258","483016","0.0-6.0-2.12","","<div style=""font-size:60px;"">+</div>","null","","","","","","",""
"397.40000000596046","","image-keyboard-response","259","483414","0.0-6.0-0.13","","img/blue.png","32","trial","32","true","0.6,0.4","1:go_a","",""
"null","","html-keyboard-response","260","484429","0.0-6.0-1.13","","<img src=""img/blue-n.png"" border=""10"">","null","trial","32","","0.6,0.4","1:go_a","0",""
"null","","html-keyboard-response","261","485441","0.0-6.0-2.13","","<div style=""font-size:60px;"">+</div>","null","","","","","","",""
"476.90000000596046","","image-keyboard-response","262","485918","0.0-6.0-0.14","","img/green.png","32","trial","32","true","0.6,0.4","3:go_c","",""
"null","","html-keyboard-response","263","486921","0.0-6.0-1.14","","<img src=""img/green-n.png"" border=""10"">","null","trial","32","","0.6,0.4","3:go_c","0",""
"null","","html-keyboard-response","264","487928","0.0-6.0-2.14","","<div style=""font-size:60px;"">+</div>","null","","","","","","",""
"310.09999999403954","","image-keyboard-response","265","488238","0.0-6.0-0.15","","img/purple.png","32","trial","null","false","0.4,0.6","4:nogo_d","",""
"null","","html-keyboard-response","266","489251","0.0-6.0-1.15","","<img src=""img/purple-r.png"" border=""10"">","null","trial","null","","0.4,0.6","4:nogo_d","1",""
"null","","html-keyboard-response","267","490263","0.0-6.0-2.15","","<div style=""font-size:60px;"">+</div>","null","","","","","","",""
"582.5999999940395","","image-keyboard-response","268","490846","0.0-6.0-0.16","","img/grey.png","32","trial","null","false","0.4,0.6","2:nogo_b","",""
"null","","html-keyboard-response","269","491848","0.0-6.0-1.16","","<img src=""img/grey-n.png"" border=""10"">","null","trial","null","","0.4,0.6","2:nogo_b","0",""
"null","","html-keyboard-response","270","492860","0.0-6.0-2.16","","<div style=""font-size:60px;"">+</div>","null","","","","","","",""
"425.2000000178814","","image-keyboard-response","271","493286","0.0-6.0-0.17","","img/blue.png","32","trial","32","true","0.6,0.4","1:go_a","",""
"null","","html-keyboard-response","272","494302","0.0-6.0-1.17","","<img src=""img/blue-r.png"" border=""10"">","null","trial","32","","0.6,0.4","1:go_a","1",""
"null","","html-keyboard-response","273","495313","0.0-6.0-2.17","","<div style=""font-size:60px;"">+</div>","null","","","","","","",""
"1133.0999999940395","","image-keyboard-response","274","496446","0.0-6.0-0.18","","img/purple.png","32","trial","null","false","0.4,0.6","4:nogo_d","",""
"null","","html-keyboard-response","275","497459","0.0-6.0-1.18","","<img src=""img/purple-r.png"" border=""10"">","null","trial","null","","0.4,0.6","4:nogo_d","1",""
"null","","html-keyboard-response","276","498469","0.0-6.0-2.18","","<div style=""font-size:60px;"">+</div>","null","","","","","","",""
"552.3000000119209","","image-keyboard-response","277","499022","0.0-6.0-0.19","","img/green.png","32","trial","32","true","0.6,0.4","3:go_c","",""
"null","","html-keyboard-response","278","500026","0.0-6.0-1.19","","<img src=""img/green-n.png"" border=""10"">","null","trial","32","","0.6,0.4","3:go_c","0",""
"null","","html-keyboard-response","279","501036","0.0-6.0-2.19","","<div style=""font-size:60px;"">+</div>","null","","","","","","",""
"434","","image-keyboard-response","280","501470","0.0-6.0-0.20","","img/green.png","32","trial","32","true","0.6,0.4","3:go_c","",""
"null","","html-keyboard-response","281","502477","0.0-6.0-1.20","","<img src=""img/green-r.png"" border=""10"">","null","trial","32","","0.6,0.4","3:go_c","1",""
"null","","html-keyboard-response","282","503491","0.0-6.0-2.20","","<div style=""font-size:60px;"">+</div>","null","","","","","","",""
"586.6999999880791","","image-keyboard-response","283","504078","0.0-6.0-0.21","","img/grey.png","32","trial","null","false","0.4,0.6","2:nogo_b","",""
"null","","html-keyboard-response","284","505086","0.0-6.0-1.21","","<img src=""img/grey-r.png"" border=""10"">","null","trial","null","","0.4,0.6","2:nogo_b","1",""
"null","","html-keyboard-response","285","506096","0.0-6.0-2.21","","<div style=""font-size:60px;"">+</div>","null","","","","","","",""
"518.0999999940395","","image-keyboard-response","286","506615","0.0-6.0-0.22","","img/purple.png","32","trial","null","false","0.4,0.6","4:nogo_d","",""
"null","","html-keyboard-response","287","507626","0.0-6.0-1.22","","<img src=""img/purple-n.png"" border=""10"">","null","trial","null","","0.4,0.6","4:nogo_d","0",""
"null","","html-keyboard-response","288","508631","0.0-6.0-2.22","","<div style=""font-size:60px;"">+</div>","null","","","","","","",""
"479.09999999403954","","image-keyboard-response","289","509111","0.0-6.0-0.23","","img/blue.png","32","trial","32","true","0.6,0.4","1:go_a","",""
"null","","html-keyboard-response","290","510125","0.0-6.0-1.23","","<img src=""img/blue-r.png"" border=""10"">","null","trial","32","","0.6,0.4","1:go_a","1",""
"null","","html-keyboard-response","291","511138","0.0-6.0-2.23","","<div style=""font-size:60px;"">+</div>","null","","","","","","",""
"436.40000000596046","","image-keyboard-response","292","511575","0.0-6.0-0.24","","img/green.png","32","trial","32","true","0.6,0.4","3:go_c","",""
"null","","html-keyboard-response","293","512583","0.0-6.0-1.24","","<img src=""img/green-n.png"" border=""10"">","null","trial","32","","0.6,0.4","3:go_c","0",""
"null","","html-keyboard-response","294","513593","0.0-6.0-2.24","","<div style=""font-size:60px;"">+</div>","null","","","","","","",""
"508.40000000596046","","image-keyboard-response","295","514103","0.0-6.0-0.25","","img/purple.png","32","trial","null","false","0.4,0.6","4:nogo_d","",""
"null","","html-keyboard-response","296","515118","0.0-6.0-1.25","","<img src=""img/purple-r.png"" border=""10"">","null","trial","null","","0.4,0.6","4:nogo_d","1",""
"null","","html-keyboard-response","297","516129","0.0-6.0-2.25","","<div style=""font-size:60px;"">+</div>","null","","","","","","",""
"525.1999999880791","","image-keyboard-response","298","516655","0.0-6.0-0.26","","img/blue.png","32","trial","32","true","0.6,0.4","1:go_a","",""
"null","","html-keyboard-response","299","517666","0.0-6.0-1.26","","<img src=""img/blue-r.png"" border=""10"">","null","trial","32","","0.6,0.4","1:go_a","1",""
"null","","html-keyboard-response","300","518672","0.0-6.0-2.26","","<div style=""font-size:60px;"">+</div>","null","","","","","","",""
"null","","image-keyboard-response","301","520177","0.0-6.0-0.27","","img/grey.png","null","trial","null","true","0.4,0.6","2:nogo_b","",""
"null","","html-keyboard-response","302","521191","0.0-6.0-1.27","","<img src=""img/grey-r.png"">","null","trial","null","","0.4,0.6","2:nogo_b","1",""
"null","","html-keyboard-response","303","522201","0.0-6.0-2.27","","<div style=""font-size:60px;"">+</div>","null","","","","","","",""
"null","","image-keyboard-response","304","523713","0.0-6.0-0.28","","img/green.png","null","trial","32","false","0.6,0.4","3:go_c","",""
"null","","html-keyboard-response","305","524722","0.0-6.0-1.28","","<img src=""img/green-n.png"">","null","trial","32","","0.6,0.4","3:go_c","0",""
"null","","html-keyboard-response","306","525736","0.0-6.0-2.28","","<div style=""font-size:60px;"">+</div>","null","","","","","","",""
"726","","image-keyboard-response","307","526463","0.0-6.0-0.29","","img/blue.png","32","trial","32","true","0.6,0.4","1:go_a","",""
"null","","html-keyboard-response","308","527474","0.0-6.0-1.29","","<img src=""img/blue-r.png"" border=""10"">","null","trial","32","","0.6,0.4","1:go_a","1",""
"null","","html-keyboard-response","309","528483","0.0-6.0-2.29","","<div style=""font-size:60px;"">+</div>","null","","","","","","",""
"null","","image-keyboard-response","310","529989","0.0-6.0-0.30","","img/grey.png","null","trial","null","true","0.4,0.6","2:nogo_b","",""
"null","","html-keyboard-response","311","531000","0.0-6.0-1.30","","<img src=""img/grey-r.png"">","null","trial","null","","0.4,0.6","2:nogo_b","1",""
"null","","html-keyboard-response","312","532004","0.0-6.0-2.30","","<div style=""font-size:60px;"">+</div>","null","","","","","","",""
"null","","image-keyboard-response","313","533519","0.0-6.0-0.31","","img/purple.png","null","trial","null","true","0.4,0.6","4:nogo_d","",""
"null","","html-keyboard-response","314","534526","0.0-6.0-1.31","","<img src=""img/purple-r.png"">","null","trial","null","","0.4,0.6","4:nogo_d","1",""
"null","","html-keyboard-response","315","535540","0.0-6.0-2.31","","<div style=""font-size:60px;"">+</div>","null","","","","","","",""
"970","","image-keyboard-response","316","536511","0.0-6.0-0.32","","img/purple.png","32","trial","null","false","0.4,0.6","4:nogo_d","",""
"null","","html-keyboard-response","317","537526","0.0-6.0-1.32","","<img src=""img/purple-n.png"" border=""10"">","null","trial","null","","0.4,0.6","4:nogo_d","0",""
"null","","html-keyboard-response","318","538538","0.0-6.0-2.32","","<div style=""font-size:60px;"">+</div>","null","","","","","","",""
"636.0999999940395","","image-keyboard-response","319","539175","0.0-6.0-0.33","","img/green.png","32","trial","32","true","0.6,0.4","3:go_c","",""
"null","","html-keyboard-response","320","540184","0.0-6.0-1.33","","<img src=""img/green-r.png"" border=""10"">","null","trial","32","","0.6,0.4","3:go_c","1",""
"null","","html-keyboard-response","321","541193","0.0-6.0-2.33","","<div style=""font-size:60px;"">+</div>","null","","","","","","",""
"564.7000000178814","","image-keyboard-response","322","541759","0.0-6.0-0.34","","img/blue.png","32","trial","32","true","0.6,0.4","1:go_a","",""
"null","","html-keyboard-response","323","542761","0.0-6.0-1.34","","<img src=""img/blue-r.png"" border=""10"">","null","trial","32","","0.6,0.4","1:go_a","1",""
"null","","html-keyboard-response","324","543776","0.0-6.0-2.34","","<div style=""font-size:60px;"">+</div>","null","","","","","","",""
"null","","image-keyboard-response","325","545284","0.0-6.0-0.35","","img/grey.png","null","trial","null","true","0.4,0.6","2:nogo_b","",""
"null","","html-keyboard-response","326","546294","0.0-6.0-1.35","","<img src=""img/grey-n.png"">","null","trial","null","","0.4,0.6","2:nogo_b","0",""
"null","","html-keyboard-response","327","547305","0.0-6.0-2.35","","<div style=""font-size:60px;"">+</div>","null","","","","","","",""
"1213.699999988079","","image-keyboard-response","328","548519","0.0-6.0-0.36","","img/green.png","32","trial","32","true","0.6,0.4","3:go_c","",""
"null","","html-keyboard-response","329","549526","0.0-6.0-1.36","","<img src=""img/green-r.png"" border=""10"">","null","trial","32","","0.6,0.4","3:go_c","1",""
"null","","html-keyboard-response","330","550534","0.0-6.0-2.36","","<div style=""font-size:60px;"">+</div>","null","","","","","","",""
"624.0999999940395","","image-keyboard-response","331","551159","0.0-6.0-0.37","","img/blue.png","32","trial","32","true","0.6,0.4","1:go_a","",""
"null","","html-keyboard-response","332","552172","0.0-6.0-1.37","","<img src=""img/blue-r.png"" border=""10"">","null","trial","32","","0.6,0.4","1:go_a","1",""
"null","","html-keyboard-response","333","553179","0.0-6.0-2.37","","<div style=""font-size:60px;"">+</div>","null","","","","","","",""
"null","","image-keyboard-response","334","554688","0.0-6.0-0.38","","img/purple.png","null","trial","null","true","0.4,0.6","4:nogo_d","",""
"null","","html-keyboard-response","335","555693","0.0-6.0-1.38","","<img src=""img/purple-r.png"">","null","trial","null","","0.4,0.6","4:nogo_d","1",""
"null","","html-keyboard-response","336","556695","0.0-6.0-2.38","","<div style=""font-size:60px;"">+</div>","null","","","","","","",""
"null","","image-keyboard-response","337","558200","0.0-6.0-0.39","","img/grey.png","null","trial","null","true","0.4,0.6","2:nogo_b","",""
"null","","html-keyboard-response","338","559205","0.0-6.0-1.39","","<img src=""img/grey-n.png"">","null","trial","null","","0.4,0.6","2:nogo_b","0",""
"null","","html-keyboard-response","339","560219","0.0-6.0-2.39","","<div style=""font-size:60px;"">+</div>","null","","","","","","",""
"null","","image-keyboard-response","340","561723","0.0-6.0-0.40","","img/purple.png","null","trial","null","true","0.4,0.6","4:nogo_d","",""
"null","","html-keyboard-response","341","562724","0.0-6.0-1.40","","<img src=""img/purple-n.png"">","null","trial","null","","0.4,0.6","4:nogo_d","0",""
"null","","html-keyboard-response","342","563738","0.0-6.0-2.40","","<div style=""font-size:60px;"">+</div>","null","","","","","","",""
"995.9000000059605","","image-keyboard-response","343","564735","0.0-6.0-0.41","","img/grey.png","32","trial","null","false","0.4,0.6","2:nogo_b","",""
"null","","html-keyboard-response","344","565743","0.0-6.0-1.41","","<img src=""img/grey-r.png"" border=""10"">","null","trial","null","","0.4,0.6","2:nogo_b","1",""
"null","","html-keyboard-response","345","566744","0.0-6.0-2.41","","<div style=""font-size:60px;"">+</div>","null","","","","","","",""
"414.30000001192093","","image-keyboard-response","346","567159","0.0-6.0-0.42","","img/green.png","32","trial","32","true","0.6,0.4","3:go_c","",""
"null","","html-keyboard-response","347","568160","0.0-6.0-1.42","","<img src=""img/green-r.png"" border=""10"">","null","trial","32","","0.6,0.4","3:go_c","1",""
"null","","html-keyboard-response","348","569169","0.0-6.0-2.42","","<div style=""font-size:60px;"">+</div>","null","","","","","","",""
"444.90000000596046","","image-keyboard-response","349","569615","0.0-6.0-0.43","","img/blue.png","32","trial","32","true","0.6,0.4","1:go_a","",""
"null","","html-keyboard-response","350","570621","0.0-6.0-1.43","","<img src=""img/blue-r.png"" border=""10"">","null","trial","32","","0.6,0.4","1:go_a","1",""
"null","","html-keyboard-response","351","571634","0.0-6.0-2.43","","<div style=""font-size:60px;"">+</div>","null","","","","","","",""
"null","","image-keyboard-response","352","573140","0.0-6.0-0.44","","img/purple.png","null","trial","null","true","0.4,0.6","4:nogo_d","",""
"null","","html-keyboard-response","353","574141","0.0-6.0-1.44","","<img src=""img/purple-r.png"">","null","trial","null","","0.4,0.6","4:nogo_d","1",""
"null","","html-keyboard-response","354","575143","0.0-6.0-2.44","","<div style=""font-size:60px;"">+</div>","null","","","","","","",""
"551.1999999880791","","image-keyboard-response","355","575695","0.0-6.0-0.45","","img/blue.png","32","trial","32","true","0.6,0.4","1:go_a","",""
"null","","html-keyboard-response","356","576711","0.0-6.0-1.45","","<img src=""img/blue-n.png"" border=""10"">","null","trial","32","","0.6,0.4","1:go_a","0",""
"null","","html-keyboard-response","357","577720","0.0-6.0-2.45","","<div style=""font-size:60px;"">+</div>","null","","","","","","",""
"686.2999999821186","","image-keyboard-response","358","578407","0.0-6.0-0.46","","img/grey.png","32","trial","null","false","0.4,0.6","2:nogo_b","",""
"null","","html-keyboard-response","359","579411","0.0-6.0-1.46","","<img src=""img/grey-r.png"" border=""10"">","null","trial","null","","0.4,0.6","2:nogo_b","1",""
"null","","html-keyboard-response","360","580422","0.0-6.0-2.46","","<div style=""font-size:60px;"">+</div>","null","","","","","","",""
"575.9000000059605","","image-keyboard-response","361","580999","0.0-6.0-0.47","","img/green.png","32","trial","32","true","0.6,0.4","3:go_c","",""
"null","","html-keyboard-response","362","582008","0.0-6.0-1.47","","<img src=""img/green-r.png"" border=""10"">","null","trial","32","","0.6,0.4","3:go_c","1",""
"null","","html-keyboard-response","363","583019","0.0-6.0-2.47","","<div style=""font-size:60px;"">+</div>","null","","","","","","",""
"650.7999999821186","","image-keyboard-response","364","583671","0.0-6.0-0.48","","img/green.png","32","trial","32","true","0.6,0.4","3:go_c","",""
"null","","html-keyboard-response","365","584684","0.0-6.0-1.48","","<img src=""img/green-n.png"" border=""10"">","null","trial","32","","0.6,0.4","3:go_c","0",""
"null","","html-keyboard-response","366","585697","0.0-6.0-2.48","","<div style=""font-size:60px;"">+</div>","null","","","","","","",""
"620.6999999880791","","image-keyboard-response","367","586319","0.0-6.0-0.49","","img/grey.png","32","trial","null","false","0.4,0.6","2:nogo_b","",""
"null","","html-keyboard-response","368","587326","0.0-6.0-1.49","","<img src=""img/grey-r.png"" border=""10"">","null","trial","null","","0.4,0.6","2:nogo_b","1",""
"null","","html-keyboard-response","369","588336","0.0-6.0-2.49","","<div style=""font-size:60px;"">+</div>","null","","","","","","",""
"null","","image-keyboard-response","370","589837","0.0-6.0-0.50","","img/purple.png","null","trial","null","true","0.4,0.6","4:nogo_d","",""
"null","","html-keyboard-response","371","590848","0.0-6.0-1.50","","<img src=""img/purple-n.png"">","null","trial","null","","0.4,0.6","4:nogo_d","0",""
"null","","html-keyboard-response","372","591856","0.0-6.0-2.50","","<div style=""font-size:60px;"">+</div>","null","","","","","","",""
"877.9000000059605","","image-keyboard-response","373","592735","0.0-6.0-0.51","","img/blue.png","32","trial","32","true","0.6,0.4","1:go_a","",""
"null","","html-keyboard-response","374","593746","0.0-6.0-1.51","","<img src=""img/blue-r.png"" border=""10"">","null","trial","32","","0.6,0.4","1:go_a","1",""
"null","","html-keyboard-response","375","594758","0.0-6.0-2.51","","<div style=""font-size:60px;"">+</div>","null","","","","","","",""
"1024.0999999940395","","image-keyboard-response","376","595783","0.0-6.0-0.52","","img/blue.png","32","trial","32","true","0.6,0.4","1:go_a","",""
"null","","html-keyboard-response","377","596796","0.0-6.0-1.52","","<img src=""img/blue-n.png"" border=""10"">","null","trial","32","","0.6,0.4","1:go_a","0",""
"null","","html-keyboard-response","378","597809","0.0-6.0-2.52","","<div style=""font-size:60px;"">+</div>","null","","","","","","",""
"null","","image-keyboard-response","379","599320","0.0-6.0-0.53","","img/purple.png","null","trial","null","true","0.4,0.6","4:nogo_d","",""
"null","","html-keyboard-response","380","600333","0.0-6.0-1.53","","<img src=""img/purple-r.png"">","null","trial","null","","0.4,0.6","4:nogo_d","1",""
"null","","html-keyboard-response","381","601341","0.0-6.0-2.53","","<div style=""font-size:60px;"">+</div>","null","","","","","","",""
"673.4000000059605","","image-keyboard-response","382","602015","0.0-6.0-0.54","","img/green.png","32","trial","32","true","0.6,0.4","3:go_c","",""
"null","","html-keyboard-response","383","603024","0.0-6.0-1.54","","<img src=""img/green-n.png"" border=""10"">","null","trial","32","","0.6,0.4","3:go_c","0",""
"null","","html-keyboard-response","384","604036","0.0-6.0-2.54","","<div style=""font-size:60px;"">+</div>","null","","","","","","",""
"370.09999999403954","","image-keyboard-response","385","604407","0.0-6.0-0.55","","img/grey.png","32","trial","null","false","0.4,0.6","2:nogo_b","",""
"null","","html-keyboard-response","386","605422","0.0-6.0-1.55","","<img src=""img/grey-n.png"" border=""10"">","null","trial","null","","0.4,0.6","2:nogo_b","0",""
"null","","html-keyboard-response","387","606432","0.0-6.0-2.55","","<div style=""font-size:60px;"">+</div>","null","","","","","","",""
"null","","image-keyboard-response","388","607940","0.0-6.0-0.56","","img/green.png","null","trial","32","false","0.6,0.4","3:go_c","",""
"null","","html-keyboard-response","389","608946","0.0-6.0-1.56","","<img src=""img/green-n.png"">","null","trial","32","","0.6,0.4","3:go_c","0",""
"null","","html-keyboard-response","390","609954","0.0-6.0-2.56","","<div style=""font-size:60px;"">+</div>","null","","","","","","",""
"587.5","","image-keyboard-response","391","610543","0.0-6.0-0.57","","img/blue.png","32","trial","32","true","0.6,0.4","1:go_a","",""
"null","","html-keyboard-response","392","611553","0.0-6.0-1.57","","<img src=""img/blue-n.png"" border=""10"">","null","trial","32","","0.6,0.4","1:go_a","0",""
"null","","html-keyboard-response","393","612566","0.0-6.0-2.57","","<div style=""font-size:60px;"">+</div>","null","","","","","","",""
"null","","image-keyboard-response","394","614081","0.0-6.0-0.58","","img/purple.png","null","trial","null","true","0.4,0.6","4:nogo_d","",""
"null","","html-keyboard-response","395","615094","0.0-6.0-1.58","","<img src=""img/purple-r.png"">","null","trial","null","","0.4,0.6","4:nogo_d","1",""
"null","","html-keyboard-response","396","616107","0.0-6.0-2.58","","<div style=""font-size:60px;"">+</div>","null","","","","","","",""
"1027.0999999940395","","image-keyboard-response","397","617135","0.0-6.0-0.59","","img/grey.png","32","trial","null","false","0.4,0.6","2:nogo_b","",""
"null","","html-keyboard-response","398","618145","0.0-6.0-1.59","","<img src=""img/grey-n.png"" border=""10"">","null","trial","null","","0.4,0.6","2:nogo_b","0",""
"null","","html-keyboard-response","399","619153","0.0-6.0-2.59","","<div style=""font-size:60px;"">+</div>","null","","","","","","",""
"1188.800000011921","","image-keyboard-response","400","620343","0.0-6.0-0.60","","img/grey.png","32","trial","null","false","0.4,0.6","2:nogo_b","",""
"null","","html-keyboard-response","401","621348","0.0-6.0-1.60","","<img src=""img/grey-r.png"" border=""10"">","null","trial","null","","0.4,0.6","2:nogo_b","1",""
"null","","html-keyboard-response","402","622361","0.0-6.0-2.60","","<div style=""font-size:60px;"">+</div>","null","","","","","","",""
"null","","image-keyboard-response","403","623868","0.0-6.0-0.61","","img/green.png","null","trial","32","false","0.6,0.4","3:go_c","",""
"null","","html-keyboard-response","404","624876","0.0-6.0-1.61","","<img src=""img/green-r.png"">","null","trial","32","","0.6,0.4","3:go_c","1",""
"null","","html-keyboard-response","405","625883","0.0-6.0-2.61","","<div style=""font-size:60px;"">+</div>","null","","","","","","",""
"459.59999999403954","","image-keyboard-response","406","626343","0.0-6.0-0.62","","img/blue.png","32","trial","32","true","0.6,0.4","1:go_a","",""
"null","","html-keyboard-response","407","627357","0.0-6.0-1.62","","<img src=""img/blue-r.png"" border=""10"">","null","trial","32","","0.6,0.4","1:go_a","1",""
"null","","html-keyboard-response","408","628367","0.0-6.0-2.62","","<div style=""font-size:60px;"">+</div>","null","","","","","","",""
"null","","image-keyboard-response","409","629873","0.0-6.0-0.63","","img/purple.png","null","trial","null","true","0.4,0.6","4:nogo_d","",""
"null","","html-keyboard-response","410","630886","0.0-6.0-1.63","","<img src=""img/purple-r.png"">","null","trial","null","","0.4,0.6","4:nogo_d","1",""
"null","","html-keyboard-response","411","631899","0.0-6.0-2.63","","<div style=""font-size:60px;"">+</div>","null","","","","","","",""
"699.5","","image-keyboard-response","412","632599","0.0-6.0-0.64","","img/grey.png","32","trial","null","false","0.4,0.6","2:nogo_b","",""
"null","","html-keyboard-response","413","633605","0.0-6.0-1.64","","<img src=""img/grey-n.png"" border=""10"">","null","trial","null","","0.4,0.6","2:nogo_b","0",""
"null","","html-keyboard-response","414","634620","0.0-6.0-2.64","","<div style=""font-size:60px;"">+</div>","null","","","","","","",""
"null","","image-keyboard-response","415","636127","0.0-6.0-0.65","","img/purple.png","null","trial","null","true","0.4,0.6","4:nogo_d","",""
"null","","html-keyboard-response","416","637129","0.0-6.0-1.65","","<img src=""img/purple-n.png"">","null","trial","null","","0.4,0.6","4:nogo_d","0",""
"null","","html-keyboard-response","417","638145","0.0-6.0-2.65","","<div style=""font-size:60px;"">+</div>","null","","","","","","",""
"980.7000000178814","","image-keyboard-response","418","639127","0.0-6.0-0.66","","img/blue.png","32","trial","32","true","0.6,0.4","1:go_a","",""
"null","","html-keyboard-response","419","640143","0.0-6.0-1.66","","<img src=""img/blue-n.png"" border=""10"">","null","trial","32","","0.6,0.4","1:go_a","0",""
"null","","html-keyboard-response","420","641155","0.0-6.0-2.66","","<div style=""font-size:60px;"">+</div>","null","","","","","","",""
"null","","image-keyboard-response","421","642669","0.0-6.0-0.67","","img/green.png","null","trial","32","false","0.6,0.4","3:go_c","",""
"null","","html-keyboard-response","422","643683","0.0-6.0-1.67","","<img src=""img/green-r.png"">","null","trial","32","","0.6,0.4","3:go_c","1",""
"null","","html-keyboard-response","423","644698","0.0-6.0-2.67","","<div style=""font-size:60px;"">+</div>","null","","","","","","",""
"null","","image-keyboard-response","424","646205","0.0-6.0-0.68","","img/purple.png","null","trial","null","true","0.4,0.6","4:nogo_d","",""
"null","","html-keyboard-response","425","647215","0.0-6.0-1.68","","<img src=""img/purple-r.png"">","null","trial","null","","0.4,0.6","4:nogo_d","1",""
"null","","html-keyboard-response","426","648227","0.0-6.0-2.68","","<div style=""font-size:60px;"">+</div>","null","","","","","","",""
"634.9000000059605","","image-keyboard-response","427","648863","0.0-6.0-0.69","","img/blue.png","32","trial","32","true","0.6,0.4","1:go_a","",""
"null","","html-keyboard-response","428","649875","0.0-6.0-1.69","","<img src=""img/blue-r.png"" border=""10"">","null","trial","32","","0.6,0.4","1:go_a","1",""
"null","","html-keyboard-response","429","650885","0.0-6.0-2.69","","<div style=""font-size:60px;"">+</div>","null","","","","","","",""
"null","","image-keyboard-response","430","652393","0.0-6.0-0.70","","img/green.png","null","trial","32","false","0.6,0.4","3:go_c","",""
"null","","html-keyboard-response","431","653399","0.0-6.0-1.70","","<img src=""img/green-r.png"">","null","trial","32","","0.6,0.4","3:go_c","1",""
"null","","html-keyboard-response","432","654400","0.0-6.0-2.70","","<div style=""font-size:60px;"">+</div>","null","","","","","","",""
"null","","image-keyboard-response","433","655915","0.0-6.0-0.71","","img/grey.png","null","trial","null","true","0.4,0.6","2:nogo_b","",""
"null","","html-keyboard-response","434","656920","0.0-6.0-1.71","","<img src=""img/grey-r.png"">","null","trial","null","","0.4,0.6","2:nogo_b","1",""
"null","","html-keyboard-response","435","657933","0.0-6.0-2.71","","<div style=""font-size:60px;"">+</div>","null","","","","","","",""
"697","","image-keyboard-response","436","658631","0.0-6.0-0.72","","img/blue.png","32","trial","32","true","0.6,0.4","1:go_a","",""
"null","","html-keyboard-response","437","659633","0.0-6.0-1.72","","<img src=""img/blue-r.png"" border=""10"">","null","trial","32","","0.6,0.4","1:go_a","1",""
"null","","html-keyboard-response","438","660656","0.0-6.0-2.72","","<div style=""font-size:60px;"">+</div>","null","","","","","","",""
"null","","image-keyboard-response","439","662162","0.0-6.0-0.73","","img/purple.png","null","trial","null","true","0.4,0.6","4:nogo_d","",""
"null","","html-keyboard-response","440","663169","0.0-6.0-1.73","","<img src=""img/purple-r.png"">","null","trial","null","","0.4,0.6","4:nogo_d","1",""
"null","","html-keyboard-response","441","664177","0.0-6.0-2.73","","<div style=""font-size:60px;"">+</div>","null","","","","","","",""
"null","","image-keyboard-response","442","665690","0.0-6.0-0.74","","img/green.png","null","trial","32","false","0.6,0.4","3:go_c","",""
"null","","html-keyboard-response","443","666704","0.0-6.0-1.74","","<img src=""img/green-n.png"">","null","trial","32","","0.6,0.4","3:go_c","0",""
"null","","html-keyboard-response","444","667714","0.0-6.0-2.74","","<div style=""font-size:60px;"">+</div>","null","","","","","","",""
"null","","image-keyboard-response","445","669218","0.0-6.0-0.75","","img/grey.png","null","trial","null","true","0.4,0.6","2:nogo_b","",""
"null","","html-keyboard-response","446","670232","0.0-6.0-1.75","","<img src=""img/grey-r.png"">","null","trial","null","","0.4,0.6","2:nogo_b","1",""
"null","","html-keyboard-response","447","671243","0.0-6.0-2.75","","<div style=""font-size:60px;"">+</div>","null","","","","","","",""
"null","","image-keyboard-response","448","672759","0.0-6.0-0.76","","img/green.png","null","trial","32","false","0.6,0.4","3:go_c","",""
"null","","html-keyboard-response","449","673760","0.0-6.0-1.76","","<img src=""img/green-n.png"">","null","trial","32","","0.6,0.4","3:go_c","0",""
"null","","html-keyboard-response","450","674761","0.0-6.0-2.76","","<div style=""font-size:60px;"">+</div>","null","","","","","","",""
"509.40000000596046","","image-keyboard-response","451","675271","0.0-6.0-0.77","","img/blue.png","32","trial","32","true","0.6,0.4","1:go_a","",""
"null","","html-keyboard-response","452","676273","0.0-6.0-1.77","","<img src=""img/blue-r.png"" border=""10"">","null","trial","32","","0.6,0.4","1:go_a","1",""
"null","","html-keyboard-response","453","677281","0.0-6.0-2.77","","<div style=""font-size:60px;"">+</div>","null","","","","","","",""
"null","","image-keyboard-response","454","678789","0.0-6.0-0.78","","img/purple.png","null","trial","null","true","0.4,0.6","4:nogo_d","",""
"null","","html-keyboard-response","455","679797","0.0-6.0-1.78","","<img src=""img/purple-r.png"">","null","trial","null","","0.4,0.6","4:nogo_d","1",""
"null","","html-keyboard-response","456","680798","0.0-6.0-2.78","","<div style=""font-size:60px;"">+</div>","null","","","","","","",""
"null","","image-keyboard-response","457","682310","0.0-6.0-0.79","","img/grey.png","null","trial","null","true","0.4,0.6","2:nogo_b","",""
"null","","html-keyboard-response","458","683318","0.0-6.0-1.79","","<img src=""img/grey-r.png"">","null","trial","null","","0.4,0.6","2:nogo_b","1",""
"null","","html-keyboard-response","459","684326","0.0-6.0-2.79","","<div style=""font-size:60px;"">+</div>","null","","","","","","",""
"703.8000000119209","","image-keyboard-response","460","685031","0.0-6.0-0.80","","img/blue.png","32","trial","32","true","0.6,0.4","1:go_a","",""
"null","","html-keyboard-response","461","686034","0.0-6.0-1.80","","<img src=""img/blue-r.png"" border=""10"">","null","trial","32","","0.6,0.4","1:go_a","1",""
"null","","html-keyboard-response","462","687046","0.0-6.0-2.80","","<div style=""font-size:60px;"">+</div>","null","","","","","","",""
"null","","image-keyboard-response","463","688562","0.0-6.0-0.81","","img/purple.png","null","trial","null","true","0.4,0.6","4:nogo_d","",""
"null","","html-keyboard-response","464","689574","0.0-6.0-1.81","","<img src=""img/purple-r.png"">","null","trial","null","","0.4,0.6","4:nogo_d","1",""
"null","","html-keyboard-response","465","690583","0.0-6.0-2.81","","<div style=""font-size:60px;"">+</div>","null","","","","","","",""
"null","","image-keyboard-response","466","692095","0.0-6.0-0.82","","img/green.png","null","trial","32","false","0.6,0.4","3:go_c","",""
"null","","html-keyboard-response","467","693109","0.0-6.0-1.82","","<img src=""img/green-n.png"">","null","trial","32","","0.6,0.4","3:go_c","0",""
"null","","html-keyboard-response","468","694118","0.0-6.0-2.82","","<div style=""font-size:60px;"">+</div>","null","","","","","","",""
"null","","image-keyboard-response","469","695627","0.0-6.0-0.83","","img/grey.png","null","trial","null","true","0.4,0.6","2:nogo_b","",""
"null","","html-keyboard-response","470","696640","0.0-6.0-1.83","","<img src=""img/grey-n.png"">","null","trial","null","","0.4,0.6","2:nogo_b","0",""
"null","","html-keyboard-response","471","697652","0.0-6.0-2.83","","<div style=""font-size:60px;"">+</div>","null","","","","","","",""
"null","","image-keyboard-response","472","699159","0.0-6.0-0.84","","img/green.png","null","trial","32","false","0.6,0.4","3:go_c","",""
"null","","html-keyboard-response","473","700173","0.0-6.0-1.84","","<img src=""img/green-r.png"">","null","trial","32","","0.6,0.4","3:go_c","1",""
"null","","html-keyboard-response","474","701183","0.0-6.0-2.84","","<div style=""font-size:60px;"">+</div>","null","","","","","","",""
"null","","image-keyboard-response","475","702688","0.0-6.0-0.85","","img/grey.png","null","trial","null","true","0.4,0.6","2:nogo_b","",""
"null","","html-keyboard-response","476","703698","0.0-6.0-1.85","","<img src=""img/grey-r.png"">","null","trial","null","","0.4,0.6","2:nogo_b","1",""
"null","","html-keyboard-response","477","704714","0.0-6.0-2.85","","<div style=""font-size:60px;"">+</div>","null","","","","","","",""
"null","","image-keyboard-response","478","706224","0.0-6.0-0.86","","img/purple.png","null","trial","null","true","0.4,0.6","4:nogo_d","",""
"null","","html-keyboard-response","479","707230","0.0-6.0-1.86","","<img src=""img/purple-r.png"">","null","trial","null","","0.4,0.6","4:nogo_d","1",""
"null","","html-keyboard-response","480","708236","0.0-6.0-2.86","","<div style=""font-size:60px;"">+</div>","null","","","","","","",""
"426.09999999403954","","image-keyboard-response","481","708663","0.0-6.0-0.87","","img/blue.png","32","trial","32","true","0.6,0.4","1:go_a","",""
"null","","html-keyboard-response","482","709666","0.0-6.0-1.87","","<img src=""img/blue-r.png"" border=""10"">","null","trial","32","","0.6,0.4","1:go_a","1",""
"null","","html-keyboard-response","483","710678","0.0-6.0-2.87","","<div style=""font-size:60px;"">+</div>","null","","","","","","",""
"600.0999999940395","","image-keyboard-response","484","711279","0.0-6.0-0.88","","img/blue.png","32","trial","32","true","0.6,0.4","1:go_a","",""
"null","","html-keyboard-response","485","712292","0.0-6.0-1.88","","<img src=""img/blue-r.png"" border=""10"">","null","trial","32","","0.6,0.4","1:go_a","1",""
"null","","html-keyboard-response","486","713294","0.0-6.0-2.88","","<div style=""font-size:60px;"">+</div>","null","","","","","","",""
"null","","image-keyboard-response","487","714802","0.0-6.0-0.89","","img/purple.png","null","trial","null","true","0.4,0.6","4:nogo_d","",""
"null","","html-keyboard-response","488","715811","0.0-6.0-1.89","","<img src=""img/purple-n.png"">","null","trial","null","","0.4,0.6","4:nogo_d","0",""
"null","","html-keyboard-response","489","716819","0.0-6.0-2.89","","<div style=""font-size:60px;"">+</div>","null","","","","","","",""
"null","","image-keyboard-response","490","718323","0.0-6.0-0.90","","img/green.png","null","trial","32","false","0.6,0.4","3:go_c","",""
"null","","html-keyboard-response","491","719324","0.0-6.0-1.90","","<img src=""img/green-r.png"">","null","trial","32","","0.6,0.4","3:go_c","1",""
"null","","html-keyboard-response","492","720340","0.0-6.0-2.90","","<div style=""font-size:60px;"">+</div>","null","","","","","","",""
"null","","image-keyboard-response","493","721846","0.0-6.0-0.91","","img/grey.png","null","trial","null","true","0.4,0.6","2:nogo_b","",""
"null","","html-keyboard-response","494","722861","0.0-6.0-1.91","","<img src=""img/grey-n.png"">","null","trial","null","","0.4,0.6","2:nogo_b","0",""
"null","","html-keyboard-response","495","723870","0.0-6.0-2.91","","<div style=""font-size:60px;"">+</div>","null","","","","","","",""
"559.7999999821186","","image-keyboard-response","496","724431","0.0-6.0-0.92","","img/green.png","32","trial","32","true","0.6,0.4","3:go_c","",""
"null","","html-keyboard-response","497","725442","0.0-6.0-1.92","","<img src=""img/green-r.png"" border=""10"">","null","trial","32","","0.6,0.4","3:go_c","1",""
"null","","html-keyboard-response","498","726456","0.0-6.0-2.92","","<div style=""font-size:60px;"">+</div>","null","","","","","","",""
"null","","image-keyboard-response","499","727959","0.0-6.0-0.93","","img/grey.png","null","trial","null","true","0.4,0.6","2:nogo_b","",""
"null","","html-keyboard-response","500","728965","0.0-6.0-1.93","","<img src=""img/grey-r.png"">","null","trial","null","","0.4,0.6","2:nogo_b","1",""
"null","","html-keyboard-response","501","729980","0.0-6.0-2.93","","<div style=""font-size:60px;"">+</div>","null","","","","","","",""
"null","","image-keyboard-response","502","731490","0.0-6.0-0.94","","img/purple.png","null","trial","null","true","0.4,0.6","4:nogo_d","",""
"null","","html-keyboard-response","503","732501","0.0-6.0-1.94","","<img src=""img/purple-r.png"">","null","trial","null","","0.4,0.6","4:nogo_d","1",""
"null","","html-keyboard-response","504","733503","0.0-6.0-2.94","","<div style=""font-size:60px;"">+</div>","null","","","","","","",""
"1079.4000000059605","","image-keyboard-response","505","734583","0.0-6.0-0.95","","img/blue.png","32","trial","32","true","0.6,0.4","1:go_a","",""
"null","","html-keyboard-response","506","735594","0.0-6.0-1.95","","<img src=""img/blue-r.png"" border=""10"">","null","trial","32","","0.6,0.4","1:go_a","1",""
"null","","html-keyboard-response","507","736605","0.0-6.0-2.95","","<div style=""font-size:60px;"">+</div>","null","","","","","","",""
"null","","image-keyboard-response","508","738110","0.0-6.0-0.96","","img/purple.png","null","trial","null","true","0.4,0.6","4:nogo_d","",""
"null","","html-keyboard-response","509","739119","0.0-6.0-1.96","","<img src=""img/purple-n.png"">","null","trial","null","","0.4,0.6","4:nogo_d","0",""
"null","","html-keyboard-response","510","740129","0.0-6.0-2.96","","<div style=""font-size:60px;"">+</div>","null","","","","","","",""
"605.2999999821186","","image-keyboard-response","511","740735","0.0-6.0-0.97","","img/blue.png","32","trial","32","true","0.6,0.4","1:go_a","",""
"null","","html-keyboard-response","512","741748","0.0-6.0-1.97","","<img src=""img/blue-r.png"" border=""10"">","null","trial","32","","0.6,0.4","1:go_a","1",""
"null","","html-keyboard-response","513","742756","0.0-6.0-2.97","","<div style=""font-size:60px;"">+</div>","null","","","","","","",""
"null","","image-keyboard-response","514","744265","0.0-6.0-0.98","","img/grey.png","null","trial","null","true","0.4,0.6","2:nogo_b","",""
"null","","html-keyboard-response","515","745281","0.0-6.0-1.98","","<img src=""img/grey-n.png"">","null","trial","null","","0.4,0.6","2:nogo_b","0",""
"null","","html-keyboard-response","516","746291","0.0-6.0-2.98","","<div style=""font-size:60px;"">+</div>","null","","","","","","",""
"null","","image-keyboard-response","517","747798","0.0-6.0-0.99","","img/green.png","null","trial","32","false","0.6,0.4","3:go_c","",""
"null","","html-keyboard-response","518","748806","0.0-6.0-1.99","","<img src=""img/green-n.png"">","null","trial","32","","0.6,0.4","3:go_c","0",""
"null","","html-keyboard-response","519","749818","0.0-6.0-2.99","","<div style=""font-size:60px;"">+</div>","null","","","","","","",""
"null","","image-keyboard-response","520","751330","0.0-6.0-0.100","","img/purple.png","null","trial","null","true","0.4,0.6","4:nogo_d","",""
"null","","html-keyboard-response","521","752346","0.0-6.0-1.100","","<img src=""img/purple-r.png"">","null","trial","null","","0.4,0.6","4:nogo_d","1",""
"null","","html-keyboard-response","522","753357","0.0-6.0-2.100","","<div style=""font-size:60px;"">+</div>","null","","","","","","",""
"null","","image-keyboard-response","523","754869","0.0-6.0-0.101","","img/green.png","null","trial","32","false","0.6,0.4","3:go_c","",""
"null","","html-keyboard-response","524","755876","0.0-6.0-1.101","","<img src=""img/green-n.png"">","null","trial","32","","0.6,0.4","3:go_c","0",""
"null","","html-keyboard-response","525","756887","0.0-6.0-2.101","","<div style=""font-size:60px;"">+</div>","null","","","","","","",""
"null","","image-keyboard-response","526","758401","0.0-6.0-0.102","","img/grey.png","null","trial","null","true","0.4,0.6","2:nogo_b","",""
"null","","html-keyboard-response","527","759411","0.0-6.0-1.102","","<img src=""img/grey-r.png"">","null","trial","null","","0.4,0.6","2:nogo_b","1",""
"null","","html-keyboard-response","528","760426","0.0-6.0-2.102","","<div style=""font-size:60px;"">+</div>","null","","","","","","",""
"428","","image-keyboard-response","529","760855","0.0-6.0-0.103","","img/blue.png","32","trial","32","true","0.6,0.4","1:go_a","",""
"null","","html-keyboard-response","530","761857","0.0-6.0-1.103","","<img src=""img/blue-r.png"" border=""10"">","null","trial","32","","0.6,0.4","1:go_a","1",""
"null","","html-keyboard-response","531","762874","0.0-6.0-2.103","","<div style=""font-size:60px;"">+</div>","null","","","","","","",""
"604.5999999940395","","image-keyboard-response","532","763479","0.0-6.0-0.104","","img/blue.png","32","trial","32","true","0.6,0.4","1:go_a","",""
"null","","html-keyboard-response","533","764490","0.0-6.0-1.104","","<img src=""img/blue-r.png"" border=""10"">","null","trial","32","","0.6,0.4","1:go_a","1",""
"null","","html-keyboard-response","534","765498","0.0-6.0-2.104","","<div style=""font-size:60px;"">+</div>","null","","","","","","",""
"null","","image-keyboard-response","535","767009","0.0-6.0-0.105","","img/grey.png","null","trial","null","true","0.4,0.6","2:nogo_b","",""
"null","","html-keyboard-response","536","768017","0.0-6.0-1.105","","<img src=""img/grey-r.png"">","null","trial","null","","0.4,0.6","2:nogo_b","1",""
"null","","html-keyboard-response","537","769027","0.0-6.0-2.105","","<div style=""font-size:60px;"">+</div>","null","","","","","","",""
"null","","image-keyboard-response","538","770534","0.0-6.0-0.106","","img/purple.png","null","trial","null","true","0.4,0.6","4:nogo_d","",""
"null","","html-keyboard-response","539","771544","0.0-6.0-1.106","","<img src=""img/purple-r.png"">","null","trial","null","","0.4,0.6","4:nogo_d","1",""
"null","","html-keyboard-response","540","772555","0.0-6.0-2.106","","<div style=""font-size:60px;"">+</div>","null","","","","","","",""
"859","","image-keyboard-response","541","773415","0.0-6.0-0.107","","img/green.png","32","trial","32","true","0.6,0.4","3:go_c","",""
"null","","html-keyboard-response","542","774420","0.0-6.0-1.107","","<img src=""img/green-n.png"" border=""10"">","null","trial","32","","0.6,0.4","3:go_c","0",""
"null","","html-keyboard-response","543","775428","0.0-6.0-2.107","","<div style=""font-size:60px;"">+</div>","null","","","","","","",""
"554","","image-keyboard-response","544","775983","0.0-6.0-0.108","","img/blue.png","32","trial","32","true","0.6,0.4","1:go_a","",""
"null","","html-keyboard-response","545","776994","0.0-6.0-1.108","","<img src=""img/blue-r.png"" border=""10"">","null","trial","32","","0.6,0.4","1:go_a","1",""
"null","","html-keyboard-response","546","778006","0.0-6.0-2.108","","<div style=""font-size:60px;"">+</div>","null","","","","","","",""
"null","","image-keyboard-response","547","779513","0.0-6.0-0.109","","img/green.png","null","trial","32","false","0.6,0.4","3:go_c","",""
"null","","html-keyboard-response","548","780522","0.0-6.0-1.109","","<img src=""img/green-n.png"">","null","trial","32","","0.6,0.4","3:go_c","0",""
"null","","html-keyboard-response","549","781527","0.0-6.0-2.109","","<div style=""font-size:60px;"">+</div>","null","","","","","","",""
"null","","image-keyboard-response","550","783031","0.0-6.0-0.110","","img/purple.png","null","trial","null","true","0.4,0.6","4:nogo_d","",""
"null","","html-keyboard-response","551","784046","0.0-6.0-1.110","","<img src=""img/purple-r.png"">","null","trial","null","","0.4,0.6","4:nogo_d","1",""
"null","","html-keyboard-response","552","785056","0.0-6.0-2.110","","<div style=""font-size:60px;"">+</div>","null","","","","","","",""
"null","","image-keyboard-response","553","786567","0.0-6.0-0.111","","img/grey.png","null","trial","null","true","0.4,0.6","2:nogo_b","",""
"null","","html-keyboard-response","554","787572","0.0-6.0-1.111","","<img src=""img/grey-r.png"">","null","trial","null","","0.4,0.6","2:nogo_b","1",""
"null","","html-keyboard-response","555","788582","0.0-6.0-2.111","","<div style=""font-size:60px;"">+</div>","null","","","","","","",""
"352.09999999403954","","image-keyboard-response","556","788935","0.0-6.0-0.112","","img/blue.png","32","trial","32","true","0.6,0.4","1:go_a","",""
"null","","html-keyboard-response","557","789950","0.0-6.0-1.112","","<img src=""img/blue-r.png"" border=""10"">","null","trial","32","","0.6,0.4","1:go_a","1",""
"null","","html-keyboard-response","558","790962","0.0-6.0-2.112","","<div style=""font-size:60px;"">+</div>","null","","","","","","",""
"null","","image-keyboard-response","559","792471","0.0-6.0-0.113","","img/green.png","null","trial","32","false","0.6,0.4","3:go_c","",""
"null","","html-keyboard-response","560","793480","0.0-6.0-1.113","","<img src=""img/green-r.png"">","null","trial","32","","0.6,0.4","3:go_c","1",""
"null","","html-keyboard-response","561","794487","0.0-6.0-2.113","","<div style=""font-size:60px;"">+</div>","null","","","","","","",""
"null","","image-keyboard-response","562","795992","0.0-6.0-0.114","","img/purple.png","null","trial","null","true","0.4,0.6","4:nogo_d","",""
"null","","html-keyboard-response","563","797006","0.0-6.0-1.114","","<img src=""img/purple-r.png"">","null","trial","null","","0.4,0.6","4:nogo_d","1",""
"null","","html-keyboard-response","564","798020","0.0-6.0-2.114","","<div style=""font-size:60px;"">+</div>","null","","","","","","",""
"null","","image-keyboard-response","565","799525","0.0-6.0-0.115","","img/grey.png","null","trial","null","true","0.4,0.6","2:nogo_b","",""
"null","","html-keyboard-response","566","800539","0.0-6.0-1.115","","<img src=""img/grey-n.png"">","null","trial","null","","0.4,0.6","2:nogo_b","0",""
"null","","html-keyboard-response","567","801543","0.0-6.0-2.115","","<div style=""font-size:60px;"">+</div>","null","","","","","","",""
"367.10000002384186","","image-keyboard-response","568","801911","0.0-6.0-0.116","","img/blue.png","32","trial","32","true","0.6,0.4","1:go_a","",""
"null","","html-keyboard-response","569","802923","0.0-6.0-1.116","","<img src=""img/blue-r.png"" border=""10"">","null","trial","32","","0.6,0.4","1:go_a","1",""
"null","","html-keyboard-response","570","803932","0.0-6.0-2.116","","<div style=""font-size:60px;"">+</div>","null","","","","","","",""
"null","","image-keyboard-response","571","805438","0.0-6.0-0.117","","img/green.png","null","trial","32","false","0.6,0.4","3:go_c","",""
"null","","html-keyboard-response","572","806448","0.0-6.0-1.117","","<img src=""img/green-n.png"">","null","trial","32","","0.6,0.4","3:go_c","0",""
"null","","html-keyboard-response","573","807459","0.0-6.0-2.117","","<div style=""font-size:60px;"">+</div>","null","","","","","","",""
"null","","image-keyboard-response","574","808965","0.0-6.0-0.118","","img/grey.png","null","trial","null","true","0.4,0.6","2:nogo_b","",""
"null","","html-keyboard-response","575","809977","0.0-6.0-1.118","","<img src=""img/grey-r.png"">","null","trial","null","","0.4,0.6","2:nogo_b","1",""
"null","","html-keyboard-response","576","810989","0.0-6.0-2.118","","<div style=""font-size:60px;"">+</div>","null","","","","","","",""
"null","","image-keyboard-response","577","812491","0.0-6.0-0.119","","img/purple.png","null","trial","null","true","0.4,0.6","4:nogo_d","",""
"null","","html-keyboard-response","578","813502","0.0-6.0-1.119","","<img src=""img/purple-r.png"">","null","trial","null","","0.4,0.6","4:nogo_d","1",""
"null","","html-keyboard-response","579","814514","0.0-6.0-2.119","","<div style=""font-size:60px;"">+</div>","null","","","","","","",""
"104310.59999999404","","instructions","580","918825","0.0-7.0","[{""page_index"":0,""viewing_time"":104310.29999998212}]","","","","","","","","",""
"1044.7999999821186","","image-keyboard-response","581","919871","0.0-8.0-0.0","","img/purple.png","32","trial","32","true","0.8,0.2","1:go_a","",""
"null","","html-keyboard-response","582","920885","0.0-8.0-1.0","","<img src=""img/purple-r.png"" border=""10"">","null","trial","32","","0.8,0.2","1:go_a","1",""
"null","","html-keyboard-response","583","921886","0.0-8.0-2.0","","<div style=""font-size:60px;"">+</div>","null","","","","","","",""
"783.6999999880791","","image-keyboard-response","584","922671","0.0-8.0-0.1","","img/blue.png","32","trial","32","true","0.8,0.2","3:go_c","",""
"null","","html-keyboard-response","585","923676","0.0-8.0-1.1","","<img src=""img/blue-r.png"" border=""10"">","null","trial","32","","0.8,0.2","3:go_c","1",""
"null","","html-keyboard-response","586","924689","0.0-8.0-2.1","","<div style=""font-size:60px;"">+</div>","null","","","","","","",""
"997.4000000059605","","image-keyboard-response","587","925687","0.0-8.0-0.2","","img/red.png","32","trial","null","false","0.2,0.8","4:nogo_d","",""
"null","","html-keyboard-response","588","926691","0.0-8.0-1.2","","<img src=""img/red-r.png"" border=""10"">","null","trial","null","","0.2,0.8","4:nogo_d","1",""
"null","","html-keyboard-response","589","927704","0.0-8.0-2.2","","<div style=""font-size:60px;"">+</div>","null","","","","","","",""
"414.30000001192093","","image-keyboard-response","590","928119","0.0-8.0-0.3","","img/green.png","32","trial","null","false","0.2,0.8","2:nogo_b","",""
"null","","html-keyboard-response","591","929134","0.0-8.0-1.3","","<img src=""img/green-r.png"" border=""10"">","null","trial","null","","0.2,0.8","2:nogo_b","1",""
"null","","html-keyboard-response","592","930146","0.0-8.0-2.3","","<div style=""font-size:60px;"">+</div>","null","","","","","","",""
"524.5999999940395","","image-keyboard-response","593","930671","0.0-8.0-0.4","","img/purple.png","32","trial","32","true","0.8,0.2","1:go_a","",""
"null","","html-keyboard-response","594","931673","0.0-8.0-1.4","","<img src=""img/purple-r.png"" border=""10"">","null","trial","32","","0.8,0.2","1:go_a","1",""
"null","","html-keyboard-response","595","932682","0.0-8.0-2.4","","<div style=""font-size:60px;"">+</div>","null","","","","","","",""
"371.80000001192093","","image-keyboard-response","596","933054","0.0-8.0-0.5","","img/blue.png","32","trial","32","true","0.8,0.2","3:go_c","",""
"null","","html-keyboard-response","597","934060","0.0-8.0-1.5","","<img src=""img/blue-r.png"" border=""10"">","null","trial","32","","0.8,0.2","3:go_c","1",""
"null","","html-keyboard-response","598","935070","0.0-8.0-2.5","","<div style=""font-size:60px;"">+</div>","null","","","","","","",""
"392.2000000178814","","image-keyboard-response","599","935463","0.0-8.0-0.6","","img/red.png","32","trial","null","false","0.2,0.8","4:nogo_d","",""
"null","","html-keyboard-response","600","936479","0.0-8.0-1.6","","<img src=""img/red-n.png"" border=""10"">","null","trial","null","","0.2,0.8","4:nogo_d","0",""
"null","","html-keyboard-response","601","937490","0.0-8.0-2.6","","<div style=""font-size:60px;"">+</div>","null","","","","","","",""
"467.7999999821186","","image-keyboard-response","602","937959","0.0-8.0-0.7","","img/green.png","32","trial","null","false","0.2,0.8","2:nogo_b","",""
"null","","html-keyboard-response","603","938966","0.0-8.0-1.7","","<img src=""img/green-n.png"" border=""10"">","null","trial","null","","0.2,0.8","2:nogo_b","0",""
"null","","html-keyboard-response","604","939968","0.0-8.0-2.7","","<div style=""font-size:60px;"">+</div>","null","","","","","","",""
"null","","image-keyboard-response","605","941480","0.0-8.0-0.8","","img/red.png","null","trial","null","true","0.2,0.8","4:nogo_d","",""
"null","","html-keyboard-response","606","942491","0.0-8.0-1.8","","<img src=""img/red-r.png"">","null","trial","null","","0.2,0.8","4:nogo_d","1",""
"null","","html-keyboard-response","607","943500","0.0-8.0-2.8","","<div style=""font-size:60px;"">+</div>","null","","","","","","",""
"null","","image-keyboard-response","608","945010","0.0-8.0-0.9","","img/green.png","null","trial","null","true","0.2,0.8","2:nogo_b","",""
"null","","html-keyboard-response","609","946020","0.0-8.0-1.9","","<img src=""img/green-r.png"">","null","trial","null","","0.2,0.8","2:nogo_b","1",""
"null","","html-keyboard-response","610","947024","0.0-8.0-2.9","","<div style=""font-size:60px;"">+</div>","null","","","","","","",""
"590.3000000119209","","image-keyboard-response","611","947615","0.0-8.0-0.10","","img/blue.png","32","trial","32","true","0.8,0.2","3:go_c","",""
"null","","html-keyboard-response","612","948626","0.0-8.0-1.10","","<img src=""img/blue-r.png"" border=""10"">","null","trial","32","","0.8,0.2","3:go_c","1",""
"null","","html-keyboard-response","613","949640","0.0-8.0-2.10","","<div style=""font-size:60px;"">+</div>","null","","","","","","",""
"1110","","image-keyboard-response","614","950751","0.0-8.0-0.11","","img/purple.png","32","trial","32","true","0.8,0.2","1:go_a","",""
"null","","html-keyboard-response","615","951755","0.0-8.0-1.11","","<img src=""img/purple-r.png"" border=""10"">","null","trial","32","","0.8,0.2","1:go_a","1",""
"null","","html-keyboard-response","616","952766","0.0-8.0-2.11","","<div style=""font-size:60px;"">+</div>","null","","","","","","",""
"null","","image-keyboard-response","617","954274","0.0-8.0-0.12","","img/red.png","null","trial","null","true","0.2,0.8","4:nogo_d","",""
"null","","html-keyboard-response","618","955282","0.0-8.0-1.12","","<img src=""img/red-r.png"">","null","trial","null","","0.2,0.8","4:nogo_d","1",""
"null","","html-keyboard-response","619","956289","0.0-8.0-2.12","","<div style=""font-size:60px;"">+</div>","null","","","","","","",""
"null","","image-keyboard-response","620","957793","0.0-8.0-0.13","","img/green.png","null","trial","null","true","0.2,0.8","2:nogo_b","",""
"null","","html-keyboard-response","621","958801","0.0-8.0-1.13","","<img src=""img/green-n.png"">","null","trial","null","","0.2,0.8","2:nogo_b","0",""
"null","","html-keyboard-response","622","959811","0.0-8.0-2.13","","<div style=""font-size:60px;"">+</div>","null","","","","","","",""
"498.69999998807907","","image-keyboard-response","623","960311","0.0-8.0-0.14","","img/blue.png","32","trial","32","true","0.8,0.2","3:go_c","",""
"null","","html-keyboard-response","624","961323","0.0-8.0-1.14","","<img src=""img/blue-r.png"" border=""10"">","null","trial","32","","0.8,0.2","3:go_c","1",""
"null","","html-keyboard-response","625","962327","0.0-8.0-2.14","","<div style=""font-size:60px;"">+</div>","null","","","","","","",""
"382.69999998807907","","image-keyboard-response","626","962710","0.0-8.0-0.15","","img/purple.png","32","trial","32","true","0.8,0.2","1:go_a","",""
"null","","html-keyboard-response","627","963727","0.0-8.0-1.15","","<img src=""img/purple-r.png"" border=""10"">","null","trial","32","","0.8,0.2","1:go_a","1",""
"null","","html-keyboard-response","628","964736","0.0-8.0-2.15","","<div style=""font-size:60px;"">+</div>","null","","","","","","",""
"null","","image-keyboard-response","629","966238","0.0-8.0-0.16","","img/red.png","null","trial","null","true","0.2,0.8","4:nogo_d","",""
"null","","html-keyboard-response","630","967249","0.0-8.0-1.16","","<img src=""img/red-r.png"">","null","trial","null","","0.2,0.8","4:nogo_d","1",""
"null","","html-keyboard-response","631","968255","0.0-8.0-2.16","","<div style=""font-size:60px;"">+</div>","null","","","","","","",""
"null","","image-keyboard-response","632","969765","0.0-8.0-0.17","","img/green.png","null","trial","null","true","0.2,0.8","2:nogo_b","",""
"null","","html-keyboard-response","633","970775","0.0-8.0-1.17","","<img src=""img/green-n.png"">","null","trial","null","","0.2,0.8","2:nogo_b","0",""
"null","","html-keyboard-response","634","971782","0.0-8.0-2.17","","<div style=""font-size:60px;"">+</div>","null","","","","","","",""
"496.30000001192093","","image-keyboard-response","635","972279","0.0-8.0-0.18","","img/blue.png","32","trial","32","true","0.8,0.2","3:go_c","",""
"null","","html-keyboard-response","636","973291","0.0-8.0-1.18","","<img src=""img/blue-r.png"" border=""10"">","null","trial","32","","0.8,0.2","3:go_c","1",""
"null","","html-keyboard-response","637","974292","0.0-8.0-2.18","","<div style=""font-size:60px;"">+</div>","null","","","","","","",""
"442","","image-keyboard-response","638","974734","0.0-8.0-0.19","","img/purple.png","32","trial","32","true","0.8,0.2","1:go_a","",""
"null","","html-keyboard-response","639","975750","0.0-8.0-1.19","","<img src=""img/purple-r.png"" border=""10"">","null","trial","32","","0.8,0.2","1:go_a","1",""
"null","","html-keyboard-response","640","976758","0.0-8.0-2.19","","<div style=""font-size:60px;"">+</div>","null","","","","","","",""
"null","","image-keyboard-response","641","978269","0.0-8.0-0.20","","img/blue.png","null","trial","32","false","0.8,0.2","3:go_c","",""
"null","","html-keyboard-response","642","979277","0.0-8.0-1.20","","<img src=""img/blue-n.png"">","null","trial","32","","0.8,0.2","3:go_c","0",""
"null","","html-keyboard-response","643","980286","0.0-8.0-2.20","","<div style=""font-size:60px;"">+</div>","null","","","","","","",""
"null","","image-keyboard-response","644","981792","0.0-8.0-0.21","","img/red.png","null","trial","null","true","0.2,0.8","4:nogo_d","",""
"null","","html-keyboard-response","645","982793","0.0-8.0-1.21","","<img src=""img/red-r.png"">","null","trial","null","","0.2,0.8","4:nogo_d","1",""
"null","","html-keyboard-response","646","983797","0.0-8.0-2.21","","<div style=""font-size:60px;"">+</div>","null","","","","","","",""
"null","","image-keyboard-response","647","985313","0.0-8.0-0.22","","img/green.png","null","trial","null","true","0.2,0.8","2:nogo_b","",""
"null","","html-keyboard-response","648","986320","0.0-8.0-1.22","","<img src=""img/green-r.png"">","null","trial","null","","0.2,0.8","2:nogo_b","1",""
"null","","html-keyboard-response","649","987329","0.0-8.0-2.22","","<div style=""font-size:60px;"">+</div>","null","","","","","","",""
"null","","image-keyboard-response","650","988837","0.0-8.0-0.23","","img/purple.png","null","trial","32","false","0.8,0.2","1:go_a","",""
"null","","html-keyboard-response","651","989851","0.0-8.0-1.23","","<img src=""img/purple-n.png"">","null","trial","32","","0.8,0.2","1:go_a","0",""
"null","","html-keyboard-response","652","990857","0.0-8.0-2.23","","<div style=""font-size:60px;"">+</div>","null","","","","","","",""
"null","","image-keyboard-response","653","992362","0.0-8.0-0.24","","img/green.png","null","trial","null","true","0.2,0.8","2:nogo_b","",""
"null","","html-keyboard-response","654","993372","0.0-8.0-1.24","","<img src=""img/green-r.png"">","null","trial","null","","0.2,0.8","2:nogo_b","1",""
"null","","html-keyboard-response","655","994377","0.0-8.0-2.24","","<div style=""font-size:60px;"">+</div>","null","","","","","","",""
"549.1999999880791","","image-keyboard-response","656","994927","0.0-8.0-0.25","","img/blue.png","32","trial","32","true","0.8,0.2","3:go_c","",""
"null","","html-keyboard-response","657","995932","0.0-8.0-1.25","","<img src=""img/blue-r.png"" border=""10"">","null","trial","32","","0.8,0.2","3:go_c","1",""
"null","","html-keyboard-response","658","996936","0.0-8.0-2.25","","<div style=""font-size:60px;"">+</div>","null","","","","","","",""
"573.6999999880791","","image-keyboard-response","659","997511","0.0-8.0-0.26","","img/purple.png","32","trial","32","true","0.8,0.2","1:go_a","",""
"null","","html-keyboard-response","660","998523","0.0-8.0-1.26","","<img src=""img/purple-r.png"" border=""10"">","null","trial","32","","0.8,0.2","1:go_a","1",""
"null","","html-keyboard-response","661","999532","0.0-8.0-2.26","","<div style=""font-size:60px;"">+</div>","null","","","","","","",""
"null","","image-keyboard-response","662","1001047","0.0-8.0-0.27","","img/red.png","null","trial","null","true","0.2,0.8","4:nogo_d","",""
"null","","html-keyboard-response","663","1002048","0.0-8.0-1.27","","<img src=""img/red-r.png"">","null","trial","null","","0.2,0.8","4:nogo_d","1",""
"null","","html-keyboard-response","664","1003061","0.0-8.0-2.27","","<div style=""font-size:60px;"">+</div>","null","","","","","","",""
"553","","image-keyboard-response","665","1003615","0.0-8.0-0.28","","img/blue.png","32","trial","32","true","0.8,0.2","3:go_c","",""
"null","","html-keyboard-response","666","1004622","0.0-8.0-1.28","","<img src=""img/blue-r.png"" border=""10"">","null","trial","32","","0.8,0.2","3:go_c","1",""
"null","","html-keyboard-response","667","1005626","0.0-8.0-2.28","","<div style=""font-size:60px;"">+</div>","null","","","","","","",""
"null","","image-keyboard-response","668","1007136","0.0-8.0-0.29","","img/red.png","null","trial","null","true","0.2,0.8","4:nogo_d","",""
"null","","html-keyboard-response","669","1008137","0.0-8.0-1.29","","<img src=""img/red-r.png"">","null","trial","null","","0.2,0.8","4:nogo_d","1",""
"null","","html-keyboard-response","670","1009141","0.0-8.0-2.29","","<div style=""font-size:60px;"">+</div>","null","","","","","","",""
"null","","image-keyboard-response","671","1010651","0.0-8.0-0.30","","img/green.png","null","trial","null","true","0.2,0.8","2:nogo_b","",""
"null","","html-keyboard-response","672","1011665","0.0-8.0-1.30","","<img src=""img/green-r.png"">","null","trial","null","","0.2,0.8","2:nogo_b","1",""
"null","","html-keyboard-response","673","1012674","0.0-8.0-2.30","","<div style=""font-size:60px;"">+</div>","null","","","","","","",""
"923.6999999880791","","image-keyboard-response","674","1013599","0.0-8.0-0.31","","img/purple.png","32","trial","32","true","0.8,0.2","1:go_a","",""
"null","","html-keyboard-response","675","1014615","0.0-8.0-1.31","","<img src=""img/purple-r.png"" border=""10"">","null","trial","32","","0.8,0.2","1:go_a","1",""
"null","","html-keyboard-response","676","1015624","0.0-8.0-2.31","","<div style=""font-size:60px;"">+</div>","null","","","","","","",""
"null","","image-keyboard-response","677","1017130","0.0-8.0-0.32","","img/green.png","null","trial","null","true","0.2,0.8","2:nogo_b","",""
"null","","html-keyboard-response","678","1018141","0.0-8.0-1.32","","<img src=""img/green-r.png"">","null","trial","null","","0.2,0.8","2:nogo_b","1",""
"null","","html-keyboard-response","679","1019151","0.0-8.0-2.32","","<div style=""font-size:60px;"">+</div>","null","","","","","","",""
"null","","image-keyboard-response","680","1020659","0.0-8.0-0.33","","img/red.png","null","trial","null","true","0.2,0.8","4:nogo_d","",""
"null","","html-keyboard-response","681","1021671","0.0-8.0-1.33","","<img src=""img/red-r.png"">","null","trial","null","","0.2,0.8","4:nogo_d","1",""
"null","","html-keyboard-response","682","1022674","0.0-8.0-2.33","","<div style=""font-size:60px;"">+</div>","null","","","","","","",""
