"rt","url","trial_type","trial_index","time_elapsed","internal_node_id","view_history","stimulus","key_press","test_part","correct_response","correct","use_rew","which_stim","reward","responses"
"23521.414999995613","consent.html","external-html","0","23584","0.0-0.0","","","","","","","","","",""
"67318.2149999775","","instructions","1","90905","0.0-1.0","[{""page_index"":0,""viewing_time"":3657.5399999856018},{""page_index"":1,""viewing_time"":18074.13500000257},{""page_index"":2,""viewing_time"":4649.19500000542},{""page_index"":3,""viewing_time"":17550.090000004275},{""page_index"":4,""viewing_time"":8617.884999985108},{""page_index"":5,""viewing_time"":4714.789999998175},{""page_index"":6,""viewing_time"":10053.344999992987}]","","","","","","","","",""
"null","","image-keyboard-response","2","92411","0.0-2.0-0.0","","img/test2.PNG","null","practice","null","true","","","",""
"null","","html-keyboard-response","3","93413","0.0-2.0-1.0","","<img src=""img/test2-reward.PNG"">","null","","","","","","",""
"null","","html-keyboard-response","4","94417","0.0-2.0-2.0","","<div style=""font-size:60px;"">+</div>","null","","","","","","",""
"null","","image-keyboard-response","5","95921","0.0-2.0-0.1","","img/test3.PNG","null","practice","null","true","","","",""
"null","","html-keyboard-response","6","96923","0.0-2.0-1.1","","<img src=""img/test3-reward.PNG"">","null","","","","","","",""
"null","","html-keyboard-response","7","97927","0.0-2.0-2.1","","<div style=""font-size:60px;"">+</div>","null","","","","","","",""
"379.84000000869855","","image-keyboard-response","8","98309","0.0-2.0-0.2","","img/test1.PNG","32","practice","32","true","","","",""
"null","","html-keyboard-response","9","99312","0.0-2.0-1.2","","<img src=""img/test1-reward.PNG"" border=""10px; grey"">","null","","","","","","",""
"null","","html-keyboard-response","10","100313","0.0-2.0-2.2","","<div style=""font-size:60px;"">+</div>","null","","","","","","",""
"null","","image-keyboard-response","11","101817","0.0-2.0-0.3","","img/test2.PNG","null","practice","null","true","","","",""
"null","","html-keyboard-response","12","102823","0.0-2.0-1.3","","<img src=""img/test2-reward.PNG"">","null","","","","","","",""
"null","","html-keyboard-response","13","103824","0.0-2.0-2.3","","<div style=""font-size:60px;"">+</div>","null","","","","","","",""
"678.9149999967776","","image-keyboard-response","14","104504","0.0-2.0-0.4","","img/test1.PNG","32","practice","32","true","","","",""
"null","","html-keyboard-response","15","105509","0.0-2.0-1.4","","<img src=""img/test1-reward.PNG"" border=""10px; grey"">","null","","","","","","",""
"null","","html-keyboard-response","16","106511","0.0-2.0-2.4","","<div style=""font-size:60px;"">+</div>","null","","","","","","",""
"null","","image-keyboard-response","17","108014","0.0-2.0-0.5","","img/test3.PNG","null","practice","null","true","","","",""
"null","","html-keyboard-response","18","109017","0.0-2.0-1.5","","<img src=""img/test3-reward.PNG"">","null","","","","","","",""
"null","","html-keyboard-response","19","110020","0.0-2.0-2.5","","<div style=""font-size:60px;"">+</div>","null","","","","","","",""
"474.2649999971036","","image-keyboard-response","20","110495","0.0-2.0-0.6","","img/test1.PNG","32","practice","32","true","","","",""
"null","","html-keyboard-response","21","111495","0.0-2.0-1.6","","<img src=""img/test1-reward.PNG"" border=""10px; grey"">","null","","","","","","",""
"null","","html-keyboard-response","22","112500","0.0-2.0-2.6","","<div style=""font-size:60px;"">+</div>","null","","","","","","",""
"null","","image-keyboard-response","23","114004","0.0-2.0-0.7","","img/test2.PNG","null","practice","null","true","","","",""
"null","","html-keyboard-response","24","115006","0.0-2.0-1.7","","<img src=""img/test2-reward.PNG"">","null","","","","","","",""
"null","","html-keyboard-response","25","116009","0.0-2.0-2.7","","<div style=""font-size:60px;"">+</div>","null","","","","","","",""
"null","","image-keyboard-response","26","117511","0.0-2.0-0.8","","img/test3.PNG","null","practice","null","true","","","",""
"null","","html-keyboard-response","27","118518","0.0-2.0-1.8","","<img src=""img/test3-reward.PNG"">","null","","","","","","",""
"null","","html-keyboard-response","28","119522","0.0-2.0-2.8","","<div style=""font-size:60px;"">+</div>","null","","","","","","",""
"null","","image-keyboard-response","29","121025","0.0-2.0-0.9","","img/test3.PNG","null","practice","null","true","","","",""
"null","","html-keyboard-response","30","122029","0.0-2.0-1.9","","<img src=""img/test3-reward.PNG"">","null","","","","","","",""
"null","","html-keyboard-response","31","123030","0.0-2.0-2.9","","<div style=""font-size:60px;"">+</div>","null","","","","","","",""
"385.93000001856126","","image-keyboard-response","32","123417","0.0-2.0-0.10","","img/test1.PNG","32","practice","32","true","","","",""
"null","","html-keyboard-response","33","124422","0.0-2.0-1.10","","<img src=""img/test1-reward.PNG"" border=""10px; grey"">","null","","","","","","",""
"null","","html-keyboard-response","34","125424","0.0-2.0-2.10","","<div style=""font-size:60px;"">+</div>","null","","","","","","",""
"null","","image-keyboard-response","35","126926","0.0-2.0-0.11","","img/test2.PNG","null","practice","null","true","","","",""
"null","","html-keyboard-response","36","127928","0.0-2.0-1.11","","<img src=""img/test2-reward.PNG"">","null","","","","","","",""
"null","","html-keyboard-response","37","128932","0.0-2.0-2.11","","<div style=""font-size:60px;"">+</div>","null","","","","","","",""
"26340.835000009974","","instructions","38","155274","0.0-3.0","[{""page_index"":0,""viewing_time"":26340.51000000909}]","","","","","","","","",""
"708.2850000006147","","image-keyboard-response","39","155984","0.0-4.0-0.0","","img/yellow.png","32","trial","null","false","0.2,0.8","2:nogo_b","",""
"null","","html-keyboard-response","40","156985","0.0-4.0-1.0","","<img src=""img/yellow-n.png"" border=""10"">","null","trial","null","","0.2,0.8","2:nogo_b","0",""
"null","","html-keyboard-response","41","157986","0.0-4.0-2.0","","<div style=""font-size:60px;"">+</div>","null","","","","","","",""
"877.8600000077859","","image-keyboard-response","42","158865","0.0-4.0-0.1","","img/red.png","32","trial","32","true","0.8,0.2","1:go_a","",""
"null","","html-keyboard-response","43","159868","0.0-4.0-1.1","","<img src=""img/red-n.png"" border=""10"">","null","trial","32","","0.8,0.2","1:go_a","0",""
"null","","html-keyboard-response","44","160872","0.0-4.0-2.1","","<div style=""font-size:60px;"">+</div>","null","","","","","","",""
"966.7649999901187","","image-keyboard-response","45","161840","0.0-4.0-0.2","","img/yellow.png","32","trial","null","false","0.2,0.8","2:nogo_b","",""
"null","","html-keyboard-response","46","162846","0.0-4.0-1.2","","<img src=""img/yellow-n.png"" border=""10"">","null","trial","null","","0.2,0.8","2:nogo_b","0",""
"null","","html-keyboard-response","47","163847","0.0-4.0-2.2","","<div style=""font-size:60px;"">+</div>","null","","","","","","",""
"null","","image-keyboard-response","48","165352","0.0-4.0-0.3","","img/red.png","null","trial","32","false","0.8,0.2","1:go_a","",""
"null","","html-keyboard-response","49","166357","0.0-4.0-1.3","","<img src=""img/red-n.png"">","null","trial","32","","0.8,0.2","1:go_a","0",""
"null","","html-keyboard-response","50","167360","0.0-4.0-2.3","","<div style=""font-size:60px;"">+</div>","null","","","","","","",""
"633.2600000023376","","image-keyboard-response","51","167994","0.0-4.0-0.4","","img/red.png","32","trial","32","true","0.8,0.2","1:go_a","",""
"null","","html-keyboard-response","52","169000","0.0-4.0-1.4","","<img src=""img/red-n.png"" border=""10"">","null","trial","32","","0.8,0.2","1:go_a","0",""
"null","","html-keyboard-response","53","170002","0.0-4.0-2.4","","<div style=""font-size:60px;"">+</div>","null","","","","","","",""
"956.6800000029616","","image-keyboard-response","54","170959","0.0-4.0-0.5","","img/yellow.png","32","trial","null","false","0.2,0.8","2:nogo_b","",""
"null","","html-keyboard-response","55","171961","0.0-4.0-1.5","","<img src=""img/yellow-n.png"" border=""10"">","null","trial","null","","0.2,0.8","2:nogo_b","0",""
"null","","html-keyboard-response","56","172967","0.0-4.0-2.5","","<div style=""font-size:60px;"">+</div>","null","","","","","","",""
"1060.6250000128057","","image-keyboard-response","57","174028","0.0-4.0-0.6","","img/red.png","32","trial","32","true","0.8,0.2","1:go_a","",""
"null","","html-keyboard-response","58","175033","0.0-4.0-1.6","","<img src=""img/red-r.png"" border=""10"">","null","trial","32","","0.8,0.2","1:go_a","1",""
"null","","html-keyboard-response","59","176035","0.0-4.0-2.6","","<div style=""font-size:60px;"">+</div>","null","","","","","","",""
"null","","image-keyboard-response","60","177538","0.0-4.0-0.7","","img/yellow.png","null","trial","null","true","0.2,0.8","2:nogo_b","",""
"null","","html-keyboard-response","61","178542","0.0-4.0-1.7","","<img src=""img/yellow-r.png"">","null","trial","null","","0.2,0.8","2:nogo_b","1",""
"null","","html-keyboard-response","62","179546","0.0-4.0-2.7","","<div style=""font-size:60px;"">+</div>","null","","","","","","",""
"null","","image-keyboard-response","63","181050","0.0-4.0-0.8","","img/yellow.png","null","trial","null","true","0.2,0.8","2:nogo_b","",""
"null","","html-keyboard-response","64","182053","0.0-4.0-1.8","","<img src=""img/yellow-r.png"">","null","trial","null","","0.2,0.8","2:nogo_b","1",""
"null","","html-keyboard-response","65","183057","0.0-4.0-2.8","","<div style=""font-size:60px;"">+</div>","null","","","","","","",""
"482.75999998440966","","image-keyboard-response","66","183540","0.0-4.0-0.9","","img/red.png","32","trial","32","true","0.8,0.2","1:go_a","",""
"null","","html-keyboard-response","67","184542","0.0-4.0-1.9","","<img src=""img/red-r.png"" border=""10"">","null","trial","32","","0.8,0.2","1:go_a","1",""
"null","","html-keyboard-response","68","185547","0.0-4.0-2.9","","<div style=""font-size:60px;"">+</div>","null","","","","","","",""
"null","","image-keyboard-response","69","187051","0.0-4.0-0.10","","img/yellow.png","null","trial","null","true","0.2,0.8","2:nogo_b","",""
"null","","html-keyboard-response","70","188058","0.0-4.0-1.10","","<img src=""img/yellow-r.png"">","null","trial","null","","0.2,0.8","2:nogo_b","1",""
"null","","html-keyboard-response","71","189063","0.0-4.0-2.10","","<div style=""font-size:60px;"">+</div>","null","","","","","","",""
"562.5949999957811","","image-keyboard-response","72","189627","0.0-4.0-0.11","","img/red.png","32","trial","32","true","0.8,0.2","1:go_a","",""
"null","","html-keyboard-response","73","190630","0.0-4.0-1.11","","<img src=""img/red-r.png"" border=""10"">","null","trial","32","","0.8,0.2","1:go_a","1",""
"null","","html-keyboard-response","74","191630","0.0-4.0-2.11","","<div style=""font-size:60px;"">+</div>","null","","","","","","",""
"742.5050000019837","","image-keyboard-response","75","192374","0.0-4.0-0.12","","img/red.png","32","trial","32","true","0.8,0.2","1:go_a","",""
"null","","html-keyboard-response","76","193376","0.0-4.0-1.12","","<img src=""img/red-r.png"" border=""10"">","null","trial","32","","0.8,0.2","1:go_a","1",""
"null","","html-keyboard-response","77","194377","0.0-4.0-2.12","","<div style=""font-size:60px;"">+</div>","null","","","","","","",""
"null","","image-keyboard-response","78","195881","0.0-4.0-0.13","","img/yellow.png","null","trial","null","true","0.2,0.8","2:nogo_b","",""
"null","","html-keyboard-response","79","196884","0.0-4.0-1.13","","<img src=""img/yellow-r.png"">","null","trial","null","","0.2,0.8","2:nogo_b","1",""
"null","","html-keyboard-response","80","197885","0.0-4.0-2.13","","<div style=""font-size:60px;"">+</div>","null","","","","","","",""
"530.6400000117719","","image-keyboard-response","81","198417","0.0-4.0-0.14","","img/red.png","32","trial","32","true","0.8,0.2","1:go_a","",""
"null","","html-keyboard-response","82","199421","0.0-4.0-1.14","","<img src=""img/red-n.png"" border=""10"">","null","trial","32","","0.8,0.2","1:go_a","0",""
"null","","html-keyboard-response","83","200422","0.0-4.0-2.14","","<div style=""font-size:60px;"">+</div>","null","","","","","","",""
"null","","image-keyboard-response","84","201924","0.0-4.0-0.15","","img/yellow.png","null","trial","null","true","0.2,0.8","2:nogo_b","",""
"null","","html-keyboard-response","85","202927","0.0-4.0-1.15","","<img src=""img/yellow-r.png"">","null","trial","null","","0.2,0.8","2:nogo_b","1",""
"null","","html-keyboard-response","86","203931","0.0-4.0-2.15","","<div style=""font-size:60px;"">+</div>","null","","","","","","",""
"null","","image-keyboard-response","87","205432","0.0-4.0-0.16","","img/yellow.png","null","trial","null","true","0.2,0.8","2:nogo_b","",""
"null","","html-keyboard-response","88","206435","0.0-4.0-1.16","","<img src=""img/yellow-r.png"">","null","trial","null","","0.2,0.8","2:nogo_b","1",""
"null","","html-keyboard-response","89","207439","0.0-4.0-2.16","","<div style=""font-size:60px;"">+</div>","null","","","","","","",""
"813.8350000081118","","image-keyboard-response","90","208254","0.0-4.0-0.17","","img/red.png","32","trial","32","true","0.8,0.2","1:go_a","",""
"null","","html-keyboard-response","91","209256","0.0-4.0-1.17","","<img src=""img/red-r.png"" border=""10"">","null","trial","32","","0.8,0.2","1:go_a","1",""
"null","","html-keyboard-response","92","210256","0.0-4.0-2.17","","<div style=""font-size:60px;"">+</div>","null","","","","","","",""
"730.0549999927171","","image-keyboard-response","93","210987","0.0-4.0-0.18","","img/red.png","32","trial","32","true","0.8,0.2","1:go_a","",""
"null","","html-keyboard-response","94","211989","0.0-4.0-1.18","","<img src=""img/red-n.png"" border=""10"">","null","trial","32","","0.8,0.2","1:go_a","0",""
"null","","html-keyboard-response","95","212992","0.0-4.0-2.18","","<div style=""font-size:60px;"">+</div>","null","","","","","","",""
"null","","image-keyboard-response","96","214496","0.0-4.0-0.19","","img/yellow.png","null","trial","null","true","0.2,0.8","2:nogo_b","",""
"null","","html-keyboard-response","97","215500","0.0-4.0-1.19","","<img src=""img/yellow-r.png"">","null","trial","null","","0.2,0.8","2:nogo_b","1",""
"null","","html-keyboard-response","98","216504","0.0-4.0-2.19","","<div style=""font-size:60px;"">+</div>","null","","","","","","",""
"null","","image-keyboard-response","99","218005","0.0-4.0-0.20","","img/yellow.png","null","trial","null","true","0.2,0.8","2:nogo_b","",""
"null","","html-keyboard-response","100","219008","0.0-4.0-1.20","","<img src=""img/yellow-r.png"">","null","trial","null","","0.2,0.8","2:nogo_b","1",""
"null","","html-keyboard-response","101","220011","0.0-4.0-2.20","","<div style=""font-size:60px;"">+</div>","null","","","","","","",""
"814.314999995986","","image-keyboard-response","102","220826","0.0-4.0-0.21","","img/red.png","32","trial","32","true","0.8,0.2","1:go_a","",""
"null","","html-keyboard-response","103","221830","0.0-4.0-1.21","","<img src=""img/red-n.png"" border=""10"">","null","trial","32","","0.8,0.2","1:go_a","0",""
"null","","html-keyboard-response","104","222830","0.0-4.0-2.21","","<div style=""font-size:60px;"">+</div>","null","","","","","","",""
"null","","image-keyboard-response","105","224334","0.0-4.0-0.22","","img/yellow.png","null","trial","null","true","0.2,0.8","2:nogo_b","",""
"null","","html-keyboard-response","106","225339","0.0-4.0-1.22","","<img src=""img/yellow-r.png"">","null","trial","null","","0.2,0.8","2:nogo_b","1",""
"null","","html-keyboard-response","107","226341","0.0-4.0-2.22","","<div style=""font-size:60px;"">+</div>","null","","","","","","",""
"1176.4150000235531","","image-keyboard-response","108","227518","0.0-4.0-0.23","","img/red.png","32","trial","32","true","0.8,0.2","1:go_a","",""
"null","","html-keyboard-response","109","228521","0.0-4.0-1.23","","<img src=""img/red-r.png"" border=""10"">","null","trial","32","","0.8,0.2","1:go_a","1",""
"null","","html-keyboard-response","110","229522","0.0-4.0-2.23","","<div style=""font-size:60px;"">+</div>","null","","","","","","",""
"null","","image-keyboard-response","111","231025","0.0-4.0-0.24","","img/yellow.png","null","trial","null","true","0.2,0.8","2:nogo_b","",""
"null","","html-keyboard-response","112","232030","0.0-4.0-1.24","","<img src=""img/yellow-r.png"">","null","trial","null","","0.2,0.8","2:nogo_b","1",""
"null","","html-keyboard-response","113","233031","0.0-4.0-2.24","","<div style=""font-size:60px;"">+</div>","null","","","","","","",""
"929.4099999824539","","image-keyboard-response","114","233961","0.0-4.0-0.25","","img/red.png","32","trial","32","true","0.8,0.2","1:go_a","",""
"null","","html-keyboard-response","115","234962","0.0-4.0-1.25","","<img src=""img/red-r.png"" border=""10"">","null","trial","32","","0.8,0.2","1:go_a","1",""
"null","","html-keyboard-response","116","235963","0.0-4.0-2.25","","<div style=""font-size:60px;"">+</div>","null","","","","","","",""
"null","","image-keyboard-response","117","237469","0.0-4.0-0.26","","img/yellow.png","null","trial","null","true","0.2,0.8","2:nogo_b","",""
"null","","html-keyboard-response","118","238472","0.0-4.0-1.26","","<img src=""img/yellow-r.png"">","null","trial","null","","0.2,0.8","2:nogo_b","1",""
"null","","html-keyboard-response","119","239474","0.0-4.0-2.26","","<div style=""font-size:60px;"">+</div>","null","","","","","","",""
"1077.8050000080839","","image-keyboard-response","120","240552","0.0-4.0-0.27","","img/red.png","32","trial","32","true","0.8,0.2","1:go_a","",""
"null","","html-keyboard-response","121","241554","0.0-4.0-1.27","","<img src=""img/red-n.png"" border=""10"">","null","trial","32","","0.8,0.2","1:go_a","0",""
"null","","html-keyboard-response","122","242557","0.0-4.0-2.27","","<div style=""font-size:60px;"">+</div>","null","","","","","","",""
"991.4949999947567","","image-keyboard-response","123","243549","0.0-4.0-0.28","","img/red.png","32","trial","32","true","0.8,0.2","1:go_a","",""
"null","","html-keyboard-response","124","244551","0.0-4.0-1.28","","<img src=""img/red-r.png"" border=""10"">","null","trial","32","","0.8,0.2","1:go_a","1",""
"null","","html-keyboard-response","125","245554","0.0-4.0-2.28","","<div style=""font-size:60px;"">+</div>","null","","","","","","",""
"null","","image-keyboard-response","126","247056","0.0-4.0-0.29","","img/yellow.png","null","trial","null","true","0.2,0.8","2:nogo_b","",""
"null","","html-keyboard-response","127","248061","0.0-4.0-1.29","","<img src=""img/yellow-r.png"">","null","trial","null","","0.2,0.8","2:nogo_b","1",""
"null","","html-keyboard-response","128","249064","0.0-4.0-2.29","","<div style=""font-size:60px;"">+</div>","null","","","","","","",""
"null","","image-keyboard-response","129","250565","0.0-4.0-0.30","","img/yellow.png","null","trial","null","true","0.2,0.8","2:nogo_b","",""
"null","","html-keyboard-response","130","251570","0.0-4.0-1.30","","<img src=""img/yellow-r.png"">","null","trial","null","","0.2,0.8","2:nogo_b","1",""
"null","","html-keyboard-response","131","252571","0.0-4.0-2.30","","<div style=""font-size:60px;"">+</div>","null","","","","","","",""
"null","","image-keyboard-response","132","254072","0.0-4.0-0.31","","img/red.png","null","trial","32","false","0.8,0.2","1:go_a","",""
"null","","html-keyboard-response","133","255085","0.0-4.0-1.31","","<img src=""img/red-n.png"">","null","trial","32","","0.8,0.2","1:go_a","0",""
"null","","html-keyboard-response","134","256087","0.0-4.0-2.31","","<div style=""font-size:60px;"">+</div>","null","","","","","","",""
"662.3700000054669","","image-keyboard-response","135","256750","0.0-4.0-0.32","","img/red.png","32","trial","32","true","0.8,0.2","1:go_a","",""
"null","","html-keyboard-response","136","257752","0.0-4.0-1.32","","<img src=""img/red-r.png"" border=""10"">","null","trial","32","","0.8,0.2","1:go_a","1",""
"null","","html-keyboard-response","137","258757","0.0-4.0-2.32","","<div style=""font-size:60px;"">+</div>","null","","","","","","",""
"null","","image-keyboard-response","138","260263","0.0-4.0-0.33","","img/yellow.png","null","trial","null","true","0.2,0.8","2:nogo_b","",""
"null","","html-keyboard-response","139","261268","0.0-4.0-1.33","","<img src=""img/yellow-r.png"">","null","trial","null","","0.2,0.8","2:nogo_b","1",""
"null","","html-keyboard-response","140","262273","0.0-4.0-2.33","","<div style=""font-size:60px;"">+</div>","null","","","","","","",""
"null","","image-keyboard-response","141","263776","0.0-4.0-0.34","","img/yellow.png","null","trial","null","true","0.2,0.8","2:nogo_b","",""
"null","","html-keyboard-response","142","264777","0.0-4.0-1.34","","<img src=""img/yellow-r.png"">","null","trial","null","","0.2,0.8","2:nogo_b","1",""
"null","","html-keyboard-response","143","265779","0.0-4.0-2.34","","<div style=""font-size:60px;"">+</div>","null","","","","","","",""
"793.3999999950174","","image-keyboard-response","144","266573","0.0-4.0-0.35","","img/red.png","32","trial","32","true","0.8,0.2","1:go_a","",""
"null","","html-keyboard-response","145","267575","0.0-4.0-1.35","","<img src=""img/red-r.png"" border=""10"">","null","trial","32","","0.8,0.2","1:go_a","1",""
"null","","html-keyboard-response","146","268575","0.0-4.0-2.35","","<div style=""font-size:60px;"">+</div>","null","","","","","","",""
"965.7549999828916","","image-keyboard-response","147","269542","0.0-4.0-0.36","","img/red.png","32","trial","32","true","0.8,0.2","1:go_a","",""
"null","","html-keyboard-response","148","270546","0.0-4.0-1.36","","<img src=""img/red-r.png"" border=""10"">","null","trial","32","","0.8,0.2","1:go_a","1",""
"null","","html-keyboard-response","149","271551","0.0-4.0-2.36","","<div style=""font-size:60px;"">+</div>","null","","","","","","",""
"null","","image-keyboard-response","150","273056","0.0-4.0-0.37","","img/yellow.png","null","trial","null","true","0.2,0.8","2:nogo_b","",""
"null","","html-keyboard-response","151","274059","0.0-4.0-1.37","","<img src=""img/yellow-n.png"">","null","trial","null","","0.2,0.8","2:nogo_b","0",""
"null","","html-keyboard-response","152","275064","0.0-4.0-2.37","","<div style=""font-size:60px;"">+</div>","null","","","","","","",""
"null","","image-keyboard-response","153","276570","0.0-4.0-0.38","","img/yellow.png","null","trial","null","true","0.2,0.8","2:nogo_b","",""
"null","","html-keyboard-response","154","277572","0.0-4.0-1.38","","<img src=""img/yellow-r.png"">","null","trial","null","","0.2,0.8","2:nogo_b","1",""
"null","","html-keyboard-response","155","278573","0.0-4.0-2.38","","<div style=""font-size:60px;"">+</div>","null","","","","","","",""
"null","","image-keyboard-response","156","280076","0.0-4.0-0.39","","img/red.png","null","trial","32","false","0.8,0.2","1:go_a","",""
"null","","html-keyboard-response","157","281079","0.0-4.0-1.39","","<img src=""img/red-r.png"">","null","trial","32","","0.8,0.2","1:go_a","1",""
"null","","html-keyboard-response","158","282080","0.0-4.0-2.39","","<div style=""font-size:60px;"">+</div>","null","","","","","","",""
"648.3200000075158","","image-keyboard-response","159","282729","0.0-4.0-0.40","","img/red.png","32","trial","32","true","0.8,0.2","1:go_a","",""
"null","","html-keyboard-response","160","283732","0.0-4.0-1.40","","<img src=""img/red-n.png"" border=""10"">","null","trial","32","","0.8,0.2","1:go_a","0",""
"null","","html-keyboard-response","161","284736","0.0-4.0-2.40","","<div style=""font-size:60px;"">+</div>","null","","","","","","",""
"null","","image-keyboard-response","162","286242","0.0-4.0-0.41","","img/yellow.png","null","trial","null","true","0.2,0.8","2:nogo_b","",""
"null","","html-keyboard-response","163","287246","0.0-4.0-1.41","","<img src=""img/yellow-n.png"">","null","trial","null","","0.2,0.8","2:nogo_b","0",""
"null","","html-keyboard-response","164","288247","0.0-4.0-2.41","","<div style=""font-size:60px;"">+</div>","null","","","","","","",""
"470.26000000187196","","image-keyboard-response","165","288718","0.0-4.0-0.42","","img/red.png","32","trial","32","true","0.8,0.2","1:go_a","",""
"null","","html-keyboard-response","166","289724","0.0-4.0-1.42","","<img src=""img/red-r.png"" border=""10"">","null","trial","32","","0.8,0.2","1:go_a","1",""
"null","","html-keyboard-response","167","290725","0.0-4.0-2.42","","<div style=""font-size:60px;"">+</div>","null","","","","","","",""
"null","","image-keyboard-response","168","292230","0.0-4.0-0.43","","img/yellow.png","null","trial","null","true","0.2,0.8","2:nogo_b","",""
"null","","html-keyboard-response","169","293235","0.0-4.0-1.43","","<img src=""img/yellow-r.png"">","null","trial","null","","0.2,0.8","2:nogo_b","1",""
"null","","html-keyboard-response","170","294236","0.0-4.0-2.43","","<div style=""font-size:60px;"">+</div>","null","","","","","","",""
"567.5699999846984","","image-keyboard-response","171","294805","0.0-4.0-0.44","","img/red.png","32","trial","32","true","0.8,0.2","1:go_a","",""
"null","","html-keyboard-response","172","295807","0.0-4.0-1.44","","<img src=""img/red-r.png"" border=""10"">","null","trial","32","","0.8,0.2","1:go_a","1",""
"null","","html-keyboard-response","173","296810","0.0-4.0-2.44","","<div style=""font-size:60px;"">+</div>","null","","","","","","",""
"null","","image-keyboard-response","174","298311","0.0-4.0-0.45","","img/yellow.png","null","trial","null","true","0.2,0.8","2:nogo_b","",""
"null","","html-keyboard-response","175","299313","0.0-4.0-1.45","","<img src=""img/yellow-r.png"">","null","trial","null","","0.2,0.8","2:nogo_b","1",""
"null","","html-keyboard-response","176","300318","0.0-4.0-2.45","","<div style=""font-size:60px;"">+</div>","null","","","","","","",""
"582.68500000122","","image-keyboard-response","177","300902","0.0-4.0-0.46","","img/red.png","32","trial","32","true","0.8,0.2","1:go_a","",""
"null","","html-keyboard-response","178","301903","0.0-4.0-1.46","","<img src=""img/red-r.png"" border=""10"">","null","trial","32","","0.8,0.2","1:go_a","1",""
"null","","html-keyboard-response","179","302904","0.0-4.0-2.46","","<div style=""font-size:60px;"">+</div>","null","","","","","","",""
"null","","image-keyboard-response","180","304406","0.0-4.0-0.47","","img/yellow.png","null","trial","null","true","0.2,0.8","2:nogo_b","",""
"null","","html-keyboard-response","181","305408","0.0-4.0-1.47","","<img src=""img/yellow-r.png"">","null","trial","null","","0.2,0.8","2:nogo_b","1",""
"null","","html-keyboard-response","182","306410","0.0-4.0-2.47","","<div style=""font-size:60px;"">+</div>","null","","","","","","",""
"null","","image-keyboard-response","183","307912","0.0-4.0-0.48","","img/yellow.png","null","trial","null","true","0.2,0.8","2:nogo_b","",""
"null","","html-keyboard-response","184","308916","0.0-4.0-1.48","","<img src=""img/yellow-r.png"">","null","trial","null","","0.2,0.8","2:nogo_b","1",""
"null","","html-keyboard-response","185","309918","0.0-4.0-2.48","","<div style=""font-size:60px;"">+</div>","null","","","","","","",""
"682.1800000034273","","image-keyboard-response","186","310601","0.0-4.0-0.49","","img/red.png","32","trial","32","true","0.8,0.2","1:go_a","",""
"null","","html-keyboard-response","187","311606","0.0-4.0-1.49","","<img src=""img/red-n.png"" border=""10"">","null","trial","32","","0.8,0.2","1:go_a","0",""
"null","","html-keyboard-response","188","312607","0.0-4.0-2.49","","<div style=""font-size:60px;"">+</div>","null","","","","","","",""
"873.3899999933783","","image-keyboard-response","189","313481","0.0-4.0-0.50","","img/red.png","32","trial","32","true","0.8,0.2","1:go_a","",""
"null","","html-keyboard-response","190","314482","0.0-4.0-1.50","","<img src=""img/red-r.png"" border=""10"">","null","trial","32","","0.8,0.2","1:go_a","1",""
"null","","html-keyboard-response","191","315483","0.0-4.0-2.50","","<div style=""font-size:60px;"">+</div>","null","","","","","","",""
"null","","image-keyboard-response","192","316991","0.0-4.0-0.51","","img/yellow.png","null","trial","null","true","0.2,0.8","2:nogo_b","",""
"null","","html-keyboard-response","193","317993","0.0-4.0-1.51","","<img src=""img/yellow-n.png"">","null","trial","null","","0.2,0.8","2:nogo_b","0",""
"null","","html-keyboard-response","194","318997","0.0-4.0-2.51","","<div style=""font-size:60px;"">+</div>","null","","","","","","",""
"500.4299999854993","","image-keyboard-response","195","319498","0.0-4.0-0.52","","img/red.png","32","trial","32","true","0.8,0.2","1:go_a","",""
"null","","html-keyboard-response","196","320502","0.0-4.0-1.52","","<img src=""img/red-n.png"" border=""10"">","null","trial","32","","0.8,0.2","1:go_a","0",""
"null","","html-keyboard-response","197","321503","0.0-4.0-2.52","","<div style=""font-size:60px;"">+</div>","null","","","","","","",""
"null","","image-keyboard-response","198","323006","0.0-4.0-0.53","","img/yellow.png","null","trial","null","true","0.2,0.8","2:nogo_b","",""
"null","","html-keyboard-response","199","324010","0.0-4.0-1.53","","<img src=""img/yellow-r.png"">","null","trial","null","","0.2,0.8","2:nogo_b","1",""
"null","","html-keyboard-response","200","325012","0.0-4.0-2.53","","<div style=""font-size:60px;"">+</div>","null","","","","","","",""
"927.1799999987707","","image-keyboard-response","201","325940","0.0-4.0-0.54","","img/red.png","32","trial","32","true","0.8,0.2","1:go_a","",""
"null","","html-keyboard-response","202","326942","0.0-4.0-1.54","","<img src=""img/red-n.png"" border=""10"">","null","trial","32","","0.8,0.2","1:go_a","0",""
"null","","html-keyboard-response","203","327946","0.0-4.0-2.54","","<div style=""font-size:60px;"">+</div>","null","","","","","","",""
"null","","image-keyboard-response","204","329451","0.0-4.0-0.55","","img/yellow.png","null","trial","null","true","0.2,0.8","2:nogo_b","",""
"null","","html-keyboard-response","205","330452","0.0-4.0-1.55","","<img src=""img/yellow-r.png"">","null","trial","null","","0.2,0.8","2:nogo_b","1",""
"null","","html-keyboard-response","206","331454","0.0-4.0-2.55","","<div style=""font-size:60px;"">+</div>","null","","","","","","",""
"584.2200000188313","","image-keyboard-response","207","332039","0.0-4.0-0.56","","img/red.png","32","trial","32","true","0.8,0.2","1:go_a","",""
"null","","html-keyboard-response","208","333040","0.0-4.0-1.56","","<img src=""img/red-r.png"" border=""10"">","null","trial","32","","0.8,0.2","1:go_a","1",""
"null","","html-keyboard-response","209","334040","0.0-4.0-2.56","","<div style=""font-size:60px;"">+</div>","null","","","","","","",""
"null","","image-keyboard-response","210","335542","0.0-4.0-0.57","","img/yellow.png","null","trial","null","true","0.2,0.8","2:nogo_b","",""
"null","","html-keyboard-response","211","336544","0.0-4.0-1.57","","<img src=""img/yellow-r.png"">","null","trial","null","","0.2,0.8","2:nogo_b","1",""
"null","","html-keyboard-response","212","337547","0.0-4.0-2.57","","<div style=""font-size:60px;"">+</div>","null","","","","","","",""
"535.2600000042003","","image-keyboard-response","213","338083","0.0-4.0-0.58","","img/red.png","32","trial","32","true","0.8,0.2","1:go_a","",""
"null","","html-keyboard-response","214","339086","0.0-4.0-1.58","","<img src=""img/red-r.png"" border=""10"">","null","trial","32","","0.8,0.2","1:go_a","1",""
"null","","html-keyboard-response","215","340089","0.0-4.0-2.58","","<div style=""font-size:60px;"">+</div>","null","","","","","","",""
"null","","image-keyboard-response","216","341593","0.0-4.0-0.59","","img/yellow.png","null","trial","null","true","0.2,0.8","2:nogo_b","",""
"null","","html-keyboard-response","217","342597","0.0-4.0-1.59","","<img src=""img/yellow-r.png"">","null","trial","null","","0.2,0.8","2:nogo_b","1",""
"null","","html-keyboard-response","218","343603","0.0-4.0-2.59","","<div style=""font-size:60px;"">+</div>","null","","","","","","",""
"5070.370000001276","","instructions","219","348673","0.0-5.0","[{""page_index"":0,""viewing_time"":5070.054999989225}]","","","","","","","","",""
"895.6550000002608","","image-keyboard-response","220","349572","0.0-6.0-0.0","","img/green.png","32","trial","32","true","0.6,0.4","3:go_c","",""
"null","","html-keyboard-response","221","350573","0.0-6.0-1.0","","<img src=""img/green-r.png"" border=""10"">","null","trial","32","","0.6,0.4","3:go_c","1",""
"null","","html-keyboard-response","222","351574","0.0-6.0-2.0","","<div style=""font-size:60px;"">+</div>","null","","","","","","",""
"null","","image-keyboard-response","223","353077","0.0-6.0-0.1","","img/yellow.png","null","trial","32","false","0.6,0.4","1:go_a","",""
"null","","html-keyboard-response","224","354081","0.0-6.0-1.1","","<img src=""img/yellow-r.png"">","null","trial","32","","0.6,0.4","1:go_a","1",""
"null","","html-keyboard-response","225","355085","0.0-6.0-2.1","","<div style=""font-size:60px;"">+</div>","null","","","","","","",""
"1040.0049999880139","","image-keyboard-response","226","356125","0.0-6.0-0.2","","img/red.png","32","trial","null","false","0.4,0.6","2:nogo_b","",""
"null","","html-keyboard-response","227","357127","0.0-6.0-1.2","","<img src=""img/red-n.png"" border=""10"">","null","trial","null","","0.4,0.6","2:nogo_b","0",""
"null","","html-keyboard-response","228","358132","0.0-6.0-2.2","","<div style=""font-size:60px;"">+</div>","null","","","","","","",""
"1134.6750000084285","","image-keyboard-response","229","359268","0.0-6.0-0.3","","img/pink.png","32","trial","null","false","0.4,0.6","4:nogo_d","",""
"null","","html-keyboard-response","230","360269","0.0-6.0-1.3","","<img src=""img/pink-r.png"" border=""10"">","null","trial","null","","0.4,0.6","4:nogo_d","1",""
"null","","html-keyboard-response","231","361272","0.0-6.0-2.3","","<div style=""font-size:60px;"">+</div>","null","","","","","","",""
"676.9050000002608","","image-keyboard-response","232","361950","0.0-6.0-0.4","","img/green.png","32","trial","32","true","0.6,0.4","3:go_c","",""
"null","","html-keyboard-response","233","362955","0.0-6.0-1.4","","<img src=""img/green-n.png"" border=""10"">","null","trial","32","","0.6,0.4","3:go_c","0",""
"null","","html-keyboard-response","234","363957","0.0-6.0-2.4","","<div style=""font-size:60px;"">+</div>","null","","","","","","",""
"null","","image-keyboard-response","235","365464","0.0-6.0-0.5","","img/yellow.png","null","trial","32","false","0.6,0.4","1:go_a","",""
"null","","html-keyboard-response","236","366469","0.0-6.0-1.5","","<img src=""img/yellow-n.png"">","null","trial","32","","0.6,0.4","1:go_a","0",""
"null","","html-keyboard-response","237","367472","0.0-6.0-2.5","","<div style=""font-size:60px;"">+</div>","null","","","","","","",""
"1014.8650000046473","","image-keyboard-response","238","368488","0.0-6.0-0.6","","img/pink.png","32","trial","null","false","0.4,0.6","4:nogo_d","",""
"null","","html-keyboard-response","239","369489","0.0-6.0-1.6","","<img src=""img/pink-n.png"" border=""10"">","null","trial","null","","0.4,0.6","4:nogo_d","0",""
"null","","html-keyboard-response","240","370491","0.0-6.0-2.6","","<div style=""font-size:60px;"">+</div>","null","","","","","","",""
"743.2449999905657","","image-keyboard-response","241","371235","0.0-6.0-0.7","","img/red.png","32","trial","null","false","0.4,0.6","2:nogo_b","",""
"null","","html-keyboard-response","242","372236","0.0-6.0-1.7","","<img src=""img/red-r.png"" border=""10"">","null","trial","null","","0.4,0.6","2:nogo_b","1",""
"null","","html-keyboard-response","243","373239","0.0-6.0-2.7","","<div style=""font-size:60px;"">+</div>","null","","","","","","",""
"791.319999989355","","image-keyboard-response","244","374031","0.0-6.0-0.8","","img/pink.png","32","trial","null","false","0.4,0.6","4:nogo_d","",""
"null","","html-keyboard-response","245","375033","0.0-6.0-1.8","","<img src=""img/pink-n.png"" border=""10"">","null","trial","null","","0.4,0.6","4:nogo_d","0",""
"null","","html-keyboard-response","246","376034","0.0-6.0-2.8","","<div style=""font-size:60px;"">+</div>","null","","","","","","",""
"772.804999985965","","image-keyboard-response","247","376808","0.0-6.0-0.9","","img/green.png","32","trial","32","true","0.6,0.4","3:go_c","",""
"null","","html-keyboard-response","248","377809","0.0-6.0-1.9","","<img src=""img/green-r.png"" border=""10"">","null","trial","32","","0.6,0.4","3:go_c","1",""
"null","","html-keyboard-response","249","378811","0.0-6.0-2.9","","<div style=""font-size:60px;"">+</div>","null","","","","","","",""
"803.0799999833107","","image-keyboard-response","250","379615","0.0-6.0-0.10","","img/yellow.png","32","trial","32","true","0.6,0.4","1:go_a","",""
"null","","html-keyboard-response","251","380619","0.0-6.0-1.10","","<img src=""img/yellow-r.png"" border=""10"">","null","trial","32","","0.6,0.4","1:go_a","1",""
"null","","html-keyboard-response","252","381624","0.0-6.0-2.10","","<div style=""font-size:60px;"">+</div>","null","","","","","","",""
"920.6000000122003","","image-keyboard-response","253","382545","0.0-6.0-0.11","","img/red.png","32","trial","null","false","0.4,0.6","2:nogo_b","",""
"null","","html-keyboard-response","254","383547","0.0-6.0-1.11","","<img src=""img/red-n.png"" border=""10"">","null","trial","null","","0.4,0.6","2:nogo_b","0",""
"null","","html-keyboard-response","255","384550","0.0-6.0-2.11","","<div style=""font-size:60px;"">+</div>","null","","","","","","",""
"737.4950000084937","","image-keyboard-response","256","385288","0.0-6.0-0.12","","img/yellow.png","32","trial","32","true","0.6,0.4","1:go_a","",""
"null","","html-keyboard-response","257","386294","0.0-6.0-1.12","","<img src=""img/yellow-n.png"" border=""10"">","null","trial","32","","0.6,0.4","1:go_a","0",""
"null","","html-keyboard-response","258","387297","0.0-6.0-2.12","","<div style=""font-size:60px;"">+</div>","null","","","","","","",""
"null","","image-keyboard-response","259","388803","0.0-6.0-0.13","","img/pink.png","null","trial","null","true","0.4,0.6","4:nogo_d","",""
"null","","html-keyboard-response","260","389806","0.0-6.0-1.13","","<img src=""img/pink-n.png"">","null","trial","null","","0.4,0.6","4:nogo_d","0",""
"null","","html-keyboard-response","261","390807","0.0-6.0-2.13","","<div style=""font-size:60px;"">+</div>","null","","","","","","",""
"896.6049999871757","","image-keyboard-response","262","391704","0.0-6.0-0.14","","img/red.png","32","trial","null","false","0.4,0.6","2:nogo_b","",""
"null","","html-keyboard-response","263","392707","0.0-6.0-1.14","","<img src=""img/red-n.png"" border=""10"">","null","trial","null","","0.4,0.6","2:nogo_b","0",""
"null","","html-keyboard-response","264","393708","0.0-6.0-2.14","","<div style=""font-size:60px;"">+</div>","null","","","","","","",""
"618.5199999890756","","image-keyboard-response","265","394327","0.0-6.0-0.15","","img/green.png","32","trial","32","true","0.6,0.4","3:go_c","",""
"null","","html-keyboard-response","266","395332","0.0-6.0-1.15","","<img src=""img/green-r.png"" border=""10"">","null","trial","32","","0.6,0.4","3:go_c","1",""
"null","","html-keyboard-response","267","396336","0.0-6.0-2.15","","<div style=""font-size:60px;"">+</div>","null","","","","","","",""
"465.67000000504777","","image-keyboard-response","268","396802","0.0-6.0-0.16","","img/yellow.png","32","trial","32","true","0.6,0.4","1:go_a","",""
"null","","html-keyboard-response","269","397807","0.0-6.0-1.16","","<img src=""img/yellow-r.png"" border=""10"">","null","trial","32","","0.6,0.4","1:go_a","1",""
"null","","html-keyboard-response","270","398808","0.0-6.0-2.16","","<div style=""font-size:60px;"">+</div>","null","","","","","","",""
"null","","image-keyboard-response","271","400309","0.0-6.0-0.17","","img/red.png","null","trial","null","true","0.4,0.6","2:nogo_b","",""
"null","","html-keyboard-response","272","401311","0.0-6.0-1.17","","<img src=""img/red-r.png"">","null","trial","null","","0.4,0.6","2:nogo_b","1",""
"null","","html-keyboard-response","273","402314","0.0-6.0-2.17","","<div style=""font-size:60px;"">+</div>","null","","","","","","",""
"713.1900000094902","","image-keyboard-response","274","403028","0.0-6.0-0.18","","img/green.png","32","trial","32","true","0.6,0.4","3:go_c","",""
"null","","html-keyboard-response","275","404031","0.0-6.0-1.18","","<img src=""img/green-r.png"" border=""10"">","null","trial","32","","0.6,0.4","3:go_c","1",""
"null","","html-keyboard-response","276","405035","0.0-6.0-2.18","","<div style=""font-size:60px;"">+</div>","null","","","","","","",""
"null","","image-keyboard-response","277","406545","0.0-6.0-0.19","","img/pink.png","null","trial","null","true","0.4,0.6","4:nogo_d","",""
"null","","html-keyboard-response","278","407549","0.0-6.0-1.19","","<img src=""img/pink-n.png"">","null","trial","null","","0.4,0.6","4:nogo_d","0",""
"null","","html-keyboard-response","279","408554","0.0-6.0-2.19","","<div style=""font-size:60px;"">+</div>","null","","","","","","",""
"null","","image-keyboard-response","280","410058","0.0-6.0-0.20","","img/red.png","null","trial","null","true","0.4,0.6","2:nogo_b","",""
"null","","html-keyboard-response","281","411064","0.0-6.0-1.20","","<img src=""img/red-r.png"">","null","trial","null","","0.4,0.6","2:nogo_b","1",""
"null","","html-keyboard-response","282","412069","0.0-6.0-2.20","","<div style=""font-size:60px;"">+</div>","null","","","","","","",""
"511.9099999719765","","image-keyboard-response","283","412582","0.0-6.0-0.21","","img/green.png","32","trial","32","true","0.6,0.4","3:go_c","",""
"null","","html-keyboard-response","284","413583","0.0-6.0-1.21","","<img src=""img/green-n.png"" border=""10"">","null","trial","32","","0.6,0.4","3:go_c","0",""
"null","","html-keyboard-response","285","414585","0.0-6.0-2.21","","<div style=""font-size:60px;"">+</div>","null","","","","","","",""
"546.2349999870639","","image-keyboard-response","286","415132","0.0-6.0-0.22","","img/yellow.png","32","trial","32","true","0.6,0.4","1:go_a","",""
"null","","html-keyboard-response","287","416135","0.0-6.0-1.22","","<img src=""img/yellow-r.png"" border=""10"">","null","trial","32","","0.6,0.4","1:go_a","1",""
"null","","html-keyboard-response","288","417140","0.0-6.0-2.22","","<div style=""font-size:60px;"">+</div>","null","","","","","","",""
"null","","image-keyboard-response","289","418645","0.0-6.0-0.23","","img/pink.png","null","trial","null","true","0.4,0.6","4:nogo_d","",""
"null","","html-keyboard-response","290","419649","0.0-6.0-1.23","","<img src=""img/pink-r.png"">","null","trial","null","","0.4,0.6","4:nogo_d","1",""
"null","","html-keyboard-response","291","420653","0.0-6.0-2.23","","<div style=""font-size:60px;"">+</div>","null","","","","","","",""
"null","","image-keyboard-response","292","422154","0.0-6.0-0.24","","img/red.png","null","trial","null","true","0.4,0.6","2:nogo_b","",""
"null","","html-keyboard-response","293","423157","0.0-6.0-1.24","","<img src=""img/red-n.png"">","null","trial","null","","0.4,0.6","2:nogo_b","0",""
"null","","html-keyboard-response","294","424161","0.0-6.0-2.24","","<div style=""font-size:60px;"">+</div>","null","","","","","","",""
"465.7700000097975","","image-keyboard-response","295","424628","0.0-6.0-0.25","","img/green.png","32","trial","32","true","0.6,0.4","3:go_c","",""
"null","","html-keyboard-response","296","425634","0.0-6.0-1.25","","<img src=""img/green-n.png"" border=""10"">","null","trial","32","","0.6,0.4","3:go_c","0",""
"null","","html-keyboard-response","297","426635","0.0-6.0-2.25","","<div style=""font-size:60px;"">+</div>","null","","","","","","",""
"null","","image-keyboard-response","298","428140","0.0-6.0-0.26","","img/pink.png","null","trial","null","true","0.4,0.6","4:nogo_d","",""
"null","","html-keyboard-response","299","429142","0.0-6.0-1.26","","<img src=""img/pink-r.png"">","null","trial","null","","0.4,0.6","4:nogo_d","1",""
"null","","html-keyboard-response","300","430143","0.0-6.0-2.26","","<div style=""font-size:60px;"">+</div>","null","","","","","","",""
"904.4349999749102","","image-keyboard-response","301","431049","0.0-6.0-0.27","","img/yellow.png","32","trial","32","true","0.6,0.4","1:go_a","",""
"null","","html-keyboard-response","302","432053","0.0-6.0-1.27","","<img src=""img/yellow-n.png"" border=""10"">","null","trial","32","","0.6,0.4","1:go_a","0",""
"null","","html-keyboard-response","303","433058","0.0-6.0-2.27","","<div style=""font-size:60px;"">+</div>","null","","","","","","",""
"593.8399999868125","","image-keyboard-response","304","433652","0.0-6.0-0.28","","img/yellow.png","32","trial","32","true","0.6,0.4","1:go_a","",""
"null","","html-keyboard-response","305","434658","0.0-6.0-1.28","","<img src=""img/yellow-n.png"" border=""10"">","null","trial","32","","0.6,0.4","1:go_a","0",""
"null","","html-keyboard-response","306","435659","0.0-6.0-2.28","","<div style=""font-size:60px;"">+</div>","null","","","","","","",""
"619.860000006156","","image-keyboard-response","307","436279","0.0-6.0-0.29","","img/green.png","32","trial","32","true","0.6,0.4","3:go_c","",""
"null","","html-keyboard-response","308","437285","0.0-6.0-1.29","","<img src=""img/green-r.png"" border=""10"">","null","trial","32","","0.6,0.4","3:go_c","1",""
"null","","html-keyboard-response","309","438290","0.0-6.0-2.29","","<div style=""font-size:60px;"">+</div>","null","","","","","","",""
"null","","image-keyboard-response","310","439794","0.0-6.0-0.30","","img/red.png","null","trial","null","true","0.4,0.6","2:nogo_b","",""
"null","","html-keyboard-response","311","440800","0.0-6.0-1.30","","<img src=""img/red-r.png"">","null","trial","null","","0.4,0.6","2:nogo_b","1",""
"null","","html-keyboard-response","312","441803","0.0-6.0-2.30","","<div style=""font-size:60px;"">+</div>","null","","","","","","",""
"null","","image-keyboard-response","313","443305","0.0-6.0-0.31","","img/pink.png","null","trial","null","true","0.4,0.6","4:nogo_d","",""
"null","","html-keyboard-response","314","444311","0.0-6.0-1.31","","<img src=""img/pink-r.png"">","null","trial","null","","0.4,0.6","4:nogo_d","1",""
"null","","html-keyboard-response","315","445312","0.0-6.0-2.31","","<div style=""font-size:60px;"">+</div>","null","","","","","","",""
"1030.495000013616","","image-keyboard-response","316","446344","0.0-6.0-0.32","","img/red.png","32","trial","null","false","0.4,0.6","2:nogo_b","",""
"null","","html-keyboard-response","317","447348","0.0-6.0-1.32","","<img src=""img/red-n.png"" border=""10"">","null","trial","null","","0.4,0.6","2:nogo_b","0",""
"null","","html-keyboard-response","318","448352","0.0-6.0-2.32","","<div style=""font-size:60px;"">+</div>","null","","","","","","",""
"1210.8100000186823","","image-keyboard-response","319","449563","0.0-6.0-0.33","","img/pink.png","32","trial","null","false","0.4,0.6","4:nogo_d","",""
"null","","html-keyboard-response","320","450567","0.0-6.0-1.33","","<img src=""img/pink-n.png"" border=""10"">","null","trial","null","","0.4,0.6","4:nogo_d","0",""
"null","","html-keyboard-response","321","451569","0.0-6.0-2.33","","<div style=""font-size:60px;"">+</div>","null","","","","","","",""
"null","","image-keyboard-response","322","453073","0.0-6.0-0.34","","img/yellow.png","null","trial","32","false","0.6,0.4","1:go_a","",""
"null","","html-keyboard-response","323","454078","0.0-6.0-1.34","","<img src=""img/yellow-n.png"">","null","trial","32","","0.6,0.4","1:go_a","0",""
"null","","html-keyboard-response","324","455083","0.0-6.0-2.34","","<div style=""font-size:60px;"">+</div>","null","","","","","","",""
"551.3700000010431","","image-keyboard-response","325","455635","0.0-6.0-0.35","","img/green.png","32","trial","32","true","0.6,0.4","3:go_c","",""
"null","","html-keyboard-response","326","456636","0.0-6.0-1.35","","<img src=""img/green-n.png"" border=""10"">","null","trial","32","","0.6,0.4","3:go_c","0",""
"null","","html-keyboard-response","327","457637","0.0-6.0-2.35","","<div style=""font-size:60px;"">+</div>","null","","","","","","",""
"786.8749999906868","","image-keyboard-response","328","458425","0.0-6.0-0.36","","img/yellow.png","32","trial","32","true","0.6,0.4","1:go_a","",""
"null","","html-keyboard-response","329","459429","0.0-6.0-1.36","","<img src=""img/yellow-n.png"" border=""10"">","null","trial","32","","0.6,0.4","1:go_a","0",""
"null","","html-keyboard-response","330","460431","0.0-6.0-2.36","","<div style=""font-size:60px;"">+</div>","null","","","","","","",""
"448.7150000059046","","image-keyboard-response","331","460881","0.0-6.0-0.37","","img/green.png","32","trial","32","true","0.6,0.4","3:go_c","",""
"null","","html-keyboard-response","332","461883","0.0-6.0-1.37","","<img src=""img/green-r.png"" border=""10"">","null","trial","32","","0.6,0.4","3:go_c","1",""
"null","","html-keyboard-response","333","462886","0.0-6.0-2.37","","<div style=""font-size:60px;"">+</div>","null","","","","","","",""
"null","","image-keyboard-response","334","464391","0.0-6.0-0.38","","img/red.png","null","trial","null","true","0.4,0.6","2:nogo_b","",""
"null","","html-keyboard-response","335","465394","0.0-6.0-1.38","","<img src=""img/red-r.png"">","null","trial","null","","0.4,0.6","2:nogo_b","1",""
"null","","html-keyboard-response","336","466398","0.0-6.0-2.38","","<div style=""font-size:60px;"">+</div>","null","","","","","","",""
"1254.9050000088755","","image-keyboard-response","337","467654","0.0-6.0-0.39","","img/pink.png","32","trial","null","false","0.4,0.6","4:nogo_d","",""
"null","","html-keyboard-response","338","468655","0.0-6.0-1.39","","<img src=""img/pink-n.png"" border=""10"">","null","trial","null","","0.4,0.6","4:nogo_d","0",""
"null","","html-keyboard-response","339","469656","0.0-6.0-2.39","","<div style=""font-size:60px;"">+</div>","null","","","","","","",""
"917.0100000046659","","image-keyboard-response","340","470574","0.0-6.0-0.40","","img/pink.png","32","trial","null","false","0.4,0.6","4:nogo_d","",""
"null","","html-keyboard-response","341","471577","0.0-6.0-1.40","","<img src=""img/pink-n.png"" border=""10"">","null","trial","null","","0.4,0.6","4:nogo_d","0",""
"null","","html-keyboard-response","342","472577","0.0-6.0-2.40","","<div style=""font-size:60px;"">+</div>","null","","","","","","",""
"null","","image-keyboard-response","343","474081","0.0-6.0-0.41","","img/red.png","null","trial","null","true","0.4,0.6","2:nogo_b","",""
"null","","html-keyboard-response","344","475086","0.0-6.0-1.41","","<img src=""img/red-n.png"">","null","trial","null","","0.4,0.6","2:nogo_b","0",""
"null","","html-keyboard-response","345","476090","0.0-6.0-2.41","","<div style=""font-size:60px;"">+</div>","null","","","","","","",""
"597.5800000014715","","image-keyboard-response","346","476688","0.0-6.0-0.42","","img/green.png","32","trial","32","true","0.6,0.4","3:go_c","",""
"null","","html-keyboard-response","347","477692","0.0-6.0-1.42","","<img src=""img/green-r.png"" border=""10"">","null","trial","32","","0.6,0.4","3:go_c","1",""
"null","","html-keyboard-response","348","478696","0.0-6.0-2.42","","<div style=""font-size:60px;"">+</div>","null","","","","","","",""
"null","","image-keyboard-response","349","480200","0.0-6.0-0.43","","img/yellow.png","null","trial","32","false","0.6,0.4","1:go_a","",""
"null","","html-keyboard-response","350","481202","0.0-6.0-1.43","","<img src=""img/yellow-n.png"">","null","trial","32","","0.6,0.4","1:go_a","0",""
"null","","html-keyboard-response","351","482207","0.0-6.0-2.43","","<div style=""font-size:60px;"">+</div>","null","","","","","","",""
"445.5549999838695","","image-keyboard-response","352","482653","0.0-6.0-0.44","","img/yellow.png","32","trial","32","true","0.6,0.4","1:go_a","",""
"null","","html-keyboard-response","353","483655","0.0-6.0-1.44","","<img src=""img/yellow-r.png"" border=""10"">","null","trial","32","","0.6,0.4","1:go_a","1",""
"null","","html-keyboard-response","354","484655","0.0-6.0-2.44","","<div style=""font-size:60px;"">+</div>","null","","","","","","",""
"null","","image-keyboard-response","355","486159","0.0-6.0-0.45","","img/red.png","null","trial","null","true","0.4,0.6","2:nogo_b","",""
"null","","html-keyboard-response","356","487163","0.0-6.0-1.45","","<img src=""img/red-n.png"">","null","trial","null","","0.4,0.6","2:nogo_b","0",""
"null","","html-keyboard-response","357","488164","0.0-6.0-2.45","","<div style=""font-size:60px;"">+</div>","null","","","","","","",""
"null","","image-keyboard-response","358","489666","0.0-6.0-0.46","","img/pink.png","null","trial","null","true","0.4,0.6","4:nogo_d","",""
"null","","html-keyboard-response","359","490670","0.0-6.0-1.46","","<img src=""img/pink-n.png"">","null","trial","null","","0.4,0.6","4:nogo_d","0",""
"null","","html-keyboard-response","360","491673","0.0-6.0-2.46","","<div style=""font-size:60px;"">+</div>","null","","","","","","",""
"536.3649999781046","","image-keyboard-response","361","492212","0.0-6.0-0.47","","img/green.png","32","trial","32","true","0.6,0.4","3:go_c","",""
"null","","html-keyboard-response","362","493216","0.0-6.0-1.47","","<img src=""img/green-n.png"" border=""10"">","null","trial","32","","0.6,0.4","3:go_c","0",""
"null","","html-keyboard-response","363","494220","0.0-6.0-2.47","","<div style=""font-size:60px;"">+</div>","null","","","","","","",""
"null","","image-keyboard-response","364","495724","0.0-6.0-0.48","","img/pink.png","null","trial","null","true","0.4,0.6","4:nogo_d","",""
"null","","html-keyboard-response","365","496728","0.0-6.0-1.48","","<img src=""img/pink-r.png"">","null","trial","null","","0.4,0.6","4:nogo_d","1",""
"null","","html-keyboard-response","366","497729","0.0-6.0-2.48","","<div style=""font-size:60px;"">+</div>","null","","","","","","",""
"626.3299999991432","","image-keyboard-response","367","498357","0.0-6.0-0.49","","img/green.png","32","trial","32","true","0.6,0.4","3:go_c","",""
"null","","html-keyboard-response","368","499360","0.0-6.0-1.49","","<img src=""img/green-r.png"" border=""10"">","null","trial","32","","0.6,0.4","3:go_c","1",""
"null","","html-keyboard-response","369","500361","0.0-6.0-2.49","","<div style=""font-size:60px;"">+</div>","null","","","","","","",""
"null","","image-keyboard-response","370","501862","0.0-6.0-0.50","","img/red.png","null","trial","null","true","0.4,0.6","2:nogo_b","",""
"null","","html-keyboard-response","371","502866","0.0-6.0-1.50","","<img src=""img/red-r.png"">","null","trial","null","","0.4,0.6","2:nogo_b","1",""
"null","","html-keyboard-response","372","503869","0.0-6.0-2.50","","<div style=""font-size:60px;"">+</div>","null","","","","","","",""
"1031.5100000007078","","image-keyboard-response","373","504902","0.0-6.0-0.51","","img/yellow.png","32","trial","32","true","0.6,0.4","1:go_a","",""
"null","","html-keyboard-response","374","505906","0.0-6.0-1.51","","<img src=""img/yellow-n.png"" border=""10"">","null","trial","32","","0.6,0.4","1:go_a","0",""
"null","","html-keyboard-response","375","506911","0.0-6.0-2.51","","<div style=""font-size:60px;"">+</div>","null","","","","","","",""
"null","","image-keyboard-response","376","508416","0.0-6.0-0.52","","img/pink.png","null","trial","null","true","0.4,0.6","4:nogo_d","",""
"null","","html-keyboard-response","377","509420","0.0-6.0-1.52","","<img src=""img/pink-n.png"">","null","trial","null","","0.4,0.6","4:nogo_d","0",""
"null","","html-keyboard-response","378","510424","0.0-6.0-2.52","","<div style=""font-size:60px;"">+</div>","null","","","","","","",""
"null","","image-keyboard-response","379","511925","0.0-6.0-0.53","","img/red.png","null","trial","null","true","0.4,0.6","2:nogo_b","",""
"null","","html-keyboard-response","380","512932","0.0-6.0-1.53","","<img src=""img/red-n.png"">","null","trial","null","","0.4,0.6","2:nogo_b","0",""
"null","","html-keyboard-response","381","513936","0.0-6.0-2.53","","<div style=""font-size:60px;"">+</div>","null","","","","","","",""
"null","","image-keyboard-response","382","515438","0.0-6.0-0.54","","img/green.png","null","trial","32","false","0.6,0.4","3:go_c","",""
"null","","html-keyboard-response","383","516440","0.0-6.0-1.54","","<img src=""img/green-n.png"">","null","trial","32","","0.6,0.4","3:go_c","0",""
"null","","html-keyboard-response","384","517444","0.0-6.0-2.54","","<div style=""font-size:60px;"">+</div>","null","","","","","","",""
"659.8749999830034","","image-keyboard-response","385","518104","0.0-6.0-0.55","","img/yellow.png","32","trial","32","true","0.6,0.4","1:go_a","",""
"null","","html-keyboard-response","386","519107","0.0-6.0-1.55","","<img src=""img/yellow-r.png"" border=""10"">","null","trial","32","","0.6,0.4","1:go_a","1",""
"null","","html-keyboard-response","387","520112","0.0-6.0-2.55","","<div style=""font-size:60px;"">+</div>","null","","","","","","",""
"548.2900000060908","","image-keyboard-response","388","520661","0.0-6.0-0.56","","img/green.png","32","trial","32","true","0.6,0.4","3:go_c","",""
"null","","html-keyboard-response","389","521664","0.0-6.0-1.56","","<img src=""img/green-r.png"" border=""10"">","null","trial","32","","0.6,0.4","3:go_c","1",""
"null","","html-keyboard-response","390","522667","0.0-6.0-2.56","","<div style=""font-size:60px;"">+</div>","null","","","","","","",""
"null","","image-keyboard-response","391","524171","0.0-6.0-0.57","","img/pink.png","null","trial","null","true","0.4,0.6","4:nogo_d","",""
"null","","html-keyboard-response","392","525175","0.0-6.0-1.57","","<img src=""img/pink-r.png"">","null","trial","null","","0.4,0.6","4:nogo_d","1",""
"null","","html-keyboard-response","393","526176","0.0-6.0-2.57","","<div style=""font-size:60px;"">+</div>","null","","","","","","",""
"889.2500000074506","","image-keyboard-response","394","527066","0.0-6.0-0.58","","img/yellow.png","32","trial","32","true","0.6,0.4","1:go_a","",""
"null","","html-keyboard-response","395","528070","0.0-6.0-1.58","","<img src=""img/yellow-n.png"" border=""10"">","null","trial","32","","0.6,0.4","1:go_a","0",""
"null","","html-keyboard-response","396","529074","0.0-6.0-2.58","","<div style=""font-size:60px;"">+</div>","null","","","","","","",""
"null","","image-keyboard-response","397","530575","0.0-6.0-0.59","","img/red.png","null","trial","null","true","0.4,0.6","2:nogo_b","",""
"null","","html-keyboard-response","398","531576","0.0-6.0-1.59","","<img src=""img/red-n.png"">","null","trial","null","","0.4,0.6","2:nogo_b","0",""
"null","","html-keyboard-response","399","532577","0.0-6.0-2.59","","<div style=""font-size:60px;"">+</div>","null","","","","","","",""
"498.1749999860767","","image-keyboard-response","400","533076","0.0-6.0-0.60","","img/red.png","32","trial","null","false","0.4,0.6","2:nogo_b","",""
"null","","html-keyboard-response","401","534081","0.0-6.0-1.60","","<img src=""img/red-n.png"" border=""10"">","null","trial","null","","0.4,0.6","2:nogo_b","0",""
"null","","html-keyboard-response","402","535084","0.0-6.0-2.60","","<div style=""font-size:60px;"">+</div>","null","","","","","","",""
"null","","image-keyboard-response","403","536585","0.0-6.0-0.61","","img/pink.png","null","trial","null","true","0.4,0.6","4:nogo_d","",""
"null","","html-keyboard-response","404","537588","0.0-6.0-1.61","","<img src=""img/pink-n.png"">","null","trial","null","","0.4,0.6","4:nogo_d","0",""
"null","","html-keyboard-response","405","538588","0.0-6.0-2.61","","<div style=""font-size:60px;"">+</div>","null","","","","","","",""
"751.5349999885075","","image-keyboard-response","406","539340","0.0-6.0-0.62","","img/yellow.png","32","trial","32","true","0.6,0.4","1:go_a","",""
"null","","html-keyboard-response","407","540345","0.0-6.0-1.62","","<img src=""img/yellow-n.png"" border=""10"">","null","trial","32","","0.6,0.4","1:go_a","0",""
"null","","html-keyboard-response","408","541348","0.0-6.0-2.62","","<div style=""font-size:60px;"">+</div>","null","","","","","","",""
"353.5400000109803","","image-keyboard-response","409","541702","0.0-6.0-0.63","","img/green.png","32","trial","32","true","0.6,0.4","3:go_c","",""
"null","","html-keyboard-response","410","542704","0.0-6.0-1.63","","<img src=""img/green-r.png"" border=""10"">","null","trial","32","","0.6,0.4","3:go_c","1",""
"null","","html-keyboard-response","411","543704","0.0-6.0-2.63","","<div style=""font-size:60px;"">+</div>","null","","","","","","",""
"638.4799999941606","","image-keyboard-response","412","544343","0.0-6.0-0.64","","img/yellow.png","32","trial","32","true","0.6,0.4","1:go_a","",""
"null","","html-keyboard-response","413","545348","0.0-6.0-1.64","","<img src=""img/yellow-r.png"" border=""10"">","null","trial","32","","0.6,0.4","1:go_a","1",""
"null","","html-keyboard-response","414","546353","0.0-6.0-2.64","","<div style=""font-size:60px;"">+</div>","null","","","","","","",""
"497.62000000919215","","image-keyboard-response","415","546851","0.0-6.0-0.65","","img/green.png","32","trial","32","true","0.6,0.4","3:go_c","",""
"null","","html-keyboard-response","416","547854","0.0-6.0-1.65","","<img src=""img/green-r.png"" border=""10"">","null","trial","32","","0.6,0.4","3:go_c","1",""
"null","","html-keyboard-response","417","548859","0.0-6.0-2.65","","<div style=""font-size:60px;"">+</div>","null","","","","","","",""
"819.2649999982677","","image-keyboard-response","418","549680","0.0-6.0-0.66","","img/red.png","32","trial","null","false","0.4,0.6","2:nogo_b","",""
"null","","html-keyboard-response","419","550685","0.0-6.0-1.66","","<img src=""img/red-n.png"" border=""10"">","null","trial","null","","0.4,0.6","2:nogo_b","0",""
"null","","html-keyboard-response","420","551686","0.0-6.0-2.66","","<div style=""font-size:60px;"">+</div>","null","","","","","","",""
"null","","image-keyboard-response","421","553189","0.0-6.0-0.67","","img/pink.png","null","trial","null","true","0.4,0.6","4:nogo_d","",""
"null","","html-keyboard-response","422","554193","0.0-6.0-1.67","","<img src=""img/pink-r.png"">","null","trial","null","","0.4,0.6","4:nogo_d","1",""
"null","","html-keyboard-response","423","555198","0.0-6.0-2.67","","<div style=""font-size:60px;"">+</div>","null","","","","","","",""
"808.9700000127777","","image-keyboard-response","424","556008","0.0-6.0-0.68","","img/yellow.png","32","trial","32","true","0.6,0.4","1:go_a","",""
"null","","html-keyboard-response","425","557009","0.0-6.0-1.68","","<img src=""img/yellow-r.png"" border=""10"">","null","trial","32","","0.6,0.4","1:go_a","1",""
"null","","html-keyboard-response","426","558011","0.0-6.0-2.68","","<div style=""font-size:60px;"">+</div>","null","","","","","","",""
"534.4199999817647","","image-keyboard-response","427","558546","0.0-6.0-0.69","","img/green.png","32","trial","32","true","0.6,0.4","3:go_c","",""
"null","","html-keyboard-response","428","559550","0.0-6.0-1.69","","<img src=""img/green-r.png"" border=""10"">","null","trial","32","","0.6,0.4","3:go_c","1",""
"null","","html-keyboard-response","429","560555","0.0-6.0-2.69","","<div style=""font-size:60px;"">+</div>","null","","","","","","",""
"null","","image-keyboard-response","430","562058","0.0-6.0-0.70","","img/pink.png","null","trial","null","true","0.4,0.6","4:nogo_d","",""
"null","","html-keyboard-response","431","563063","0.0-6.0-1.70","","<img src=""img/pink-r.png"">","null","trial","null","","0.4,0.6","4:nogo_d","1",""
"null","","html-keyboard-response","432","564064","0.0-6.0-2.70","","<div style=""font-size:60px;"">+</div>","null","","","","","","",""
"919.7299999941606","","image-keyboard-response","433","564985","0.0-6.0-0.71","","img/red.png","32","trial","null","false","0.4,0.6","2:nogo_b","",""
"null","","html-keyboard-response","434","565987","0.0-6.0-1.71","","<img src=""img/red-r.png"" border=""10"">","null","trial","null","","0.4,0.6","2:nogo_b","1",""
"null","","html-keyboard-response","435","566988","0.0-6.0-2.71","","<div style=""font-size:60px;"">+</div>","null","","","","","","",""
"null","","image-keyboard-response","436","568489","0.0-6.0-0.72","","img/pink.png","null","trial","null","true","0.4,0.6","4:nogo_d","",""
"null","","html-keyboard-response","437","569494","0.0-6.0-1.72","","<img src=""img/pink-r.png"">","null","trial","null","","0.4,0.6","4:nogo_d","1",""
"null","","html-keyboard-response","438","570494","0.0-6.0-2.72","","<div style=""font-size:60px;"">+</div>","null","","","","","","",""
"621.6450000065379","","image-keyboard-response","439","571116","0.0-6.0-0.73","","img/red.png","32","trial","null","false","0.4,0.6","2:nogo_b","",""
"null","","html-keyboard-response","440","572121","0.0-6.0-1.73","","<img src=""img/red-r.png"" border=""10"">","null","trial","null","","0.4,0.6","2:nogo_b","1",""
"null","","html-keyboard-response","441","573122","0.0-6.0-2.73","","<div style=""font-size:60px;"">+</div>","null","","","","","","",""
"704.2950000031851","","image-keyboard-response","442","573826","0.0-6.0-0.74","","img/green.png","32","trial","32","true","0.6,0.4","3:go_c","",""
"null","","html-keyboard-response","443","574832","0.0-6.0-1.74","","<img src=""img/green-n.png"" border=""10"">","null","trial","32","","0.6,0.4","3:go_c","0",""
"null","","html-keyboard-response","444","575835","0.0-6.0-2.74","","<div style=""font-size:60px;"">+</div>","null","","","","","","",""
"664.9650000035763","","image-keyboard-response","445","576500","0.0-6.0-0.75","","img/yellow.png","32","trial","32","true","0.6,0.4","1:go_a","",""
"null","","html-keyboard-response","446","577504","0.0-6.0-1.75","","<img src=""img/yellow-n.png"" border=""10"">","null","trial","32","","0.6,0.4","1:go_a","0",""
"null","","html-keyboard-response","447","578507","0.0-6.0-2.75","","<div style=""font-size:60px;"">+</div>","null","","","","","","",""
"640.9649999986868","","image-keyboard-response","448","579149","0.0-6.0-0.76","","img/red.png","32","trial","null","false","0.4,0.6","2:nogo_b","",""
"null","","html-keyboard-response","449","580150","0.0-6.0-1.76","","<img src=""img/red-r.png"" border=""10"">","null","trial","null","","0.4,0.6","2:nogo_b","1",""
"null","","html-keyboard-response","450","581152","0.0-6.0-2.76","","<div style=""font-size:60px;"">+</div>","null","","","","","","",""
"null","","image-keyboard-response","451","582656","0.0-6.0-0.77","","img/pink.png","null","trial","null","true","0.4,0.6","4:nogo_d","",""
"null","","html-keyboard-response","452","583660","0.0-6.0-1.77","","<img src=""img/pink-r.png"">","null","trial","null","","0.4,0.6","4:nogo_d","1",""
"null","","html-keyboard-response","453","584661","0.0-6.0-2.77","","<div style=""font-size:60px;"">+</div>","null","","","","","","",""
"895.9650000033434","","image-keyboard-response","454","585560","0.0-6.0-0.78","","img/yellow.png","32","trial","32","true","0.6,0.4","1:go_a","",""
"null","","html-keyboard-response","455","586564","0.0-6.0-1.78","","<img src=""img/yellow-r.png"" border=""10"">","null","trial","32","","0.6,0.4","1:go_a","1",""
"null","","html-keyboard-response","456","587566","0.0-6.0-2.78","","<div style=""font-size:60px;"">+</div>","null","","","","","","",""
"790.6899999943562","","image-keyboard-response","457","588357","0.0-6.0-0.79","","img/green.png","32","trial","32","true","0.6,0.4","3:go_c","",""
"null","","html-keyboard-response","458","589360","0.0-6.0-1.79","","<img src=""img/green-r.png"" border=""10"">","null","trial","32","","0.6,0.4","3:go_c","1",""
"null","","html-keyboard-response","459","590362","0.0-6.0-2.79","","<div style=""font-size:60px;"">+</div>","null","","","","","","",""
"null","","image-keyboard-response","460","591863","0.0-6.0-0.80","","img/pink.png","null","trial","null","true","0.4,0.6","4:nogo_d","",""
"null","","html-keyboard-response","461","592867","0.0-6.0-1.80","","<img src=""img/pink-n.png"">","null","trial","null","","0.4,0.6","4:nogo_d","0",""
"null","","html-keyboard-response","462","593871","0.0-6.0-2.80","","<div style=""font-size:60px;"">+</div>","null","","","","","","",""
"825.875000009546","","image-keyboard-response","463","594698","0.0-6.0-0.81","","img/yellow.png","32","trial","32","true","0.6,0.4","1:go_a","",""
"null","","html-keyboard-response","464","595699","0.0-6.0-1.81","","<img src=""img/yellow-n.png"" border=""10"">","null","trial","32","","0.6,0.4","1:go_a","0",""
"null","","html-keyboard-response","465","596700","0.0-6.0-2.81","","<div style=""font-size:60px;"">+</div>","null","","","","","","",""
"529.869999998482","","image-keyboard-response","466","597231","0.0-6.0-0.82","","img/green.png","32","trial","32","true","0.6,0.4","3:go_c","",""
"null","","html-keyboard-response","467","598233","0.0-6.0-1.82","","<img src=""img/green-n.png"" border=""10"">","null","trial","32","","0.6,0.4","3:go_c","0",""
"null","","html-keyboard-response","468","599237","0.0-6.0-2.82","","<div style=""font-size:60px;"">+</div>","null","","","","","","",""
"526.9400000106543","","image-keyboard-response","469","599764","0.0-6.0-0.83","","img/red.png","32","trial","null","false","0.4,0.6","2:nogo_b","",""
"null","","html-keyboard-response","470","600767","0.0-6.0-1.83","","<img src=""img/red-r.png"" border=""10"">","null","trial","null","","0.4,0.6","2:nogo_b","1",""
"null","","html-keyboard-response","471","601768","0.0-6.0-2.83","","<div style=""font-size:60px;"">+</div>","null","","","","","","",""
"473.1000000028871","","image-keyboard-response","472","602242","0.0-6.0-0.84","","img/green.png","32","trial","32","true","0.6,0.4","3:go_c","",""
"null","","html-keyboard-response","473","603249","0.0-6.0-1.84","","<img src=""img/green-r.png"" border=""10"">","null","trial","32","","0.6,0.4","3:go_c","1",""
"null","","html-keyboard-response","474","604253","0.0-6.0-2.84","","<div style=""font-size:60px;"">+</div>","null","","","","","","",""
"376.2750000169035","","image-keyboard-response","475","604630","0.0-6.0-0.85","","img/yellow.png","32","trial","32","true","0.6,0.4","1:go_a","",""
"null","","html-keyboard-response","476","605632","0.0-6.0-1.85","","<img src=""img/yellow-n.png"" border=""10"">","null","trial","32","","0.6,0.4","1:go_a","0",""
"null","","html-keyboard-response","477","606634","0.0-6.0-2.85","","<div style=""font-size:60px;"">+</div>","null","","","","","","",""
"627.150000014808","","image-keyboard-response","478","607261","0.0-6.0-0.86","","img/red.png","32","trial","null","false","0.4,0.6","2:nogo_b","",""
"null","","html-keyboard-response","479","608266","0.0-6.0-1.86","","<img src=""img/red-r.png"" border=""10"">","null","trial","null","","0.4,0.6","2:nogo_b","1",""
"null","","html-keyboard-response","480","609271","0.0-6.0-2.86","","<div style=""font-size:60px;"">+</div>","null","","","","","","",""
"null","","image-keyboard-response","481","610772","0.0-6.0-0.87","","img/pink.png","null","trial","null","true","0.4,0.6","4:nogo_d","",""
"null","","html-keyboard-response","482","611777","0.0-6.0-1.87","","<img src=""img/pink-r.png"">","null","trial","null","","0.4,0.6","4:nogo_d","1",""
"null","","html-keyboard-response","483","612778","0.0-6.0-2.87","","<div style=""font-size:60px;"">+</div>","null","","","","","","",""
"null","","image-keyboard-response","484","614282","0.0-6.0-0.88","","img/yellow.png","null","trial","32","false","0.6,0.4","1:go_a","",""
"null","","html-keyboard-response","485","615286","0.0-6.0-1.88","","<img src=""img/yellow-r.png"">","null","trial","32","","0.6,0.4","1:go_a","1",""
"null","","html-keyboard-response","486","616287","0.0-6.0-2.88","","<div style=""font-size:60px;"">+</div>","null","","","","","","",""
"508.24500000453554","","image-keyboard-response","487","616796","0.0-6.0-0.89","","img/red.png","32","trial","null","false","0.4,0.6","2:nogo_b","",""
"null","","html-keyboard-response","488","617799","0.0-6.0-1.89","","<img src=""img/red-n.png"" border=""10"">","null","trial","null","","0.4,0.6","2:nogo_b","0",""
"null","","html-keyboard-response","489","618804","0.0-6.0-2.89","","<div style=""font-size:60px;"">+</div>","null","","","","","","",""
"534.7849999961909","","image-keyboard-response","490","619340","0.0-6.0-0.90","","img/green.png","32","trial","32","true","0.6,0.4","3:go_c","",""
"null","","html-keyboard-response","491","620342","0.0-6.0-1.90","","<img src=""img/green-r.png"" border=""10"">","null","trial","32","","0.6,0.4","3:go_c","1",""
"null","","html-keyboard-response","492","621343","0.0-6.0-2.90","","<div style=""font-size:60px;"">+</div>","null","","","","","","",""
"null","","image-keyboard-response","493","622844","0.0-6.0-0.91","","img/pink.png","null","trial","null","true","0.4,0.6","4:nogo_d","",""
"null","","html-keyboard-response","494","623849","0.0-6.0-1.91","","<img src=""img/pink-n.png"">","null","trial","null","","0.4,0.6","4:nogo_d","0",""
"null","","html-keyboard-response","495","624850","0.0-6.0-2.91","","<div style=""font-size:60px;"">+</div>","null","","","","","","",""
"477.0600000047125","","image-keyboard-response","496","625328","0.0-6.0-0.92","","img/red.png","32","trial","null","false","0.4,0.6","2:nogo_b","",""
"null","","html-keyboard-response","497","626333","0.0-6.0-1.92","","<img src=""img/red-n.png"" border=""10"">","null","trial","null","","0.4,0.6","2:nogo_b","0",""
"null","","html-keyboard-response","498","627338","0.0-6.0-2.92","","<div style=""font-size:60px;"">+</div>","null","","","","","","",""
"null","","image-keyboard-response","499","628842","0.0-6.0-0.93","","img/yellow.png","null","trial","32","false","0.6,0.4","1:go_a","",""
"null","","html-keyboard-response","500","629843","0.0-6.0-1.93","","<img src=""img/yellow-n.png"">","null","trial","32","","0.6,0.4","1:go_a","0",""
"null","","html-keyboard-response","501","630848","0.0-6.0-2.93","","<div style=""font-size:60px;"">+</div>","null","","","","","","",""
"433.64499998278916","","image-keyboard-response","502","631283","0.0-6.0-0.94","","img/green.png","32","trial","32","true","0.6,0.4","3:go_c","",""
"null","","html-keyboard-response","503","632287","0.0-6.0-1.94","","<img src=""img/green-r.png"" border=""10"">","null","trial","32","","0.6,0.4","3:go_c","1",""
"null","","html-keyboard-response","504","633289","0.0-6.0-2.94","","<div style=""font-size:60px;"">+</div>","null","","","","","","",""
"null","","image-keyboard-response","505","634791","0.0-6.0-0.95","","img/pink.png","null","trial","null","true","0.4,0.6","4:nogo_d","",""
"null","","html-keyboard-response","506","635793","0.0-6.0-1.95","","<img src=""img/pink-r.png"">","null","trial","null","","0.4,0.6","4:nogo_d","1",""
"null","","html-keyboard-response","507","636795","0.0-6.0-2.95","","<div style=""font-size:60px;"">+</div>","null","","","","","","",""
"763.2549999980256","","image-keyboard-response","508","637560","0.0-6.0-0.96","","img/red.png","32","trial","null","false","0.4,0.6","2:nogo_b","",""
"null","","html-keyboard-response","509","638565","0.0-6.0-1.96","","<img src=""img/red-n.png"" border=""10"">","null","trial","null","","0.4,0.6","2:nogo_b","0",""
"null","","html-keyboard-response","510","639569","0.0-6.0-2.96","","<div style=""font-size:60px;"">+</div>","null","","","","","","",""
"502.6649999781512","","image-keyboard-response","511","640073","0.0-6.0-0.97","","img/green.png","32","trial","32","true","0.6,0.4","3:go_c","",""
"null","","html-keyboard-response","512","641074","0.0-6.0-1.97","","<img src=""img/green-n.png"" border=""10"">","null","trial","32","","0.6,0.4","3:go_c","0",""
"null","","html-keyboard-response","513","642074","0.0-6.0-2.97","","<div style=""font-size:60px;"">+</div>","null","","","","","","",""
"null","","image-keyboard-response","514","643578","0.0-6.0-0.98","","img/pink.png","null","trial","null","true","0.4,0.6","4:nogo_d","",""
"null","","html-keyboard-response","515","644580","0.0-6.0-1.98","","<img src=""img/pink-r.png"">","null","trial","null","","0.4,0.6","4:nogo_d","1",""
"null","","html-keyboard-response","516","645583","0.0-6.0-2.98","","<div style=""font-size:60px;"">+</div>","null","","","","","","",""
"929.7000000078697","","image-keyboard-response","517","646513","0.0-6.0-0.99","","img/yellow.png","32","trial","32","true","0.6,0.4","1:go_a","",""
"null","","html-keyboard-response","518","647514","0.0-6.0-1.99","","<img src=""img/yellow-r.png"" border=""10"">","null","trial","32","","0.6,0.4","1:go_a","1",""
"null","","html-keyboard-response","519","648520","0.0-6.0-2.99","","<div style=""font-size:60px;"">+</div>","null","","","","","","",""
"null","","image-keyboard-response","520","650024","0.0-6.0-0.100","","img/pink.png","null","trial","null","true","0.4,0.6","4:nogo_d","",""
"null","","html-keyboard-response","521","651029","0.0-6.0-1.100","","<img src=""img/pink-r.png"">","null","trial","null","","0.4,0.6","4:nogo_d","1",""
"null","","html-keyboard-response","522","652032","0.0-6.0-2.100","","<div style=""font-size:60px;"">+</div>","null","","","","","","",""
"860.2799999935087","","image-keyboard-response","523","652893","0.0-6.0-0.101","","img/red.png","32","trial","null","false","0.4,0.6","2:nogo_b","",""
"null","","html-keyboard-response","524","653899","0.0-6.0-1.101","","<img src=""img/red-r.png"" border=""10"">","null","trial","null","","0.4,0.6","2:nogo_b","1",""
"null","","html-keyboard-response","525","654900","0.0-6.0-2.101","","<div style=""font-size:60px;"">+</div>","null","","","","","","",""
"763.2349999912549","","image-keyboard-response","526","655664","0.0-6.0-0.102","","img/green.png","32","trial","32","true","0.6,0.4","3:go_c","",""
"null","","html-keyboard-response","527","656665","0.0-6.0-1.102","","<img src=""img/green-r.png"" border=""10"">","null","trial","32","","0.6,0.4","3:go_c","1",""
"null","","html-keyboard-response","528","657670","0.0-6.0-2.102","","<div style=""font-size:60px;"">+</div>","null","","","","","","",""
"null","","image-keyboard-response","529","659173","0.0-6.0-0.103","","img/yellow.png","null","trial","32","false","0.6,0.4","1:go_a","",""
"null","","html-keyboard-response","530","660177","0.0-6.0-1.103","","<img src=""img/yellow-r.png"">","null","trial","32","","0.6,0.4","1:go_a","1",""
"null","","html-keyboard-response","531","661178","0.0-6.0-2.103","","<div style=""font-size:60px;"">+</div>","null","","","","","","",""
"964.574999990873","","image-keyboard-response","532","662143","0.0-6.0-0.104","","img/yellow.png","32","trial","32","true","0.6,0.4","1:go_a","",""
"null","","html-keyboard-response","533","663145","0.0-6.0-1.104","","<img src=""img/yellow-r.png"" border=""10"">","null","trial","32","","0.6,0.4","1:go_a","1",""
"null","","html-keyboard-response","534","664146","0.0-6.0-2.104","","<div style=""font-size:60px;"">+</div>","null","","","","","","",""
"749.2700000002515","","image-keyboard-response","535","664896","0.0-6.0-0.105","","img/red.png","32","trial","null","false","0.4,0.6","2:nogo_b","",""
"null","","html-keyboard-response","536","665907","0.0-6.0-1.105","","<img src=""img/red-r.png"" border=""10"">","null","trial","null","","0.4,0.6","2:nogo_b","1",""
"null","","html-keyboard-response","537","666908","0.0-6.0-2.105","","<div style=""font-size:60px;"">+</div>","null","","","","","","",""
"null","","image-keyboard-response","538","668409","0.0-6.0-0.106","","img/pink.png","null","trial","null","true","0.4,0.6","4:nogo_d","",""
"null","","html-keyboard-response","539","669412","0.0-6.0-1.106","","<img src=""img/pink-r.png"">","null","trial","null","","0.4,0.6","4:nogo_d","1",""
"null","","html-keyboard-response","540","670416","0.0-6.0-2.106","","<div style=""font-size:60px;"">+</div>","null","","","","","","",""
"753.8449999992736","","image-keyboard-response","541","671171","0.0-6.0-0.107","","img/green.png","32","trial","32","true","0.6,0.4","3:go_c","",""
"null","","html-keyboard-response","542","672174","0.0-6.0-1.107","","<img src=""img/green-r.png"" border=""10"">","null","trial","32","","0.6,0.4","3:go_c","1",""
"null","","html-keyboard-response","543","673176","0.0-6.0-2.107","","<div style=""font-size:60px;"">+</div>","null","","","","","","",""
"785.7549999898765","","image-keyboard-response","544","673963","0.0-6.0-0.108","","img/red.png","32","trial","null","false","0.4,0.6","2:nogo_b","",""
"null","","html-keyboard-response","545","674964","0.0-6.0-1.108","","<img src=""img/red-n.png"" border=""10"">","null","trial","null","","0.4,0.6","2:nogo_b","0",""
"null","","html-keyboard-response","546","675973","0.0-6.0-2.108","","<div style=""font-size:60px;"">+</div>","null","","","","","","",""
"911.885000008624","","image-keyboard-response","547","676885","0.0-6.0-0.109","","img/yellow.png","32","trial","32","true","0.6,0.4","1:go_a","",""
"null","","html-keyboard-response","548","677887","0.0-6.0-1.109","","<img src=""img/yellow-r.png"" border=""10"">","null","trial","32","","0.6,0.4","1:go_a","1",""
"null","","html-keyboard-response","549","678891","0.0-6.0-2.109","","<div style=""font-size:60px;"">+</div>","null","","","","","","",""
"null","","image-keyboard-response","550","680393","0.0-6.0-0.110","","img/pink.png","null","trial","null","true","0.4,0.6","4:nogo_d","",""
"null","","html-keyboard-response","551","681395","0.0-6.0-1.110","","<img src=""img/pink-r.png"">","null","trial","null","","0.4,0.6","4:nogo_d","1",""
"null","","html-keyboard-response","552","682399","0.0-6.0-2.110","","<div style=""font-size:60px;"">+</div>","null","","","","","","",""
"643.6749999993481","","image-keyboard-response","553","683044","0.0-6.0-0.111","","img/green.png","32","trial","32","true","0.6,0.4","3:go_c","",""
"null","","html-keyboard-response","554","684049","0.0-6.0-1.111","","<img src=""img/green-n.png"" border=""10"">","null","trial","32","","0.6,0.4","3:go_c","0",""
"null","","html-keyboard-response","555","685050","0.0-6.0-2.111","","<div style=""font-size:60px;"">+</div>","null","","","","","","",""
"1123.77999999444","","image-keyboard-response","556","686174","0.0-6.0-0.112","","img/red.png","32","trial","null","false","0.4,0.6","2:nogo_b","",""
"null","","html-keyboard-response","557","687178","0.0-6.0-1.112","","<img src=""img/red-n.png"" border=""10"">","null","trial","null","","0.4,0.6","2:nogo_b","0",""
"null","","html-keyboard-response","558","688180","0.0-6.0-2.112","","<div style=""font-size:60px;"">+</div>","null","","","","","","",""
"null","","image-keyboard-response","559","689683","0.0-6.0-0.113","","img/pink.png","null","trial","null","true","0.4,0.6","4:nogo_d","",""
"null","","html-keyboard-response","560","690688","0.0-6.0-1.113","","<img src=""img/pink-n.png"">","null","trial","null","","0.4,0.6","4:nogo_d","0",""
"null","","html-keyboard-response","561","691688","0.0-6.0-2.113","","<div style=""font-size:60px;"">+</div>","null","","","","","","",""
"553.1199999968521","","image-keyboard-response","562","692242","0.0-6.0-0.114","","img/green.png","32","trial","32","true","0.6,0.4","3:go_c","",""
"null","","html-keyboard-response","563","693245","0.0-6.0-1.114","","<img src=""img/green-r.png"" border=""10"">","null","trial","32","","0.6,0.4","3:go_c","1",""
"null","","html-keyboard-response","564","694249","0.0-6.0-2.114","","<div style=""font-size:60px;"">+</div>","null","","","","","","",""
"894.3499999877531","","image-keyboard-response","565","695144","0.0-6.0-0.115","","img/yellow.png","32","trial","32","true","0.6,0.4","1:go_a","",""
"null","","html-keyboard-response","566","696146","0.0-6.0-1.115","","<img src=""img/yellow-n.png"" border=""10"">","null","trial","32","","0.6,0.4","1:go_a","0",""
"null","","html-keyboard-response","567","697147","0.0-6.0-2.115","","<div style=""font-size:60px;"">+</div>","null","","","","","","",""
"725.7250000257045","","image-keyboard-response","568","697873","0.0-6.0-0.116","","img/yellow.png","32","trial","32","true","0.6,0.4","1:go_a","",""
"null","","html-keyboard-response","569","698879","0.0-6.0-1.116","","<img src=""img/yellow-r.png"" border=""10"">","null","trial","32","","0.6,0.4","1:go_a","1",""
"null","","html-keyboard-response","570","699879","0.0-6.0-2.116","","<div style=""font-size:60px;"">+</div>","null","","","","","","",""
"618.9350000058766","","image-keyboard-response","571","700499","0.0-6.0-0.117","","img/red.png","32","trial","null","false","0.4,0.6","2:nogo_b","",""
"null","","html-keyboard-response","572","701503","0.0-6.0-1.117","","<img src=""img/red-n.png"" border=""10"">","null","trial","null","","0.4,0.6","2:nogo_b","0",""
"null","","html-keyboard-response","573","702506","0.0-6.0-2.117","","<div style=""font-size:60px;"">+</div>","null","","","","","","",""
"510.2049999986775","","image-keyboard-response","574","703017","0.0-6.0-0.118","","img/green.png","32","trial","32","true","0.6,0.4","3:go_c","",""
"null","","html-keyboard-response","575","704019","0.0-6.0-1.118","","<img src=""img/green-r.png"" border=""10"">","null","trial","32","","0.6,0.4","3:go_c","1",""
"null","","html-keyboard-response","576","705021","0.0-6.0-2.118","","<div style=""font-size:60px;"">+</div>","null","","","","","","",""
"null","","image-keyboard-response","577","706524","0.0-6.0-0.119","","img/pink.png","null","trial","null","true","0.4,0.6","4:nogo_d","",""
"null","","html-keyboard-response","578","707527","0.0-6.0-1.119","","<img src=""img/pink-n.png"">","null","trial","null","","0.4,0.6","4:nogo_d","0",""
"null","","html-keyboard-response","579","708533","0.0-6.0-2.119","","<div style=""font-size:60px;"">+</div>","null","","","","","","",""
"5874.620000016876","","instructions","580","714409","0.0-7.0","[{""page_index"":0,""viewing_time"":5874.27500000922}]","","","","","","","","",""
"907.5149999989662","","image-keyboard-response","581","715318","0.0-8.0-0.0","","img/green.png","32","trial","null","false","0.4,0.6","4:nogo_d","",""
"null","","html-keyboard-response","582","716320","0.0-8.0-1.0","","<img src=""img/green-n.png"" border=""10"">","null","trial","null","","0.4,0.6","4:nogo_d","0",""
"null","","html-keyboard-response","583","717326","0.0-8.0-2.0","","<div style=""font-size:60px;"">+</div>","null","","","","","","",""
"571.2499999790452","","image-keyboard-response","584","717899","0.0-8.0-0.1","","img/grey.png","32","trial","null","false","0.2,0.8","2:nogo_b","",""
"null","","html-keyboard-response","585","718905","0.0-8.0-1.1","","<img src=""img/grey-n.png"" border=""10"">","null","trial","null","","0.2,0.8","2:nogo_b","0",""
"null","","html-keyboard-response","586","719906","0.0-8.0-2.1","","<div style=""font-size:60px;"">+</div>","null","","","","","","",""
"502.34000000637025","","image-keyboard-response","587","720409","0.0-8.0-0.2","","img/orange.png","32","trial","32","true","0.6,0.4","3:go_c","",""
"null","","html-keyboard-response","588","721411","0.0-8.0-1.2","","<img src=""img/orange-n.png"" border=""10"">","null","trial","32","","0.6,0.4","3:go_c","0",""
"null","","html-keyboard-response","589","722413","0.0-8.0-2.2","","<div style=""font-size:60px;"">+</div>","null","","","","","","",""
"438.1099999882281","","image-keyboard-response","590","722852","0.0-8.0-0.3","","img/blue.png","32","trial","32","true","0.8,0.2","1:go_a","",""
"null","","html-keyboard-response","591","723854","0.0-8.0-1.3","","<img src=""img/blue-r.png"" border=""10"">","null","trial","32","","0.8,0.2","1:go_a","1",""
"null","","html-keyboard-response","592","724856","0.0-8.0-2.3","","<div style=""font-size:60px;"">+</div>","null","","","","","","",""
"709.9450000096112","","image-keyboard-response","593","725567","0.0-8.0-0.4","","img/blue.png","32","trial","32","true","0.8,0.2","1:go_a","",""
"null","","html-keyboard-response","594","726571","0.0-8.0-1.4","","<img src=""img/blue-r.png"" border=""10"">","null","trial","32","","0.8,0.2","1:go_a","1",""
"null","","html-keyboard-response","595","727573","0.0-8.0-2.4","","<div style=""font-size:60px;"">+</div>","null","","","","","","",""
"917.3000000009779","","image-keyboard-response","596","728491","0.0-8.0-0.5","","img/grey.png","32","trial","null","false","0.2,0.8","2:nogo_b","",""
"null","","html-keyboard-response","597","729492","0.0-8.0-1.5","","<img src=""img/grey-n.png"" border=""10"">","null","trial","null","","0.2,0.8","2:nogo_b","0",""
"null","","html-keyboard-response","598","730493","0.0-8.0-2.5","","<div style=""font-size:60px;"">+</div>","null","","","","","","",""
"516.5250000136439","","image-keyboard-response","599","731010","0.0-8.0-0.6","","img/green.png","32","trial","null","false","0.4,0.6","4:nogo_d","",""
"null","","html-keyboard-response","600","732012","0.0-8.0-1.6","","<img src=""img/green-r.png"" border=""10"">","null","trial","null","","0.4,0.6","4:nogo_d","1",""
"null","","html-keyboard-response","601","733013","0.0-8.0-2.6","","<div style=""font-size:60px;"">+</div>","null","","","","","","",""
"695.4749999858905","","image-keyboard-response","602","733710","0.0-8.0-0.7","","img/orange.png","32","trial","32","true","0.6,0.4","3:go_c","",""
"null","","html-keyboard-response","603","734711","0.0-8.0-1.7","","<img src=""img/orange-r.png"" border=""10"">","null","trial","32","","0.6,0.4","3:go_c","1",""
"null","","html-keyboard-response","604","735715","0.0-8.0-2.7","","<div style=""font-size:60px;"">+</div>","null","","","","","","",""
"538.9950000098906","","image-keyboard-response","605","736255","0.0-8.0-0.8","","img/blue.png","32","trial","32","true","0.8,0.2","1:go_a","",""
"null","","html-keyboard-response","606","737260","0.0-8.0-1.8","","<img src=""img/blue-n.png"" border=""10"">","null","trial","32","","0.8,0.2","1:go_a","0",""
"null","","html-keyboard-response","607","738263","0.0-8.0-2.8","","<div style=""font-size:60px;"">+</div>","null","","","","","","",""
"null","","image-keyboard-response","608","739772","0.0-8.0-0.9","","img/grey.png","null","trial","null","true","0.2,0.8","2:nogo_b","",""
"null","","html-keyboard-response","609","740777","0.0-8.0-1.9","","<img src=""img/grey-r.png"">","null","trial","null","","0.2,0.8","2:nogo_b","1",""
"null","","html-keyboard-response","610","741778","0.0-8.0-2.9","","<div style=""font-size:60px;"">+</div>","null","","","","","","",""
"674.4849999959115","","image-keyboard-response","611","742453","0.0-8.0-0.10","","img/orange.png","32","trial","32","true","0.6,0.4","3:go_c","",""
"null","","html-keyboard-response","612","743457","0.0-8.0-1.10","","<img src=""img/orange-r.png"" border=""10"">","null","trial","32","","0.6,0.4","3:go_c","1",""
"null","","html-keyboard-response","613","744458","0.0-8.0-2.10","","<div style=""font-size:60px;"">+</div>","null","","","","","","",""
"435.02500001341105","","image-keyboard-response","614","744894","0.0-8.0-0.11","","img/green.png","32","trial","null","false","0.4,0.6","4:nogo_d","",""
"null","","html-keyboard-response","615","745899","0.0-8.0-1.11","","<img src=""img/green-r.png"" border=""10"">","null","trial","null","","0.4,0.6","4:nogo_d","1",""
"null","","html-keyboard-response","616","746904","0.0-8.0-2.11","","<div style=""font-size:60px;"">+</div>","null","","","","","","",""
"573.7350000126753","","image-keyboard-response","617","747479","0.0-8.0-0.12","","img/green.png","32","trial","null","false","0.4,0.6","4:nogo_d","",""
"null","","html-keyboard-response","618","748480","0.0-8.0-1.12","","<img src=""img/green-n.png"" border=""10"">","null","trial","null","","0.4,0.6","4:nogo_d","0",""
"null","","html-keyboard-response","619","749482","0.0-8.0-2.12","","<div style=""font-size:60px;"">+</div>","null","","","","","","",""
"387.0849999948405","","image-keyboard-response","620","749869","0.0-8.0-0.13","","img/blue.png","32","trial","32","true","0.8,0.2","1:go_a","",""
"null","","html-keyboard-response","621","750875","0.0-8.0-1.13","","<img src=""img/blue-r.png"" border=""10"">","null","trial","32","","0.8,0.2","1:go_a","1",""
"null","","html-keyboard-response","622","751879","0.0-8.0-2.13","","<div style=""font-size:60px;"">+</div>","null","","","","","","",""
"null","","image-keyboard-response","623","753380","0.0-8.0-0.14","","img/grey.png","null","trial","null","true","0.2,0.8","2:nogo_b","",""
"null","","html-keyboard-response","624","754381","0.0-8.0-1.14","","<img src=""img/grey-n.png"">","null","trial","null","","0.2,0.8","2:nogo_b","0",""
"null","","html-keyboard-response","625","755383","0.0-8.0-2.14","","<div style=""font-size:60px;"">+</div>","null","","","","","","",""
"726.7100000171922","","image-keyboard-response","626","756111","0.0-8.0-0.15","","img/orange.png","32","trial","32","true","0.6,0.4","3:go_c","",""
"null","","html-keyboard-response","627","757116","0.0-8.0-1.15","","<img src=""img/orange-n.png"" border=""10"">","null","trial","32","","0.6,0.4","3:go_c","0",""
"null","","html-keyboard-response","628","758121","0.0-8.0-2.15","","<div style=""font-size:60px;"">+</div>","null","","","","","","",""
"null","","image-keyboard-response","629","759623","0.0-8.0-0.16","","img/grey.png","null","trial","null","true","0.2,0.8","2:nogo_b","",""
"null","","html-keyboard-response","630","760627","0.0-8.0-1.16","","<img src=""img/grey-r.png"">","null","trial","null","","0.2,0.8","2:nogo_b","1",""
"null","","html-keyboard-response","631","761628","0.0-8.0-2.16","","<div style=""font-size:60px;"">+</div>","null","","","","","","",""
"629.5150000078138","","image-keyboard-response","632","762258","0.0-8.0-0.17","","img/blue.png","32","trial","32","true","0.8,0.2","1:go_a","",""
"null","","html-keyboard-response","633","763265","0.0-8.0-1.17","","<img src=""img/blue-r.png"" border=""10"">","null","trial","32","","0.8,0.2","1:go_a","1",""
"null","","html-keyboard-response","634","764271","0.0-8.0-2.17","","<div style=""font-size:60px;"">+</div>","null","","","","","","",""
"777.5249999831431","","image-keyboard-response","635","765050","0.0-8.0-0.18","","img/orange.png","32","trial","32","true","0.6,0.4","3:go_c","",""
"null","","html-keyboard-response","636","766053","0.0-8.0-1.18","","<img src=""img/orange-r.png"" border=""10"">","null","trial","32","","0.6,0.4","3:go_c","1",""
"null","","html-keyboard-response","637","767054","0.0-8.0-2.18","","<div style=""font-size:60px;"">+</div>","null","","","","","","",""
"640.9550000098534","","image-keyboard-response","638","767696","0.0-8.0-0.19","","img/green.png","32","trial","null","false","0.4,0.6","4:nogo_d","",""
"null","","html-keyboard-response","639","768699","0.0-8.0-1.19","","<img src=""img/green-n.png"" border=""10"">","null","trial","null","","0.4,0.6","4:nogo_d","0",""
"null","","html-keyboard-response","640","769702","0.0-8.0-2.19","","<div style=""font-size:60px;"">+</div>","null","","","","","","",""
"584.2699999921024","","image-keyboard-response","641","770287","0.0-8.0-0.20","","img/green.png","32","trial","null","false","0.4,0.6","4:nogo_d","",""
"null","","html-keyboard-response","642","771288","0.0-8.0-1.20","","<img src=""img/green-r.png"" border=""10"">","null","trial","null","","0.4,0.6","4:nogo_d","1",""
"null","","html-keyboard-response","643","772291","0.0-8.0-2.20","","<div style=""font-size:60px;"">+</div>","null","","","","","","",""
"null","","image-keyboard-response","644","773794","0.0-8.0-0.21","","img/grey.png","null","trial","null","true","0.2,0.8","2:nogo_b","",""
"null","","html-keyboard-response","645","774798","0.0-8.0-1.21","","<img src=""img/grey-r.png"">","null","trial","null","","0.2,0.8","2:nogo_b","1",""
"null","","html-keyboard-response","646","775800","0.0-8.0-2.21","","<div style=""font-size:60px;"">+</div>","null","","","","","","",""
"370.49000000115484","","image-keyboard-response","647","776171","0.0-8.0-0.22","","img/blue.png","32","trial","32","true","0.8,0.2","1:go_a","",""
"null","","html-keyboard-response","648","777177","0.0-8.0-1.22","","<img src=""img/blue-n.png"" border=""10"">","null","trial","32","","0.8,0.2","1:go_a","0",""
"null","","html-keyboard-response","649","778178","0.0-8.0-2.22","","<div style=""font-size:60px;"">+</div>","null","","","","","","",""
"744.5750000188127","","image-keyboard-response","650","778923","0.0-8.0-0.23","","img/orange.png","32","trial","32","true","0.6,0.4","3:go_c","",""
"null","","html-keyboard-response","651","779928","0.0-8.0-1.23","","<img src=""img/orange-r.png"" border=""10"">","null","trial","32","","0.6,0.4","3:go_c","1",""
"null","","html-keyboard-response","652","780934","0.0-8.0-2.23","","<div style=""font-size:60px;"">+</div>","null","","","","","","",""
"587.8450000018347","","image-keyboard-response","653","781523","0.0-8.0-0.24","","img/blue.png","32","trial","32","true","0.8,0.2","1:go_a","",""
"null","","html-keyboard-response","654","782525","0.0-8.0-1.24","","<img src=""img/blue-r.png"" border=""10"">","null","trial","32","","0.8,0.2","1:go_a","1",""
"null","","html-keyboard-response","655","783526","0.0-8.0-2.24","","<div style=""font-size:60px;"">+</div>","null","","","","","","",""
"null","","image-keyboard-response","656","785031","0.0-8.0-0.25","","img/grey.png","null","trial","null","true","0.2,0.8","2:nogo_b","",""
"null","","html-keyboard-response","657","786033","0.0-8.0-1.25","","<img src=""img/grey-n.png"">","null","trial","null","","0.2,0.8","2:nogo_b","0",""
"null","","html-keyboard-response","658","787034","0.0-8.0-2.25","","<div style=""font-size:60px;"">+</div>","null","","","","","","",""
"770.1349999988452","","image-keyboard-response","659","787805","0.0-8.0-0.26","","img/green.png","32","trial","null","false","0.4,0.6","4:nogo_d","",""
"null","","html-keyboard-response","660","788808","0.0-8.0-1.26","","<img src=""img/green-r.png"" border=""10"">","null","trial","null","","0.4,0.6","4:nogo_d","1",""
"null","","html-keyboard-response","661","789811","0.0-8.0-2.26","","<div style=""font-size:60px;"">+</div>","null","","","","","","",""
"472.9200000001583","","image-keyboard-response","662","790284","0.0-8.0-0.27","","img/orange.png","32","trial","32","true","0.6,0.4","3:go_c","",""
"null","","html-keyboard-response","663","791288","0.0-8.0-1.27","","<img src=""img/orange-r.png"" border=""10"">","null","trial","32","","0.6,0.4","3:go_c","1",""
"null","","html-keyboard-response","664","792292","0.0-8.0-2.27","","<div style=""font-size:60px;"">+</div>","null","","","","","","",""
"null","","image-keyboard-response","665","793793","0.0-8.0-0.28","","img/green.png","null","trial","null","true","0.4,0.6","4:nogo_d","",""
"null","","html-keyboard-response","666","794795","0.0-8.0-1.28","","<img src=""img/green-n.png"">","null","trial","null","","0.4,0.6","4:nogo_d","0",""
"null","","html-keyboard-response","667","795796","0.0-8.0-2.28","","<div style=""font-size:60px;"">+</div>","null","","","","","","",""
"587.4199999962002","","image-keyboard-response","668","796384","0.0-8.0-0.29","","img/orange.png","32","trial","32","true","0.6,0.4","3:go_c","",""
"null","","html-keyboard-response","669","797385","0.0-8.0-1.29","","<img src=""img/orange-r.png"" border=""10"">","null","trial","32","","0.6,0.4","3:go_c","1",""
"null","","html-keyboard-response","670","798386","0.0-8.0-2.29","","<div style=""font-size:60px;"">+</div>","null","","","","","","",""
"389.7549999819603","","image-keyboard-response","671","798776","0.0-8.0-0.30","","img/blue.png","32","trial","32","true","0.8,0.2","1:go_a","",""
"null","","html-keyboard-response","672","799780","0.0-8.0-1.30","","<img src=""img/blue-r.png"" border=""10"">","null","trial","32","","0.8,0.2","1:go_a","1",""
"null","","html-keyboard-response","673","800782","0.0-8.0-2.30","","<div style=""font-size:60px;"">+</div>","null","","","","","","",""
"null","","image-keyboard-response","674","802286","0.0-8.0-0.31","","img/grey.png","null","trial","null","true","0.2,0.8","2:nogo_b","",""
"null","","html-keyboard-response","675","803287","0.0-8.0-1.31","","<img src=""img/grey-n.png"">","null","trial","null","","0.2,0.8","2:nogo_b","0",""
"null","","html-keyboard-response","676","804293","0.0-8.0-2.31","","<div style=""font-size:60px;"">+</div>","null","","","","","","",""
"null","","image-keyboard-response","677","805797","0.0-8.0-0.32","","img/grey.png","null","trial","null","true","0.2,0.8","2:nogo_b","",""
"null","","html-keyboard-response","678","806805","0.0-8.0-1.32","","<img src=""img/grey-r.png"">","null","trial","null","","0.2,0.8","2:nogo_b","1",""
