"rt","url","trial_type","trial_index","time_elapsed","internal_node_id","view_history","stimulus","key_press","test_part","correct_response","correct","use_rew","which_stim","reward","responses"
"4062.9350000526756","consent.html","external-html","0","4393","0.0-0.0","","","","","","","","","",""
"121979.50499993749","","instructions","1","126374","0.0-1.0","[{""page_index"":0,""viewing_time"":4690.799999982119},{""page_index"":1,""viewing_time"":46215.624999953434},{""page_index"":2,""viewing_time"":5937.05500010401},{""page_index"":3,""viewing_time"":13627.020000014454},{""page_index"":4,""viewing_time"":19811.770000029355},{""page_index"":5,""viewing_time"":6166.014999849722},{""page_index"":6,""viewing_time"":25530.090000014752}]","","","","","","","","",""
"424.3000000715256","","image-keyboard-response","2","126802","0.0-2.0-0.0","","img/test3.PNG","32","practice","null","false","","","",""
"null","","html-keyboard-response","3","127806","0.0-2.0-1.0","","<img src=""img/test3-neutral.PNG"" border=""10px; grey"">","null","","","","","","",""
"null","","html-keyboard-response","4","128807","0.0-2.0-2.0","","<div style=""font-size:60px;"">+</div>","null","","","","","","",""
"null","","image-keyboard-response","5","130309","0.0-2.0-0.1","","img/test2.PNG","null","practice","null","true","","","",""
"null","","html-keyboard-response","6","131309","0.0-2.0-1.1","","<img src=""img/test2-reward.PNG"">","null","","","","","","",""
"null","","html-keyboard-response","7","132311","0.0-2.0-2.1","","<div style=""font-size:60px;"">+</div>","null","","","","","","",""
"null","","image-keyboard-response","8","133812","0.0-2.0-0.2","","img/test1.PNG","null","practice","32","false","","","",""
"null","","html-keyboard-response","9","134814","0.0-2.0-1.2","","<img src=""img/test1-neutral.PNG"">","null","","","","","","",""
"null","","html-keyboard-response","10","135816","0.0-2.0-2.2","","<div style=""font-size:60px;"">+</div>","null","","","","","","",""
"457.0450000464916","","image-keyboard-response","11","136274","0.0-2.0-0.3","","img/test1.PNG","32","practice","32","true","","","",""
"null","","html-keyboard-response","12","137275","0.0-2.0-1.3","","<img src=""img/test1-reward.PNG"" border=""10px; grey"">","null","","","","","","",""
"null","","html-keyboard-response","13","138276","0.0-2.0-2.3","","<div style=""font-size:60px;"">+</div>","null","","","","","","",""
"null","","image-keyboard-response","14","139778","0.0-2.0-0.4","","img/test3.PNG","null","practice","null","true","","","",""
"null","","html-keyboard-response","15","140779","0.0-2.0-1.4","","<img src=""img/test3-reward.PNG"">","null","","","","","","",""
"null","","html-keyboard-response","16","141780","0.0-2.0-2.4","","<div style=""font-size:60px;"">+</div>","null","","","","","","",""
"null","","image-keyboard-response","17","143281","0.0-2.0-0.5","","img/test2.PNG","null","practice","null","true","","","",""
"null","","html-keyboard-response","18","144283","0.0-2.0-1.5","","<img src=""img/test2-reward.PNG"">","null","","","","","","",""
"null","","html-keyboard-response","19","145283","0.0-2.0-2.5","","<div style=""font-size:60px;"">+</div>","null","","","","","","",""
"null","","image-keyboard-response","20","146785","0.0-2.0-0.6","","img/test3.PNG","null","practice","null","true","","","",""
"null","","html-keyboard-response","21","147786","0.0-2.0-1.6","","<img src=""img/test3-reward.PNG"">","null","","","","","","",""
"null","","html-keyboard-response","22","148788","0.0-2.0-2.6","","<div style=""font-size:60px;"">+</div>","null","","","","","","",""
"489.25499990582466","","image-keyboard-response","23","149278","0.0-2.0-0.7","","img/test1.PNG","32","practice","32","true","","","",""
"null","","html-keyboard-response","24","150279","0.0-2.0-1.7","","<img src=""img/test1-reward.PNG"" border=""10px; grey"">","null","","","","","","",""
"null","","html-keyboard-response","25","151281","0.0-2.0-2.7","","<div style=""font-size:60px;"">+</div>","null","","","","","","",""
"null","","image-keyboard-response","26","152782","0.0-2.0-0.8","","img/test2.PNG","null","practice","null","true","","","",""
"null","","html-keyboard-response","27","153782","0.0-2.0-1.8","","<img src=""img/test2-reward.PNG"">","null","","","","","","",""
"null","","html-keyboard-response","28","154783","0.0-2.0-2.8","","<div style=""font-size:60px;"">+</div>","null","","","","","","",""
"null","","image-keyboard-response","29","156285","0.0-2.0-0.9","","img/test3.PNG","null","practice","null","true","","","",""
"null","","html-keyboard-response","30","157286","0.0-2.0-1.9","","<img src=""img/test3-reward.PNG"">","null","","","","","","",""
"null","","html-keyboard-response","31","158287","0.0-2.0-2.9","","<div style=""font-size:60px;"">+</div>","null","","","","","","",""
"null","","image-keyboard-response","32","159789","0.0-2.0-0.10","","img/test2.PNG","null","practice","null","true","","","",""
"null","","html-keyboard-response","33","160790","0.0-2.0-1.10","","<img src=""img/test2-reward.PNG"">","null","","","","","","",""
"null","","html-keyboard-response","34","161791","0.0-2.0-2.10","","<div style=""font-size:60px;"">+</div>","null","","","","","","",""
"527.7500001247972","","image-keyboard-response","35","162320","0.0-2.0-0.11","","img/test1.PNG","32","practice","32","true","","","",""
"null","","html-keyboard-response","36","163321","0.0-2.0-1.11","","<img src=""img/test1-reward.PNG"" border=""10px; grey"">","null","","","","","","",""
"null","","html-keyboard-response","37","164322","0.0-2.0-2.11","","<div style=""font-size:60px;"">+</div>","null","","","","","","",""
"4292.264999821782","","instructions","38","168615","0.0-3.0","[{""page_index"":0,""viewing_time"":4292.009999975562}]","","","","","","","","",""
"null","","image-keyboard-response","39","170118","0.0-4.0-0.0","","img/purple.png","null","trial","32","false","0.8,0.2","1:go_a","",""
"null","","html-keyboard-response","40","171121","0.0-4.0-1.0","","<img src=""img/purple-n.png"">","null","trial","32","","0.8,0.2","1:go_a","0",""
"null","","html-keyboard-response","41","172122","0.0-4.0-2.0","","<div style=""font-size:60px;"">+</div>","null","","","","","","",""
"774.7450000606477","","image-keyboard-response","42","172898","0.0-4.0-0.1","","img/yellow.png","32","trial","null","false","0.2,0.8","2:nogo_b","",""
"null","","html-keyboard-response","43","173900","0.0-4.0-1.1","","<img src=""img/yellow-r.png"" border=""10"">","null","trial","null","","0.2,0.8","2:nogo_b","1",""
"null","","html-keyboard-response","44","174902","0.0-4.0-2.1","","<div style=""font-size:60px;"">+</div>","null","","","","","","",""
"507.1899998001754","","image-keyboard-response","45","175410","0.0-4.0-0.2","","img/yellow.png","32","trial","null","false","0.2,0.8","2:nogo_b","",""
"null","","html-keyboard-response","46","176412","0.0-4.0-1.2","","<img src=""img/yellow-n.png"" border=""10"">","null","trial","null","","0.2,0.8","2:nogo_b","0",""
"null","","html-keyboard-response","47","177413","0.0-4.0-2.2","","<div style=""font-size:60px;"">+</div>","null","","","","","","",""
"622.4050000309944","","image-keyboard-response","48","178036","0.0-4.0-0.3","","img/purple.png","32","trial","32","true","0.8,0.2","1:go_a","",""
"null","","html-keyboard-response","49","179038","0.0-4.0-1.3","","<img src=""img/purple-r.png"" border=""10"">","null","trial","32","","0.8,0.2","1:go_a","1",""
"null","","html-keyboard-response","50","180040","0.0-4.0-2.3","","<div style=""font-size:60px;"">+</div>","null","","","","","","",""
"401.259999955073","","image-keyboard-response","51","180442","0.0-4.0-0.4","","img/purple.png","32","trial","32","true","0.8,0.2","1:go_a","",""
"null","","html-keyboard-response","52","181444","0.0-4.0-1.4","","<img src=""img/purple-r.png"" border=""10"">","null","trial","32","","0.8,0.2","1:go_a","1",""
"null","","html-keyboard-response","53","182444","0.0-4.0-2.4","","<div style=""font-size:60px;"">+</div>","null","","","","","","",""
"484.99000002630055","","image-keyboard-response","54","182930","0.0-4.0-0.5","","img/yellow.png","32","trial","null","false","0.2,0.8","2:nogo_b","",""
"null","","html-keyboard-response","55","183931","0.0-4.0-1.5","","<img src=""img/yellow-n.png"" border=""10"">","null","trial","null","","0.2,0.8","2:nogo_b","0",""
"null","","html-keyboard-response","56","184932","0.0-4.0-2.5","","<div style=""font-size:60px;"">+</div>","null","","","","","","",""
"null","","image-keyboard-response","57","186434","0.0-4.0-0.6","","img/yellow.png","null","trial","null","true","0.2,0.8","2:nogo_b","",""
"null","","html-keyboard-response","58","187436","0.0-4.0-1.6","","<img src=""img/yellow-r.png"">","null","trial","null","","0.2,0.8","2:nogo_b","1",""
"null","","html-keyboard-response","59","188437","0.0-4.0-2.6","","<div style=""font-size:60px;"">+</div>","null","","","","","","",""
"611.839999910444","","image-keyboard-response","60","189050","0.0-4.0-0.7","","img/purple.png","32","trial","32","true","0.8,0.2","1:go_a","",""
"null","","html-keyboard-response","61","190052","0.0-4.0-1.7","","<img src=""img/purple-r.png"" border=""10"">","null","trial","32","","0.8,0.2","1:go_a","1",""
"null","","html-keyboard-response","62","191054","0.0-4.0-2.7","","<div style=""font-size:60px;"">+</div>","null","","","","","","",""
"557.2099999990314","","image-keyboard-response","63","191612","0.0-4.0-0.8","","img/purple.png","32","trial","32","true","0.8,0.2","1:go_a","",""
"null","","html-keyboard-response","64","192614","0.0-4.0-1.8","","<img src=""img/purple-r.png"" border=""10"">","null","trial","32","","0.8,0.2","1:go_a","1",""
"null","","html-keyboard-response","65","193623","0.0-4.0-2.8","","<div style=""font-size:60px;"">+</div>","null","","","","","","",""
"null","","image-keyboard-response","66","195125","0.0-4.0-0.9","","img/yellow.png","null","trial","null","true","0.2,0.8","2:nogo_b","",""
"null","","html-keyboard-response","67","196127","0.0-4.0-1.9","","<img src=""img/yellow-r.png"">","null","trial","null","","0.2,0.8","2:nogo_b","1",""
"null","","html-keyboard-response","68","197128","0.0-4.0-2.9","","<div style=""font-size:60px;"">+</div>","null","","","","","","",""
"467.3949999269098","","image-keyboard-response","69","197596","0.0-4.0-0.10","","img/purple.png","32","trial","32","true","0.8,0.2","1:go_a","",""
"null","","html-keyboard-response","70","198597","0.0-4.0-1.10","","<img src=""img/purple-r.png"" border=""10"">","null","trial","32","","0.8,0.2","1:go_a","1",""
"null","","html-keyboard-response","71","199598","0.0-4.0-2.10","","<div style=""font-size:60px;"">+</div>","null","","","","","","",""
"474.50999985449016","","image-keyboard-response","72","200074","0.0-4.0-0.11","","img/yellow.png","32","trial","null","false","0.2,0.8","2:nogo_b","",""
"null","","html-keyboard-response","73","201075","0.0-4.0-1.11","","<img src=""img/yellow-n.png"" border=""10"">","null","trial","null","","0.2,0.8","2:nogo_b","0",""
"null","","html-keyboard-response","74","202077","0.0-4.0-2.11","","<div style=""font-size:60px;"">+</div>","null","","","","","","",""
"399.7599999420345","","image-keyboard-response","75","202478","0.0-4.0-0.12","","img/purple.png","32","trial","32","true","0.8,0.2","1:go_a","",""
"null","","html-keyboard-response","76","203479","0.0-4.0-1.12","","<img src=""img/purple-r.png"" border=""10"">","null","trial","32","","0.8,0.2","1:go_a","1",""
"null","","html-keyboard-response","77","204567","0.0-4.0-2.12","","<div style=""font-size:60px;"">+</div>","null","","","","","","",""
"null","","image-keyboard-response","78","206084","0.0-4.0-0.13","","img/yellow.png","null","trial","null","true","0.2,0.8","2:nogo_b","",""
"null","","html-keyboard-response","79","207086","0.0-4.0-1.13","","<img src=""img/yellow-r.png"">","null","trial","null","","0.2,0.8","2:nogo_b","1",""
"null","","html-keyboard-response","80","208089","0.0-4.0-2.13","","<div style=""font-size:60px;"">+</div>","null","","","","","","",""
"null","","image-keyboard-response","81","209594","0.0-4.0-0.14","","img/yellow.png","null","trial","null","true","0.2,0.8","2:nogo_b","",""
"null","","html-keyboard-response","82","210596","0.0-4.0-1.14","","<img src=""img/yellow-r.png"">","null","trial","null","","0.2,0.8","2:nogo_b","1",""
"null","","html-keyboard-response","83","211597","0.0-4.0-2.14","","<div style=""font-size:60px;"">+</div>","null","","","","","","",""
"496.9450000207871","","image-keyboard-response","84","212095","0.0-4.0-0.15","","img/purple.png","32","trial","32","true","0.8,0.2","1:go_a","",""
"null","","html-keyboard-response","85","213097","0.0-4.0-1.15","","<img src=""img/purple-r.png"" border=""10"">","null","trial","32","","0.8,0.2","1:go_a","1",""
"null","","html-keyboard-response","86","214098","0.0-4.0-2.15","","<div style=""font-size:60px;"">+</div>","null","","","","","","",""
"457.69000006839633","","image-keyboard-response","87","214556","0.0-4.0-0.16","","img/purple.png","32","trial","32","true","0.8,0.2","1:go_a","",""
"null","","html-keyboard-response","88","215558","0.0-4.0-1.16","","<img src=""img/purple-r.png"" border=""10"">","null","trial","32","","0.8,0.2","1:go_a","1",""
"null","","html-keyboard-response","89","216559","0.0-4.0-2.16","","<div style=""font-size:60px;"">+</div>","null","","","","","","",""
"null","","image-keyboard-response","90","218061","0.0-4.0-0.17","","img/yellow.png","null","trial","null","true","0.2,0.8","2:nogo_b","",""
"null","","html-keyboard-response","91","219062","0.0-4.0-1.17","","<img src=""img/yellow-r.png"">","null","trial","null","","0.2,0.8","2:nogo_b","1",""
"null","","html-keyboard-response","92","220063","0.0-4.0-2.17","","<div style=""font-size:60px;"">+</div>","null","","","","","","",""
"null","","image-keyboard-response","93","221565","0.0-4.0-0.18","","img/yellow.png","null","trial","null","true","0.2,0.8","2:nogo_b","",""
"null","","html-keyboard-response","94","222567","0.0-4.0-1.18","","<img src=""img/yellow-r.png"">","null","trial","null","","0.2,0.8","2:nogo_b","1",""
"null","","html-keyboard-response","95","223568","0.0-4.0-2.18","","<div style=""font-size:60px;"">+</div>","null","","","","","","",""
"526.4149999711663","","image-keyboard-response","96","224095","0.0-4.0-0.19","","img/purple.png","32","trial","32","true","0.8,0.2","1:go_a","",""
"null","","html-keyboard-response","97","225097","0.0-4.0-1.19","","<img src=""img/purple-r.png"" border=""10"">","null","trial","32","","0.8,0.2","1:go_a","1",""
"null","","html-keyboard-response","98","226098","0.0-4.0-2.19","","<div style=""font-size:60px;"">+</div>","null","","","","","","",""
"null","","image-keyboard-response","99","227600","0.0-4.0-0.20","","img/yellow.png","null","trial","null","true","0.2,0.8","2:nogo_b","",""
"null","","html-keyboard-response","100","228601","0.0-4.0-1.20","","<img src=""img/yellow-n.png"">","null","trial","null","","0.2,0.8","2:nogo_b","0",""
"null","","html-keyboard-response","101","229603","0.0-4.0-2.20","","<div style=""font-size:60px;"">+</div>","null","","","","","","",""
"503.07999993674457","","image-keyboard-response","102","230106","0.0-4.0-0.21","","img/purple.png","32","trial","32","true","0.8,0.2","1:go_a","",""
"null","","html-keyboard-response","103","231107","0.0-4.0-1.21","","<img src=""img/purple-r.png"" border=""10"">","null","trial","32","","0.8,0.2","1:go_a","1",""
"null","","html-keyboard-response","104","232108","0.0-4.0-2.21","","<div style=""font-size:60px;"">+</div>","null","","","","","","",""
"530.6450000498444","","image-keyboard-response","105","232639","0.0-4.0-0.22","","img/purple.png","32","trial","32","true","0.8,0.2","1:go_a","",""
"null","","html-keyboard-response","106","233642","0.0-4.0-1.22","","<img src=""img/purple-r.png"" border=""10"">","null","trial","32","","0.8,0.2","1:go_a","1",""
"null","","html-keyboard-response","107","234643","0.0-4.0-2.22","","<div style=""font-size:60px;"">+</div>","null","","","","","","",""
"null","","image-keyboard-response","108","236145","0.0-4.0-0.23","","img/yellow.png","null","trial","null","true","0.2,0.8","2:nogo_b","",""
"null","","html-keyboard-response","109","237147","0.0-4.0-1.23","","<img src=""img/yellow-r.png"">","null","trial","null","","0.2,0.8","2:nogo_b","1",""
"null","","html-keyboard-response","110","238148","0.0-4.0-2.23","","<div style=""font-size:60px;"">+</div>","null","","","","","","",""
"501.87000003643334","","image-keyboard-response","111","238651","0.0-4.0-0.24","","img/purple.png","32","trial","32","true","0.8,0.2","1:go_a","",""
"null","","html-keyboard-response","112","239653","0.0-4.0-1.24","","<img src=""img/purple-n.png"" border=""10"">","null","trial","32","","0.8,0.2","1:go_a","0",""
"null","","html-keyboard-response","113","240655","0.0-4.0-2.24","","<div style=""font-size:60px;"">+</div>","null","","","","","","",""
"null","","image-keyboard-response","114","242157","0.0-4.0-0.25","","img/yellow.png","null","trial","null","true","0.2,0.8","2:nogo_b","",""
"null","","html-keyboard-response","115","243160","0.0-4.0-1.25","","<img src=""img/yellow-r.png"">","null","trial","null","","0.2,0.8","2:nogo_b","1",""
"null","","html-keyboard-response","116","244161","0.0-4.0-2.25","","<div style=""font-size:60px;"">+</div>","null","","","","","","",""
"489.8900000844151","","image-keyboard-response","117","244653","0.0-4.0-0.26","","img/purple.png","32","trial","32","true","0.8,0.2","1:go_a","",""
"null","","html-keyboard-response","118","245656","0.0-4.0-1.26","","<img src=""img/purple-r.png"" border=""10"">","null","trial","32","","0.8,0.2","1:go_a","1",""
"null","","html-keyboard-response","119","246657","0.0-4.0-2.26","","<div style=""font-size:60px;"">+</div>","null","","","","","","",""
"null","","image-keyboard-response","120","248158","0.0-4.0-0.27","","img/yellow.png","null","trial","null","true","0.2,0.8","2:nogo_b","",""
"null","","html-keyboard-response","121","249160","0.0-4.0-1.27","","<img src=""img/yellow-n.png"">","null","trial","null","","0.2,0.8","2:nogo_b","0",""
"null","","html-keyboard-response","122","250161","0.0-4.0-2.27","","<div style=""font-size:60px;"">+</div>","null","","","","","","",""
"null","","image-keyboard-response","123","251662","0.0-4.0-0.28","","img/yellow.png","null","trial","null","true","0.2,0.8","2:nogo_b","",""
"null","","html-keyboard-response","124","252664","0.0-4.0-1.28","","<img src=""img/yellow-n.png"">","null","trial","null","","0.2,0.8","2:nogo_b","0",""
"null","","html-keyboard-response","125","253665","0.0-4.0-2.28","","<div style=""font-size:60px;"">+</div>","null","","","","","","",""
"577.7749998960644","","image-keyboard-response","126","254243","0.0-4.0-0.29","","img/purple.png","32","trial","32","true","0.8,0.2","1:go_a","",""
"null","","html-keyboard-response","127","255245","0.0-4.0-1.29","","<img src=""img/purple-r.png"" border=""10"">","null","trial","32","","0.8,0.2","1:go_a","1",""
"null","","html-keyboard-response","128","256247","0.0-4.0-2.29","","<div style=""font-size:60px;"">+</div>","null","","","","","","",""
"473.1050000991672","","image-keyboard-response","129","256720","0.0-4.0-0.30","","img/yellow.png","32","trial","null","false","0.2,0.8","2:nogo_b","",""
"null","","html-keyboard-response","130","257722","0.0-4.0-1.30","","<img src=""img/yellow-n.png"" border=""10"">","null","trial","null","","0.2,0.8","2:nogo_b","0",""
"null","","html-keyboard-response","131","258722","0.0-4.0-2.30","","<div style=""font-size:60px;"">+</div>","null","","","","","","",""
"469.41499994136393","","image-keyboard-response","132","259192","0.0-4.0-0.31","","img/purple.png","32","trial","32","true","0.8,0.2","1:go_a","",""
"null","","html-keyboard-response","133","260196","0.0-4.0-1.31","","<img src=""img/purple-r.png"" border=""10"">","null","trial","32","","0.8,0.2","1:go_a","1",""
"null","","html-keyboard-response","134","261197","0.0-4.0-2.31","","<div style=""font-size:60px;"">+</div>","null","","","","","","",""
"519.4850000552833","","image-keyboard-response","135","261717","0.0-4.0-0.32","","img/purple.png","32","trial","32","true","0.8,0.2","1:go_a","",""
"null","","html-keyboard-response","136","262719","0.0-4.0-1.32","","<img src=""img/purple-r.png"" border=""10"">","null","trial","32","","0.8,0.2","1:go_a","1",""
"null","","html-keyboard-response","137","263720","0.0-4.0-2.32","","<div style=""font-size:60px;"">+</div>","null","","","","","","",""
"null","","image-keyboard-response","138","265223","0.0-4.0-0.33","","img/yellow.png","null","trial","null","true","0.2,0.8","2:nogo_b","",""
"null","","html-keyboard-response","139","266226","0.0-4.0-1.33","","<img src=""img/yellow-r.png"">","null","trial","null","","0.2,0.8","2:nogo_b","1",""
"null","","html-keyboard-response","140","267227","0.0-4.0-2.33","","<div style=""font-size:60px;"">+</div>","null","","","","","","",""
"486.7500001564622","","image-keyboard-response","141","267715","0.0-4.0-0.34","","img/purple.png","32","trial","32","true","0.8,0.2","1:go_a","",""
"null","","html-keyboard-response","142","268717","0.0-4.0-1.34","","<img src=""img/purple-r.png"" border=""10"">","null","trial","32","","0.8,0.2","1:go_a","1",""
"null","","html-keyboard-response","143","269719","0.0-4.0-2.34","","<div style=""font-size:60px;"">+</div>","null","","","","","","",""
"null","","image-keyboard-response","144","271220","0.0-4.0-0.35","","img/yellow.png","null","trial","null","true","0.2,0.8","2:nogo_b","",""
"null","","html-keyboard-response","145","272223","0.0-4.0-1.35","","<img src=""img/yellow-r.png"">","null","trial","null","","0.2,0.8","2:nogo_b","1",""
"null","","html-keyboard-response","146","273224","0.0-4.0-2.35","","<div style=""font-size:60px;"">+</div>","null","","","","","","",""
"null","","image-keyboard-response","147","274726","0.0-4.0-0.36","","img/yellow.png","null","trial","null","true","0.2,0.8","2:nogo_b","",""
"null","","html-keyboard-response","148","275727","0.0-4.0-1.36","","<img src=""img/yellow-r.png"">","null","trial","null","","0.2,0.8","2:nogo_b","1",""
"null","","html-keyboard-response","149","276728","0.0-4.0-2.36","","<div style=""font-size:60px;"">+</div>","null","","","","","","",""
"469.3950000219047","","image-keyboard-response","150","277198","0.0-4.0-0.37","","img/purple.png","32","trial","32","true","0.8,0.2","1:go_a","",""
"null","","html-keyboard-response","151","278200","0.0-4.0-1.37","","<img src=""img/purple-r.png"" border=""10"">","null","trial","32","","0.8,0.2","1:go_a","1",""
"null","","html-keyboard-response","152","279201","0.0-4.0-2.37","","<div style=""font-size:60px;"">+</div>","null","","","","","","",""
"null","","image-keyboard-response","153","280703","0.0-4.0-0.38","","img/yellow.png","null","trial","null","true","0.2,0.8","2:nogo_b","",""
"null","","html-keyboard-response","154","281705","0.0-4.0-1.38","","<img src=""img/yellow-r.png"">","null","trial","null","","0.2,0.8","2:nogo_b","1",""
"null","","html-keyboard-response","155","282707","0.0-4.0-2.38","","<div style=""font-size:60px;"">+</div>","null","","","","","","",""
"587.2150000650436","","image-keyboard-response","156","283294","0.0-4.0-0.39","","img/purple.png","32","trial","32","true","0.8,0.2","1:go_a","",""
"null","","html-keyboard-response","157","284296","0.0-4.0-1.39","","<img src=""img/purple-r.png"" border=""10"">","null","trial","32","","0.8,0.2","1:go_a","1",""
"null","","html-keyboard-response","158","285298","0.0-4.0-2.39","","<div style=""font-size:60px;"">+</div>","null","","","","","","",""
"null","","image-keyboard-response","159","286800","0.0-4.0-0.40","","img/yellow.png","null","trial","null","true","0.2,0.8","2:nogo_b","",""
"null","","html-keyboard-response","160","287801","0.0-4.0-1.40","","<img src=""img/yellow-n.png"">","null","trial","null","","0.2,0.8","2:nogo_b","0",""
"null","","html-keyboard-response","161","288803","0.0-4.0-2.40","","<div style=""font-size:60px;"">+</div>","null","","","","","","",""
"494.56499982625246","","image-keyboard-response","162","289298","0.0-4.0-0.41","","img/purple.png","32","trial","32","true","0.8,0.2","1:go_a","",""
"null","","html-keyboard-response","163","290300","0.0-4.0-1.41","","<img src=""img/purple-n.png"" border=""10"">","null","trial","32","","0.8,0.2","1:go_a","0",""
"null","","html-keyboard-response","164","291302","0.0-4.0-2.41","","<div style=""font-size:60px;"">+</div>","null","","","","","","",""
"459.0700000990182","","image-keyboard-response","165","291762","0.0-4.0-0.42","","img/purple.png","32","trial","32","true","0.8,0.2","1:go_a","",""
"null","","html-keyboard-response","166","292764","0.0-4.0-1.42","","<img src=""img/purple-r.png"" border=""10"">","null","trial","32","","0.8,0.2","1:go_a","1",""
"null","","html-keyboard-response","167","293765","0.0-4.0-2.42","","<div style=""font-size:60px;"">+</div>","null","","","","","","",""
"null","","image-keyboard-response","168","295266","0.0-4.0-0.43","","img/yellow.png","null","trial","null","true","0.2,0.8","2:nogo_b","",""
"null","","html-keyboard-response","169","296268","0.0-4.0-1.43","","<img src=""img/yellow-r.png"">","null","trial","null","","0.2,0.8","2:nogo_b","1",""
"null","","html-keyboard-response","170","297268","0.0-4.0-2.43","","<div style=""font-size:60px;"">+</div>","null","","","","","","",""
"null","","image-keyboard-response","171","298770","0.0-4.0-0.44","","img/yellow.png","null","trial","null","true","0.2,0.8","2:nogo_b","",""
"null","","html-keyboard-response","172","299772","0.0-4.0-1.44","","<img src=""img/yellow-n.png"">","null","trial","null","","0.2,0.8","2:nogo_b","0",""
"null","","html-keyboard-response","173","300774","0.0-4.0-2.44","","<div style=""font-size:60px;"">+</div>","null","","","","","","",""
"463.93000008538365","","image-keyboard-response","174","301238","0.0-4.0-0.45","","img/purple.png","32","trial","32","true","0.8,0.2","1:go_a","",""
"null","","html-keyboard-response","175","302240","0.0-4.0-1.45","","<img src=""img/purple-r.png"" border=""10"">","null","trial","32","","0.8,0.2","1:go_a","1",""
"null","","html-keyboard-response","176","303241","0.0-4.0-2.45","","<div style=""font-size:60px;"">+</div>","null","","","","","","",""
"null","","image-keyboard-response","177","304744","0.0-4.0-0.46","","img/yellow.png","null","trial","null","true","0.2,0.8","2:nogo_b","",""
"null","","html-keyboard-response","178","305745","0.0-4.0-1.46","","<img src=""img/yellow-r.png"">","null","trial","null","","0.2,0.8","2:nogo_b","1",""
"null","","html-keyboard-response","179","306746","0.0-4.0-2.46","","<div style=""font-size:60px;"">+</div>","null","","","","","","",""
"511.97999995201826","","image-keyboard-response","180","307258","0.0-4.0-0.47","","img/purple.png","32","trial","32","true","0.8,0.2","1:go_a","",""
"null","","html-keyboard-response","181","308260","0.0-4.0-1.47","","<img src=""img/purple-r.png"" border=""10"">","null","trial","32","","0.8,0.2","1:go_a","1",""
"null","","html-keyboard-response","182","309260","0.0-4.0-2.47","","<div style=""font-size:60px;"">+</div>","null","","","","","","",""
"484.859999967739","","image-keyboard-response","183","309746","0.0-4.0-0.48","","img/purple.png","32","trial","32","true","0.8,0.2","1:go_a","",""
"null","","html-keyboard-response","184","310748","0.0-4.0-1.48","","<img src=""img/purple-r.png"" border=""10"">","null","trial","32","","0.8,0.2","1:go_a","1",""
"null","","html-keyboard-response","185","311749","0.0-4.0-2.48","","<div style=""font-size:60px;"">+</div>","null","","","","","","",""
"null","","image-keyboard-response","186","313250","0.0-4.0-0.49","","img/yellow.png","null","trial","null","true","0.2,0.8","2:nogo_b","",""
"null","","html-keyboard-response","187","314251","0.0-4.0-1.49","","<img src=""img/yellow-r.png"">","null","trial","null","","0.2,0.8","2:nogo_b","1",""
"null","","html-keyboard-response","188","315252","0.0-4.0-2.49","","<div style=""font-size:60px;"">+</div>","null","","","","","","",""
"431.55999993905425","","image-keyboard-response","189","315684","0.0-4.0-0.50","","img/purple.png","32","trial","32","true","0.8,0.2","1:go_a","",""
"null","","html-keyboard-response","190","316687","0.0-4.0-1.50","","<img src=""img/purple-r.png"" border=""10"">","null","trial","32","","0.8,0.2","1:go_a","1",""
"null","","html-keyboard-response","191","317688","0.0-4.0-2.50","","<div style=""font-size:60px;"">+</div>","null","","","","","","",""
"null","","image-keyboard-response","192","319190","0.0-4.0-0.51","","img/yellow.png","null","trial","null","true","0.2,0.8","2:nogo_b","",""
"null","","html-keyboard-response","193","320191","0.0-4.0-1.51","","<img src=""img/yellow-r.png"">","null","trial","null","","0.2,0.8","2:nogo_b","1",""
"null","","html-keyboard-response","194","321192","0.0-4.0-2.51","","<div style=""font-size:60px;"">+</div>","null","","","","","","",""
"null","","image-keyboard-response","195","322693","0.0-4.0-0.52","","img/yellow.png","null","trial","null","true","0.2,0.8","2:nogo_b","",""
"null","","html-keyboard-response","196","323695","0.0-4.0-1.52","","<img src=""img/yellow-r.png"">","null","trial","null","","0.2,0.8","2:nogo_b","1",""
"null","","html-keyboard-response","197","324696","0.0-4.0-2.52","","<div style=""font-size:60px;"">+</div>","null","","","","","","",""
"407.8800000716001","","image-keyboard-response","198","325105","0.0-4.0-0.53","","img/purple.png","32","trial","32","true","0.8,0.2","1:go_a","",""
"null","","html-keyboard-response","199","326106","0.0-4.0-1.53","","<img src=""img/purple-r.png"" border=""10"">","null","trial","32","","0.8,0.2","1:go_a","1",""
"null","","html-keyboard-response","200","327107","0.0-4.0-2.53","","<div style=""font-size:60px;"">+</div>","null","","","","","","",""
"null","","image-keyboard-response","201","328608","0.0-4.0-0.54","","img/yellow.png","null","trial","null","true","0.2,0.8","2:nogo_b","",""
"null","","html-keyboard-response","202","329610","0.0-4.0-1.54","","<img src=""img/yellow-r.png"">","null","trial","null","","0.2,0.8","2:nogo_b","1",""
"null","","html-keyboard-response","203","330611","0.0-4.0-2.54","","<div style=""font-size:60px;"">+</div>","null","","","","","","",""
"413.58000016771257","","image-keyboard-response","204","331025","0.0-4.0-0.55","","img/purple.png","32","trial","32","true","0.8,0.2","1:go_a","",""
"null","","html-keyboard-response","205","332026","0.0-4.0-1.55","","<img src=""img/purple-r.png"" border=""10"">","null","trial","32","","0.8,0.2","1:go_a","1",""
"null","","html-keyboard-response","206","333028","0.0-4.0-2.55","","<div style=""font-size:60px;"">+</div>","null","","","","","","",""
"null","","image-keyboard-response","207","334529","0.0-4.0-0.56","","img/yellow.png","null","trial","null","true","0.2,0.8","2:nogo_b","",""
"null","","html-keyboard-response","208","335531","0.0-4.0-1.56","","<img src=""img/yellow-r.png"">","null","trial","null","","0.2,0.8","2:nogo_b","1",""
"null","","html-keyboard-response","209","336532","0.0-4.0-2.56","","<div style=""font-size:60px;"">+</div>","null","","","","","","",""
"410.2100001182407","","image-keyboard-response","210","336943","0.0-4.0-0.57","","img/purple.png","32","trial","32","true","0.8,0.2","1:go_a","",""
"null","","html-keyboard-response","211","337946","0.0-4.0-1.57","","<img src=""img/purple-r.png"" border=""10"">","null","trial","32","","0.8,0.2","1:go_a","1",""
"null","","html-keyboard-response","212","338947","0.0-4.0-2.57","","<div style=""font-size:60px;"">+</div>","null","","","","","","",""
"null","","image-keyboard-response","213","340448","0.0-4.0-0.58","","img/yellow.png","null","trial","null","true","0.2,0.8","2:nogo_b","",""
"null","","html-keyboard-response","214","341460","0.0-4.0-1.58","","<img src=""img/yellow-n.png"">","null","trial","null","","0.2,0.8","2:nogo_b","0",""
"null","","html-keyboard-response","215","342462","0.0-4.0-2.58","","<div style=""font-size:60px;"">+</div>","null","","","","","","",""
"656.2550000380725","","image-keyboard-response","216","343119","0.0-4.0-0.59","","img/purple.png","32","trial","32","true","0.8,0.2","1:go_a","",""
"null","","html-keyboard-response","217","344120","0.0-4.0-1.59","","<img src=""img/purple-r.png"" border=""10"">","null","trial","32","","0.8,0.2","1:go_a","1",""
"null","","html-keyboard-response","218","345122","0.0-4.0-2.59","","<div style=""font-size:60px;"">+</div>","null","","","","","","",""
"489319.30000009015","","instructions","219","834441","0.0-5.0","[{""page_index"":0,""viewing_time"":489319.0600001253}]","","","","","","","","",""
"null","","image-keyboard-response","220","835943","0.0-6.0-0.0","","img/blue.png","null","trial","32","false","0.8,0.2","1:go_a","",""
"null","","html-keyboard-response","221","836945","0.0-6.0-1.0","","<img src=""img/blue-n.png"">","null","trial","32","","0.8,0.2","1:go_a","0",""
"null","","html-keyboard-response","222","837947","0.0-6.0-2.0","","<div style=""font-size:60px;"">+</div>","null","","","","","","",""
"null","","image-keyboard-response","223","839448","0.0-6.0-0.1","","img/purple.png","null","trial","null","true","0.2,0.8","2:nogo_b","",""
"null","","html-keyboard-response","224","840449","0.0-6.0-1.1","","<img src=""img/purple-r.png"">","null","trial","null","","0.2,0.8","2:nogo_b","1",""
"null","","html-keyboard-response","225","841451","0.0-6.0-2.1","","<div style=""font-size:60px;"">+</div>","null","","","","","","",""
"null","","image-keyboard-response","226","842953","0.0-6.0-0.2","","img/red.png","null","trial","32","false","0.8,0.2","3:go_c","",""
"null","","html-keyboard-response","227","843954","0.0-6.0-1.2","","<img src=""img/red-r.png"">","null","trial","32","","0.8,0.2","3:go_c","1",""
"null","","html-keyboard-response","228","844955","0.0-6.0-2.2","","<div style=""font-size:60px;"">+</div>","null","","","","","","",""
"null","","image-keyboard-response","229","846456","0.0-6.0-0.3","","img/green.png","null","trial","null","true","0.2,0.8","4:nogo_d","",""
"null","","html-keyboard-response","230","847458","0.0-6.0-1.3","","<img src=""img/green-r.png"">","null","trial","null","","0.2,0.8","4:nogo_d","1",""
"null","","html-keyboard-response","231","848459","0.0-6.0-2.3","","<div style=""font-size:60px;"">+</div>","null","","","","","","",""
"null","","image-keyboard-response","232","849960","0.0-6.0-0.4","","img/blue.png","null","trial","32","false","0.8,0.2","1:go_a","",""
"null","","html-keyboard-response","233","850963","0.0-6.0-1.4","","<img src=""img/blue-n.png"">","null","trial","32","","0.8,0.2","1:go_a","0",""
"null","","html-keyboard-response","234","851964","0.0-6.0-2.4","","<div style=""font-size:60px;"">+</div>","null","","","","","","",""
"null","","image-keyboard-response","235","853467","0.0-6.0-0.5","","img/purple.png","null","trial","null","true","0.2,0.8","2:nogo_b","",""
"null","","html-keyboard-response","236","854468","0.0-6.0-1.5","","<img src=""img/purple-r.png"">","null","trial","null","","0.2,0.8","2:nogo_b","1",""
"null","","html-keyboard-response","237","855470","0.0-6.0-2.5","","<div style=""font-size:60px;"">+</div>","null","","","","","","",""
"null","","image-keyboard-response","238","856971","0.0-6.0-0.6","","img/green.png","null","trial","null","true","0.2,0.8","4:nogo_d","",""
"null","","html-keyboard-response","239","857980","0.0-6.0-1.6","","<img src=""img/green-n.png"">","null","trial","null","","0.2,0.8","4:nogo_d","0",""
"null","","html-keyboard-response","240","858982","0.0-6.0-2.6","","<div style=""font-size:60px;"">+</div>","null","","","","","","",""
"null","","image-keyboard-response","241","860484","0.0-6.0-0.7","","img/red.png","null","trial","32","false","0.8,0.2","3:go_c","",""
"null","","html-keyboard-response","242","861485","0.0-6.0-1.7","","<img src=""img/red-n.png"">","null","trial","32","","0.8,0.2","3:go_c","0",""
"null","","html-keyboard-response","243","862486","0.0-6.0-2.7","","<div style=""font-size:60px;"">+</div>","null","","","","","","",""
"null","","image-keyboard-response","244","863988","0.0-6.0-0.8","","img/blue.png","null","trial","32","false","0.8,0.2","1:go_a","",""
"null","","html-keyboard-response","245","864990","0.0-6.0-1.8","","<img src=""img/blue-r.png"">","null","trial","32","","0.8,0.2","1:go_a","1",""
"null","","html-keyboard-response","246","865992","0.0-6.0-2.8","","<div style=""font-size:60px;"">+</div>","null","","","","","","",""
"null","","image-keyboard-response","247","867493","0.0-6.0-0.9","","img/green.png","null","trial","null","true","0.2,0.8","4:nogo_d","",""
"null","","html-keyboard-response","248","868495","0.0-6.0-1.9","","<img src=""img/green-r.png"">","null","trial","null","","0.2,0.8","4:nogo_d","1",""
"null","","html-keyboard-response","249","869496","0.0-6.0-2.9","","<div style=""font-size:60px;"">+</div>","null","","","","","","",""
"null","","image-keyboard-response","250","870997","0.0-6.0-0.10","","img/red.png","null","trial","32","false","0.8,0.2","3:go_c","",""
"null","","html-keyboard-response","251","871998","0.0-6.0-1.10","","<img src=""img/red-r.png"">","null","trial","32","","0.8,0.2","3:go_c","1",""
"null","","html-keyboard-response","252","872999","0.0-6.0-2.10","","<div style=""font-size:60px;"">+</div>","null","","","","","","",""
"null","","image-keyboard-response","253","874500","0.0-6.0-0.11","","img/purple.png","null","trial","null","true","0.2,0.8","2:nogo_b","",""
"null","","html-keyboard-response","254","875502","0.0-6.0-1.11","","<img src=""img/purple-r.png"">","null","trial","null","","0.2,0.8","2:nogo_b","1",""
"null","","html-keyboard-response","255","876503","0.0-6.0-2.11","","<div style=""font-size:60px;"">+</div>","null","","","","","","",""
"null","","image-keyboard-response","256","878005","0.0-6.0-0.12","","img/blue.png","null","trial","32","false","0.8,0.2","1:go_a","",""
"null","","html-keyboard-response","257","879007","0.0-6.0-1.12","","<img src=""img/blue-n.png"">","null","trial","32","","0.8,0.2","1:go_a","0",""
"null","","html-keyboard-response","258","880008","0.0-6.0-2.12","","<div style=""font-size:60px;"">+</div>","null","","","","","","",""
"null","","image-keyboard-response","259","881510","0.0-6.0-0.13","","img/green.png","null","trial","null","true","0.2,0.8","4:nogo_d","",""
"null","","html-keyboard-response","260","882512","0.0-6.0-1.13","","<img src=""img/green-r.png"">","null","trial","null","","0.2,0.8","4:nogo_d","1",""
"null","","html-keyboard-response","261","883513","0.0-6.0-2.13","","<div style=""font-size:60px;"">+</div>","null","","","","","","",""
"null","","image-keyboard-response","262","885014","0.0-6.0-0.14","","img/red.png","null","trial","32","false","0.8,0.2","3:go_c","",""
"null","","html-keyboard-response","263","886015","0.0-6.0-1.14","","<img src=""img/red-r.png"">","null","trial","32","","0.8,0.2","3:go_c","1",""
"null","","html-keyboard-response","264","887017","0.0-6.0-2.14","","<div style=""font-size:60px;"">+</div>","null","","","","","","",""
"null","","image-keyboard-response","265","888518","0.0-6.0-0.15","","img/purple.png","null","trial","null","true","0.2,0.8","2:nogo_b","",""
"null","","html-keyboard-response","266","889520","0.0-6.0-1.15","","<img src=""img/purple-r.png"">","null","trial","null","","0.2,0.8","2:nogo_b","1",""
"null","","html-keyboard-response","267","890523","0.0-6.0-2.15","","<div style=""font-size:60px;"">+</div>","null","","","","","","",""
"null","","image-keyboard-response","268","892025","0.0-6.0-0.16","","img/blue.png","null","trial","32","false","0.8,0.2","1:go_a","",""
"null","","html-keyboard-response","269","893026","0.0-6.0-1.16","","<img src=""img/blue-n.png"">","null","trial","32","","0.8,0.2","1:go_a","0",""
"null","","html-keyboard-response","270","894027","0.0-6.0-2.16","","<div style=""font-size:60px;"">+</div>","null","","","","","","",""
"null","","image-keyboard-response","271","895529","0.0-6.0-0.17","","img/green.png","null","trial","null","true","0.2,0.8","4:nogo_d","",""
"null","","html-keyboard-response","272","896531","0.0-6.0-1.17","","<img src=""img/green-n.png"">","null","trial","null","","0.2,0.8","4:nogo_d","0",""
"null","","html-keyboard-response","273","897531","0.0-6.0-2.17","","<div style=""font-size:60px;"">+</div>","null","","","","","","",""
"null","","image-keyboard-response","274","899032","0.0-6.0-0.18","","img/red.png","null","trial","32","false","0.8,0.2","3:go_c","",""
"null","","html-keyboard-response","275","900034","0.0-6.0-1.18","","<img src=""img/red-r.png"">","null","trial","32","","0.8,0.2","3:go_c","1",""
"null","","html-keyboard-response","276","901039","0.0-6.0-2.18","","<div style=""font-size:60px;"">+</div>","null","","","","","","",""
"null","","image-keyboard-response","277","902541","0.0-6.0-0.19","","img/purple.png","null","trial","null","true","0.2,0.8","2:nogo_b","",""
"null","","html-keyboard-response","278","903543","0.0-6.0-1.19","","<img src=""img/purple-r.png"">","null","trial","null","","0.2,0.8","2:nogo_b","1",""
"null","","html-keyboard-response","279","904543","0.0-6.0-2.19","","<div style=""font-size:60px;"">+</div>","null","","","","","","",""
"null","","image-keyboard-response","280","906044","0.0-6.0-0.20","","img/purple.png","null","trial","null","true","0.2,0.8","2:nogo_b","",""
"null","","html-keyboard-response","281","907046","0.0-6.0-1.20","","<img src=""img/purple-r.png"">","null","trial","null","","0.2,0.8","2:nogo_b","1",""
"null","","html-keyboard-response","282","908047","0.0-6.0-2.20","","<div style=""font-size:60px;"">+</div>","null","","","","","","",""
"820.2450000680983","","image-keyboard-response","283","908868","0.0-6.0-0.21","","img/green.png","32","trial","null","false","0.2,0.8","4:nogo_d","",""
"null","","html-keyboard-response","284","909870","0.0-6.0-1.21","","<img src=""img/green-r.png"" border=""10"">","null","trial","null","","0.2,0.8","4:nogo_d","1",""
"null","","html-keyboard-response","285","910871","0.0-6.0-2.21","","<div style=""font-size:60px;"">+</div>","null","","","","","","",""
"null","","image-keyboard-response","286","912373","0.0-6.0-0.22","","img/blue.png","null","trial","32","false","0.8,0.2","1:go_a","",""
"null","","html-keyboard-response","287","913375","0.0-6.0-1.22","","<img src=""img/blue-n.png"">","null","trial","32","","0.8,0.2","1:go_a","0",""
"null","","html-keyboard-response","288","914376","0.0-6.0-2.22","","<div style=""font-size:60px;"">+</div>","null","","","","","","",""
"813.785000005737","","image-keyboard-response","289","915191","0.0-6.0-0.23","","img/red.png","32","trial","32","true","0.8,0.2","3:go_c","",""
"null","","html-keyboard-response","290","916193","0.0-6.0-1.23","","<img src=""img/red-n.png"" border=""10"">","null","trial","32","","0.8,0.2","3:go_c","0",""
"null","","html-keyboard-response","291","917195","0.0-6.0-2.23","","<div style=""font-size:60px;"">+</div>","null","","","","","","",""
"741.209999890998","","image-keyboard-response","292","917936","0.0-6.0-0.24","","img/green.png","32","trial","null","false","0.2,0.8","4:nogo_d","",""
"null","","html-keyboard-response","293","918938","0.0-6.0-1.24","","<img src=""img/green-n.png"" border=""10"">","null","trial","null","","0.2,0.8","4:nogo_d","0",""
"null","","html-keyboard-response","294","919939","0.0-6.0-2.24","","<div style=""font-size:60px;"">+</div>","null","","","","","","",""
"null","","image-keyboard-response","295","921441","0.0-6.0-0.25","","img/purple.png","null","trial","null","true","0.2,0.8","2:nogo_b","",""
"null","","html-keyboard-response","296","922442","0.0-6.0-1.25","","<img src=""img/purple-r.png"">","null","trial","null","","0.2,0.8","2:nogo_b","1",""
"null","","html-keyboard-response","297","923443","0.0-6.0-2.25","","<div style=""font-size:60px;"">+</div>","null","","","","","","",""
"null","","image-keyboard-response","298","924944","0.0-6.0-0.26","","img/red.png","null","trial","32","false","0.8,0.2","3:go_c","",""
"null","","html-keyboard-response","299","925945","0.0-6.0-1.26","","<img src=""img/red-n.png"">","null","trial","32","","0.8,0.2","3:go_c","0",""
"null","","html-keyboard-response","300","926946","0.0-6.0-2.26","","<div style=""font-size:60px;"">+</div>","null","","","","","","",""
"null","","image-keyboard-response","301","928448","0.0-6.0-0.27","","img/blue.png","null","trial","32","false","0.8,0.2","1:go_a","",""
"null","","html-keyboard-response","302","929450","0.0-6.0-1.27","","<img src=""img/blue-n.png"">","null","trial","32","","0.8,0.2","1:go_a","0",""
"null","","html-keyboard-response","303","930452","0.0-6.0-2.27","","<div style=""font-size:60px;"">+</div>","null","","","","","","",""
"null","","image-keyboard-response","304","931954","0.0-6.0-0.28","","img/red.png","null","trial","32","false","0.8,0.2","3:go_c","",""
"null","","html-keyboard-response","305","932956","0.0-6.0-1.28","","<img src=""img/red-n.png"">","null","trial","32","","0.8,0.2","3:go_c","0",""
"null","","html-keyboard-response","306","933957","0.0-6.0-2.28","","<div style=""font-size:60px;"">+</div>","null","","","","","","",""
"884.7000000532717","","image-keyboard-response","307","934843","0.0-6.0-0.29","","img/blue.png","32","trial","32","true","0.8,0.2","1:go_a","",""
"null","","html-keyboard-response","308","935845","0.0-6.0-1.29","","<img src=""img/blue-r.png"" border=""10"">","null","trial","32","","0.8,0.2","1:go_a","1",""
"null","","html-keyboard-response","309","936847","0.0-6.0-2.29","","<div style=""font-size:60px;"">+</div>","null","","","","","","",""
"null","","image-keyboard-response","310","938348","0.0-6.0-0.30","","img/green.png","null","trial","null","true","0.2,0.8","4:nogo_d","",""
"null","","html-keyboard-response","311","939350","0.0-6.0-1.30","","<img src=""img/green-r.png"">","null","trial","null","","0.2,0.8","4:nogo_d","1",""
"null","","html-keyboard-response","312","940351","0.0-6.0-2.30","","<div style=""font-size:60px;"">+</div>","null","","","","","","",""
"745.2100000809878","","image-keyboard-response","313","941096","0.0-6.0-0.31","","img/purple.png","32","trial","null","false","0.2,0.8","2:nogo_b","",""
"null","","html-keyboard-response","314","942099","0.0-6.0-1.31","","<img src=""img/purple-r.png"" border=""10"">","null","trial","null","","0.2,0.8","2:nogo_b","1",""
"null","","html-keyboard-response","315","943100","0.0-6.0-2.31","","<div style=""font-size:60px;"">+</div>","null","","","","","","",""
"534.080000128597","","image-keyboard-response","316","943634","0.0-6.0-0.32","","img/purple.png","32","trial","null","false","0.2,0.8","2:nogo_b","",""
"null","","html-keyboard-response","317","944635","0.0-6.0-1.32","","<img src=""img/purple-n.png"" border=""10"">","null","trial","null","","0.2,0.8","2:nogo_b","0",""
"null","","html-keyboard-response","318","945636","0.0-6.0-2.32","","<div style=""font-size:60px;"">+</div>","null","","","","","","",""
"445.4449999611825","","image-keyboard-response","319","946082","0.0-6.0-0.33","","img/red.png","32","trial","32","true","0.8,0.2","3:go_c","",""
"null","","html-keyboard-response","320","947085","0.0-6.0-1.33","","<img src=""img/red-n.png"" border=""10"">","null","trial","32","","0.8,0.2","3:go_c","0",""
"null","","html-keyboard-response","321","948086","0.0-6.0-2.33","","<div style=""font-size:60px;"">+</div>","null","","","","","","",""
"679.6499998308718","","image-keyboard-response","322","948766","0.0-6.0-0.34","","img/green.png","32","trial","null","false","0.2,0.8","4:nogo_d","",""
"null","","html-keyboard-response","323","949768","0.0-6.0-1.34","","<img src=""img/green-n.png"" border=""10"">","null","trial","null","","0.2,0.8","4:nogo_d","0",""
"null","","html-keyboard-response","324","950769","0.0-6.0-2.34","","<div style=""font-size:60px;"">+</div>","null","","","","","","",""
"1052.1350000053644","","image-keyboard-response","325","951822","0.0-6.0-0.35","","img/blue.png","32","trial","32","true","0.8,0.2","1:go_a","",""
"null","","html-keyboard-response","326","952825","0.0-6.0-1.35","","<img src=""img/blue-n.png"" border=""10"">","null","trial","32","","0.8,0.2","1:go_a","0",""
"null","","html-keyboard-response","327","953826","0.0-6.0-2.35","","<div style=""font-size:60px;"">+</div>","null","","","","","","",""
"null","","image-keyboard-response","328","955327","0.0-6.0-0.36","","img/blue.png","null","trial","32","false","0.8,0.2","1:go_a","",""
"null","","html-keyboard-response","329","956330","0.0-6.0-1.36","","<img src=""img/blue-r.png"">","null","trial","32","","0.8,0.2","1:go_a","1",""
"null","","html-keyboard-response","330","957331","0.0-6.0-2.36","","<div style=""font-size:60px;"">+</div>","null","","","","","","",""
"997.2449999768287","","image-keyboard-response","331","958329","0.0-6.0-0.37","","img/green.png","32","trial","null","false","0.2,0.8","4:nogo_d","",""
"null","","html-keyboard-response","332","959330","0.0-6.0-1.37","","<img src=""img/green-n.png"" border=""10"">","null","trial","null","","0.2,0.8","4:nogo_d","0",""
"null","","html-keyboard-response","333","960331","0.0-6.0-2.37","","<div style=""font-size:60px;"">+</div>","null","","","","","","",""
"682.2649999521673","","image-keyboard-response","334","961014","0.0-6.0-0.38","","img/red.png","32","trial","32","true","0.8,0.2","3:go_c","",""
"null","","html-keyboard-response","335","962016","0.0-6.0-1.38","","<img src=""img/red-r.png"" border=""10"">","null","trial","32","","0.8,0.2","3:go_c","1",""
"null","","html-keyboard-response","336","963018","0.0-6.0-2.38","","<div style=""font-size:60px;"">+</div>","null","","","","","","",""
"830.2350000012666","","image-keyboard-response","337","963849","0.0-6.0-0.39","","img/purple.png","32","trial","null","false","0.2,0.8","2:nogo_b","",""
"null","","html-keyboard-response","338","964852","0.0-6.0-1.39","","<img src=""img/purple-n.png"" border=""10"">","null","trial","null","","0.2,0.8","2:nogo_b","0",""
"null","","html-keyboard-response","339","965853","0.0-6.0-2.39","","<div style=""font-size:60px;"">+</div>","null","","","","","","",""
"null","","image-keyboard-response","340","967354","0.0-6.0-0.40","","img/purple.png","null","trial","null","true","0.2,0.8","2:nogo_b","",""
"null","","html-keyboard-response","341","968357","0.0-6.0-1.40","","<img src=""img/purple-r.png"">","null","trial","null","","0.2,0.8","2:nogo_b","1",""
"null","","html-keyboard-response","342","969358","0.0-6.0-2.40","","<div style=""font-size:60px;"">+</div>","null","","","","","","",""
"797.580000013113","","image-keyboard-response","343","970157","0.0-6.0-0.41","","img/blue.png","32","trial","32","true","0.8,0.2","1:go_a","",""
"null","","html-keyboard-response","344","971161","0.0-6.0-1.41","","<img src=""img/blue-r.png"" border=""10"">","null","trial","32","","0.8,0.2","1:go_a","1",""
"null","","html-keyboard-response","345","972163","0.0-6.0-2.41","","<div style=""font-size:60px;"">+</div>","null","","","","","","",""
"null","","image-keyboard-response","346","973664","0.0-6.0-0.42","","img/green.png","null","trial","null","true","0.2,0.8","4:nogo_d","",""
"null","","html-keyboard-response","347","974666","0.0-6.0-1.42","","<img src=""img/green-r.png"">","null","trial","null","","0.2,0.8","4:nogo_d","1",""
"null","","html-keyboard-response","348","975667","0.0-6.0-2.42","","<div style=""font-size:60px;"">+</div>","null","","","","","","",""
"542.81000001356","","image-keyboard-response","349","976210","0.0-6.0-0.43","","img/red.png","32","trial","32","true","0.8,0.2","3:go_c","",""
"null","","html-keyboard-response","350","977212","0.0-6.0-1.43","","<img src=""img/red-r.png"" border=""10"">","null","trial","32","","0.8,0.2","3:go_c","1",""
"null","","html-keyboard-response","351","978214","0.0-6.0-2.43","","<div style=""font-size:60px;"">+</div>","null","","","","","","",""
"603.7200000137091","","image-keyboard-response","352","978818","0.0-6.0-0.44","","img/red.png","32","trial","32","true","0.8,0.2","3:go_c","",""
"null","","html-keyboard-response","353","979820","0.0-6.0-1.44","","<img src=""img/red-r.png"" border=""10"">","null","trial","32","","0.8,0.2","3:go_c","1",""
"null","","html-keyboard-response","354","980821","0.0-6.0-2.44","","<div style=""font-size:60px;"">+</div>","null","","","","","","",""
"513.2200000807643","","image-keyboard-response","355","981334","0.0-6.0-0.45","","img/blue.png","32","trial","32","true","0.8,0.2","1:go_a","",""
"null","","html-keyboard-response","356","982335","0.0-6.0-1.45","","<img src=""img/blue-r.png"" border=""10"">","null","trial","32","","0.8,0.2","1:go_a","1",""
"null","","html-keyboard-response","357","983336","0.0-6.0-2.45","","<div style=""font-size:60px;"">+</div>","null","","","","","","",""
"null","","image-keyboard-response","358","984838","0.0-6.0-0.46","","img/green.png","null","trial","null","true","0.2,0.8","4:nogo_d","",""
"null","","html-keyboard-response","359","985840","0.0-6.0-1.46","","<img src=""img/green-r.png"">","null","trial","null","","0.2,0.8","4:nogo_d","1",""
"null","","html-keyboard-response","360","986841","0.0-6.0-2.46","","<div style=""font-size:60px;"">+</div>","null","","","","","","",""
"null","","image-keyboard-response","361","988342","0.0-6.0-0.47","","img/purple.png","null","trial","null","true","0.2,0.8","2:nogo_b","",""
"null","","html-keyboard-response","362","989345","0.0-6.0-1.47","","<img src=""img/purple-r.png"">","null","trial","null","","0.2,0.8","2:nogo_b","1",""
"null","","html-keyboard-response","363","990347","0.0-6.0-2.47","","<div style=""font-size:60px;"">+</div>","null","","","","","","",""
"null","","image-keyboard-response","364","991849","0.0-6.0-0.48","","img/purple.png","null","trial","null","true","0.2,0.8","2:nogo_b","",""
"null","","html-keyboard-response","365","992850","0.0-6.0-1.48","","<img src=""img/purple-n.png"">","null","trial","null","","0.2,0.8","2:nogo_b","0",""
"null","","html-keyboard-response","366","993851","0.0-6.0-2.48","","<div style=""font-size:60px;"">+</div>","null","","","","","","",""
"null","","image-keyboard-response","367","995353","0.0-6.0-0.49","","img/green.png","null","trial","null","true","0.2,0.8","4:nogo_d","",""
"null","","html-keyboard-response","368","996354","0.0-6.0-1.49","","<img src=""img/green-n.png"">","null","trial","null","","0.2,0.8","4:nogo_d","0",""
"null","","html-keyboard-response","369","997355","0.0-6.0-2.49","","<div style=""font-size:60px;"">+</div>","null","","","","","","",""
"610.700000077486","","image-keyboard-response","370","997966","0.0-6.0-0.50","","img/red.png","32","trial","32","true","0.8,0.2","3:go_c","",""
"null","","html-keyboard-response","371","998969","0.0-6.0-1.50","","<img src=""img/red-n.png"" border=""10"">","null","trial","32","","0.8,0.2","3:go_c","0",""
"null","","html-keyboard-response","372","999971","0.0-6.0-2.50","","<div style=""font-size:60px;"">+</div>","null","","","","","","",""
"415.0099998805672","","image-keyboard-response","373","1000386","0.0-6.0-0.51","","img/blue.png","32","trial","32","true","0.8,0.2","1:go_a","",""
"null","","html-keyboard-response","374","1001388","0.0-6.0-1.51","","<img src=""img/blue-r.png"" border=""10"">","null","trial","32","","0.8,0.2","1:go_a","1",""
"null","","html-keyboard-response","375","1002389","0.0-6.0-2.51","","<div style=""font-size:60px;"">+</div>","null","","","","","","",""
"null","","image-keyboard-response","376","1003891","0.0-6.0-0.52","","img/green.png","null","trial","null","true","0.2,0.8","4:nogo_d","",""
"null","","html-keyboard-response","377","1004893","0.0-6.0-1.52","","<img src=""img/green-r.png"">","null","trial","null","","0.2,0.8","4:nogo_d","1",""
"null","","html-keyboard-response","378","1005895","0.0-6.0-2.52","","<div style=""font-size:60px;"">+</div>","null","","","","","","",""
"672.7650000248104","","image-keyboard-response","379","1006568","0.0-6.0-0.53","","img/red.png","32","trial","32","true","0.8,0.2","3:go_c","",""
"null","","html-keyboard-response","380","1007570","0.0-6.0-1.53","","<img src=""img/red-n.png"" border=""10"">","null","trial","32","","0.8,0.2","3:go_c","0",""
"null","","html-keyboard-response","381","1008571","0.0-6.0-2.53","","<div style=""font-size:60px;"">+</div>","null","","","","","","",""
"null","","image-keyboard-response","382","1010073","0.0-6.0-0.54","","img/purple.png","null","trial","null","true","0.2,0.8","2:nogo_b","",""
"null","","html-keyboard-response","383","1011074","0.0-6.0-1.54","","<img src=""img/purple-r.png"">","null","trial","null","","0.2,0.8","2:nogo_b","1",""
"null","","html-keyboard-response","384","1012076","0.0-6.0-2.54","","<div style=""font-size:60px;"">+</div>","null","","","","","","",""
"549.3749999441206","","image-keyboard-response","385","1012626","0.0-6.0-0.55","","img/blue.png","32","trial","32","true","0.8,0.2","1:go_a","",""
"null","","html-keyboard-response","386","1013629","0.0-6.0-1.55","","<img src=""img/blue-r.png"" border=""10"">","null","trial","32","","0.8,0.2","1:go_a","1",""
"null","","html-keyboard-response","387","1014631","0.0-6.0-2.55","","<div style=""font-size:60px;"">+</div>","null","","","","","","",""
"null","","image-keyboard-response","388","1016132","0.0-6.0-0.56","","img/green.png","null","trial","null","true","0.2,0.8","4:nogo_d","",""
"null","","html-keyboard-response","389","1017135","0.0-6.0-1.56","","<img src=""img/green-r.png"">","null","trial","null","","0.2,0.8","4:nogo_d","1",""
"null","","html-keyboard-response","390","1018137","0.0-6.0-2.56","","<div style=""font-size:60px;"">+</div>","null","","","","","","",""
"735.8850000891834","","image-keyboard-response","391","1018873","0.0-6.0-0.57","","img/red.png","32","trial","32","true","0.8,0.2","3:go_c","",""
"null","","html-keyboard-response","392","1019876","0.0-6.0-1.57","","<img src=""img/red-r.png"" border=""10"">","null","trial","32","","0.8,0.2","3:go_c","1",""
"null","","html-keyboard-response","393","1020877","0.0-6.0-2.57","","<div style=""font-size:60px;"">+</div>","null","","","","","","",""
"null","","image-keyboard-response","394","1022379","0.0-6.0-0.58","","img/purple.png","null","trial","null","true","0.2,0.8","2:nogo_b","",""
"null","","html-keyboard-response","395","1023382","0.0-6.0-1.58","","<img src=""img/purple-r.png"">","null","trial","null","","0.2,0.8","2:nogo_b","1",""
"null","","html-keyboard-response","396","1024383","0.0-6.0-2.58","","<div style=""font-size:60px;"">+</div>","null","","","","","","",""
"728.1649999786168","","image-keyboard-response","397","1025111","0.0-6.0-0.59","","img/blue.png","32","trial","32","true","0.8,0.2","1:go_a","",""
"null","","html-keyboard-response","398","1026113","0.0-6.0-1.59","","<img src=""img/blue-r.png"" border=""10"">","null","trial","32","","0.8,0.2","1:go_a","1",""
"null","","html-keyboard-response","399","1027115","0.0-6.0-2.59","","<div style=""font-size:60px;"">+</div>","null","","","","","","",""
"617.8349999245256","","image-keyboard-response","400","1027733","0.0-6.0-0.60","","img/blue.png","32","trial","32","true","0.8,0.2","1:go_a","",""
"null","","html-keyboard-response","401","1028735","0.0-6.0-1.60","","<img src=""img/blue-r.png"" border=""10"">","null","trial","32","","0.8,0.2","1:go_a","1",""
"null","","html-keyboard-response","402","1029737","0.0-6.0-2.60","","<div style=""font-size:60px;"">+</div>","null","","","","","","",""
"null","","image-keyboard-response","403","1031238","0.0-6.0-0.61","","img/green.png","null","trial","null","true","0.2,0.8","4:nogo_d","",""
"null","","html-keyboard-response","404","1032239","0.0-6.0-1.61","","<img src=""img/green-r.png"">","null","trial","null","","0.2,0.8","4:nogo_d","1",""
"null","","html-keyboard-response","405","1033240","0.0-6.0-2.61","","<div style=""font-size:60px;"">+</div>","null","","","","","","",""
"null","","image-keyboard-response","406","1034741","0.0-6.0-0.62","","img/purple.png","null","trial","null","true","0.2,0.8","2:nogo_b","",""
"null","","html-keyboard-response","407","1035743","0.0-6.0-1.62","","<img src=""img/purple-r.png"">","null","trial","null","","0.2,0.8","2:nogo_b","1",""
"null","","html-keyboard-response","408","1036745","0.0-6.0-2.62","","<div style=""font-size:60px;"">+</div>","null","","","","","","",""
"708.1400000024587","","image-keyboard-response","409","1037453","0.0-6.0-0.63","","img/red.png","32","trial","32","true","0.8,0.2","3:go_c","",""
"null","","html-keyboard-response","410","1038456","0.0-6.0-1.63","","<img src=""img/red-r.png"" border=""10"">","null","trial","32","","0.8,0.2","3:go_c","1",""
"null","","html-keyboard-response","411","1039457","0.0-6.0-2.63","","<div style=""font-size:60px;"">+</div>","null","","","","","","",""
"441.28000014461577","","image-keyboard-response","412","1039899","0.0-6.0-0.64","","img/red.png","32","trial","32","true","0.8,0.2","3:go_c","",""
"null","","html-keyboard-response","413","1040901","0.0-6.0-1.64","","<img src=""img/red-r.png"" border=""10"">","null","trial","32","","0.8,0.2","3:go_c","1",""
"null","","html-keyboard-response","414","1041903","0.0-6.0-2.64","","<div style=""font-size:60px;"">+</div>","null","","","","","","",""
"581.5850000362843","","image-keyboard-response","415","1042485","0.0-6.0-0.65","","img/blue.png","32","trial","32","true","0.8,0.2","1:go_a","",""
"null","","html-keyboard-response","416","1043486","0.0-6.0-1.65","","<img src=""img/blue-r.png"" border=""10"">","null","trial","32","","0.8,0.2","1:go_a","1",""
"null","","html-keyboard-response","417","1044488","0.0-6.0-2.65","","<div style=""font-size:60px;"">+</div>","null","","","","","","",""
"null","","image-keyboard-response","418","1045990","0.0-6.0-0.66","","img/green.png","null","trial","null","true","0.2,0.8","4:nogo_d","",""
"null","","html-keyboard-response","419","1046991","0.0-6.0-1.66","","<img src=""img/green-r.png"">","null","trial","null","","0.2,0.8","4:nogo_d","1",""
"null","","html-keyboard-response","420","1047994","0.0-6.0-2.66","","<div style=""font-size:60px;"">+</div>","null","","","","","","",""
"null","","image-keyboard-response","421","1049495","0.0-6.0-0.67","","img/purple.png","null","trial","null","true","0.2,0.8","2:nogo_b","",""
"null","","html-keyboard-response","422","1050497","0.0-6.0-1.67","","<img src=""img/purple-r.png"">","null","trial","null","","0.2,0.8","2:nogo_b","1",""
"null","","html-keyboard-response","423","1051499","0.0-6.0-2.67","","<div style=""font-size:60px;"">+</div>","null","","","","","","",""
"453.06000020354986","","image-keyboard-response","424","1051953","0.0-6.0-0.68","","img/red.png","32","trial","32","true","0.8,0.2","3:go_c","",""
"null","","html-keyboard-response","425","1052955","0.0-6.0-1.68","","<img src=""img/red-r.png"" border=""10"">","null","trial","32","","0.8,0.2","3:go_c","1",""
"null","","html-keyboard-response","426","1053957","0.0-6.0-2.68","","<div style=""font-size:60px;"">+</div>","null","","","","","","",""
"null","","image-keyboard-response","427","1055458","0.0-6.0-0.69","","img/green.png","null","trial","null","true","0.2,0.8","4:nogo_d","",""
"null","","html-keyboard-response","428","1056461","0.0-6.0-1.69","","<img src=""img/green-r.png"">","null","trial","null","","0.2,0.8","4:nogo_d","1",""
"null","","html-keyboard-response","429","1057463","0.0-6.0-2.69","","<div style=""font-size:60px;"">+</div>","null","","","","","","",""
"524.8300000093877","","image-keyboard-response","430","1057989","0.0-6.0-0.70","","img/blue.png","32","trial","32","true","0.8,0.2","1:go_a","",""
"null","","html-keyboard-response","431","1058990","0.0-6.0-1.70","","<img src=""img/blue-n.png"" border=""10"">","null","trial","32","","0.8,0.2","1:go_a","0",""
"null","","html-keyboard-response","432","1059993","0.0-6.0-2.70","","<div style=""font-size:60px;"">+</div>","null","","","","","","",""
"null","","image-keyboard-response","433","1061495","0.0-6.0-0.71","","img/purple.png","null","trial","null","true","0.2,0.8","2:nogo_b","",""
"null","","html-keyboard-response","434","1062505","0.0-6.0-1.71","","<img src=""img/purple-r.png"">","null","trial","null","","0.2,0.8","2:nogo_b","1",""
"null","","html-keyboard-response","435","1063506","0.0-6.0-2.71","","<div style=""font-size:60px;"">+</div>","null","","","","","","",""
"406.5499999560416","","image-keyboard-response","436","1063914","0.0-6.0-0.72","","img/red.png","32","trial","32","true","0.8,0.2","3:go_c","",""
"null","","html-keyboard-response","437","1064916","0.0-6.0-1.72","","<img src=""img/red-r.png"" border=""10"">","null","trial","32","","0.8,0.2","3:go_c","1",""
"null","","html-keyboard-response","438","1065917","0.0-6.0-2.72","","<div style=""font-size:60px;"">+</div>","null","","","","","","",""
"null","","image-keyboard-response","439","1067419","0.0-6.0-0.73","","img/purple.png","null","trial","null","true","0.2,0.8","2:nogo_b","",""
"null","","html-keyboard-response","440","1068420","0.0-6.0-1.73","","<img src=""img/purple-r.png"">","null","trial","null","","0.2,0.8","2:nogo_b","1",""
"null","","html-keyboard-response","441","1069421","0.0-6.0-2.73","","<div style=""font-size:60px;"">+</div>","null","","","","","","",""
"650.3299998585135","","image-keyboard-response","442","1070073","0.0-6.0-0.74","","img/blue.png","32","trial","32","true","0.8,0.2","1:go_a","",""
"null","","html-keyboard-response","443","1071075","0.0-6.0-1.74","","<img src=""img/blue-r.png"" border=""10"">","null","trial","32","","0.8,0.2","1:go_a","1",""
"null","","html-keyboard-response","444","1072076","0.0-6.0-2.74","","<div style=""font-size:60px;"">+</div>","null","","","","","","",""
"null","","image-keyboard-response","445","1073578","0.0-6.0-0.75","","img/green.png","null","trial","null","true","0.2,0.8","4:nogo_d","",""
"null","","html-keyboard-response","446","1074581","0.0-6.0-1.75","","<img src=""img/green-r.png"">","null","trial","null","","0.2,0.8","4:nogo_d","1",""
"null","","html-keyboard-response","447","1075582","0.0-6.0-2.75","","<div style=""font-size:60px;"">+</div>","null","","","","","","",""
"398.83500011637807","","image-keyboard-response","448","1075981","0.0-6.0-0.76","","img/red.png","32","trial","32","true","0.8,0.2","3:go_c","",""
"null","","html-keyboard-response","449","1076983","0.0-6.0-1.76","","<img src=""img/red-r.png"" border=""10"">","null","trial","32","","0.8,0.2","3:go_c","1",""
"null","","html-keyboard-response","450","1077985","0.0-6.0-2.76","","<div style=""font-size:60px;"">+</div>","null","","","","","","",""
"null","","image-keyboard-response","451","1079487","0.0-6.0-0.77","","img/purple.png","null","trial","null","true","0.2,0.8","2:nogo_b","",""
"null","","html-keyboard-response","452","1080489","0.0-6.0-1.77","","<img src=""img/purple-n.png"">","null","trial","null","","0.2,0.8","2:nogo_b","0",""
"null","","html-keyboard-response","453","1081490","0.0-6.0-2.77","","<div style=""font-size:60px;"">+</div>","null","","","","","","",""
"null","","image-keyboard-response","454","1082992","0.0-6.0-0.78","","img/green.png","null","trial","null","true","0.2,0.8","4:nogo_d","",""
"null","","html-keyboard-response","455","1083994","0.0-6.0-1.78","","<img src=""img/green-r.png"">","null","trial","null","","0.2,0.8","4:nogo_d","1",""
"null","","html-keyboard-response","456","1084995","0.0-6.0-2.78","","<div style=""font-size:60px;"">+</div>","null","","","","","","",""
"487.5300000421703","","image-keyboard-response","457","1085483","0.0-6.0-0.79","","img/blue.png","32","trial","32","true","0.8,0.2","1:go_a","",""
"null","","html-keyboard-response","458","1086485","0.0-6.0-1.79","","<img src=""img/blue-n.png"" border=""10"">","null","trial","32","","0.8,0.2","1:go_a","0",""
"null","","html-keyboard-response","459","1087487","0.0-6.0-2.79","","<div style=""font-size:60px;"">+</div>","null","","","","","","",""
"null","","image-keyboard-response","460","1088988","0.0-6.0-0.80","","img/purple.png","null","trial","null","true","0.2,0.8","2:nogo_b","",""
"null","","html-keyboard-response","461","1089991","0.0-6.0-1.80","","<img src=""img/purple-r.png"">","null","trial","null","","0.2,0.8","2:nogo_b","1",""
"null","","html-keyboard-response","462","1090993","0.0-6.0-2.80","","<div style=""font-size:60px;"">+</div>","null","","","","","","",""
"517.8450001403689","","image-keyboard-response","463","1091511","0.0-6.0-0.81","","img/red.png","32","trial","32","true","0.8,0.2","3:go_c","",""
"null","","html-keyboard-response","464","1092514","0.0-6.0-1.81","","<img src=""img/red-r.png"" border=""10"">","null","trial","32","","0.8,0.2","3:go_c","1",""
"null","","html-keyboard-response","465","1093515","0.0-6.0-2.81","","<div style=""font-size:60px;"">+</div>","null","","","","","","",""
"645.6250001210719","","image-keyboard-response","466","1094161","0.0-6.0-0.82","","img/blue.png","32","trial","32","true","0.8,0.2","1:go_a","",""
"null","","html-keyboard-response","467","1095162","0.0-6.0-1.82","","<img src=""img/blue-r.png"" border=""10"">","null","trial","32","","0.8,0.2","1:go_a","1",""
"null","","html-keyboard-response","468","1096164","0.0-6.0-2.82","","<div style=""font-size:60px;"">+</div>","null","","","","","","",""
"null","","image-keyboard-response","469","1097665","0.0-6.0-0.83","","img/green.png","null","trial","null","true","0.2,0.8","4:nogo_d","",""
"null","","html-keyboard-response","470","1098667","0.0-6.0-1.83","","<img src=""img/green-r.png"">","null","trial","null","","0.2,0.8","4:nogo_d","1",""
"null","","html-keyboard-response","471","1099668","0.0-6.0-2.83","","<div style=""font-size:60px;"">+</div>","null","","","","","","",""
"null","","image-keyboard-response","472","1101170","0.0-6.0-0.84","","img/green.png","null","trial","null","true","0.2,0.8","4:nogo_d","",""
"null","","html-keyboard-response","473","1102171","0.0-6.0-1.84","","<img src=""img/green-r.png"">","null","trial","null","","0.2,0.8","4:nogo_d","1",""
"null","","html-keyboard-response","474","1103174","0.0-6.0-2.84","","<div style=""font-size:60px;"">+</div>","null","","","","","","",""
"496.7100000940263","","image-keyboard-response","475","1103671","0.0-6.0-0.85","","img/red.png","32","trial","32","true","0.8,0.2","3:go_c","",""
"null","","html-keyboard-response","476","1104673","0.0-6.0-1.85","","<img src=""img/red-r.png"" border=""10"">","null","trial","32","","0.8,0.2","3:go_c","1",""
"null","","html-keyboard-response","477","1105674","0.0-6.0-2.85","","<div style=""font-size:60px;"">+</div>","null","","","","","","",""
"null","","image-keyboard-response","478","1107175","0.0-6.0-0.86","","img/purple.png","null","trial","null","true","0.2,0.8","2:nogo_b","",""
"null","","html-keyboard-response","479","1108177","0.0-6.0-1.86","","<img src=""img/purple-r.png"">","null","trial","null","","0.2,0.8","2:nogo_b","1",""
"null","","html-keyboard-response","480","1109178","0.0-6.0-2.86","","<div style=""font-size:60px;"">+</div>","null","","","","","","",""
"587.8549998160452","","image-keyboard-response","481","1109768","0.0-6.0-0.87","","img/blue.png","32","trial","32","true","0.8,0.2","1:go_a","",""
"null","","html-keyboard-response","482","1110770","0.0-6.0-1.87","","<img src=""img/blue-r.png"" border=""10"">","null","trial","32","","0.8,0.2","1:go_a","1",""
"null","","html-keyboard-response","483","1111772","0.0-6.0-2.87","","<div style=""font-size:60px;"">+</div>","null","","","","","","",""
"524.7100000269711","","image-keyboard-response","484","1112297","0.0-6.0-0.88","","img/blue.png","32","trial","32","true","0.8,0.2","1:go_a","",""
"null","","html-keyboard-response","485","1113299","0.0-6.0-1.88","","<img src=""img/blue-n.png"" border=""10"">","null","trial","32","","0.8,0.2","1:go_a","0",""
"null","","html-keyboard-response","486","1114301","0.0-6.0-2.88","","<div style=""font-size:60px;"">+</div>","null","","","","","","",""
"607.9150000587106","","image-keyboard-response","487","1114909","0.0-6.0-0.89","","img/red.png","32","trial","32","true","0.8,0.2","3:go_c","",""
"null","","html-keyboard-response","488","1115912","0.0-6.0-1.89","","<img src=""img/red-r.png"" border=""10"">","null","trial","32","","0.8,0.2","3:go_c","1",""
"null","","html-keyboard-response","489","1116914","0.0-6.0-2.89","","<div style=""font-size:60px;"">+</div>","null","","","","","","",""
"null","","image-keyboard-response","490","1118415","0.0-6.0-0.90","","img/purple.png","null","trial","null","true","0.2,0.8","2:nogo_b","",""
"null","","html-keyboard-response","491","1119416","0.0-6.0-1.90","","<img src=""img/purple-r.png"">","null","trial","null","","0.2,0.8","2:nogo_b","1",""
"null","","html-keyboard-response","492","1120417","0.0-6.0-2.90","","<div style=""font-size:60px;"">+</div>","null","","","","","","",""
"null","","image-keyboard-response","493","1121919","0.0-6.0-0.91","","img/green.png","null","trial","null","true","0.2,0.8","4:nogo_d","",""
"null","","html-keyboard-response","494","1122921","0.0-6.0-1.91","","<img src=""img/green-r.png"">","null","trial","null","","0.2,0.8","4:nogo_d","1",""
"null","","html-keyboard-response","495","1123922","0.0-6.0-2.91","","<div style=""font-size:60px;"">+</div>","null","","","","","","",""
"null","","image-keyboard-response","496","1125423","0.0-6.0-0.92","","img/green.png","null","trial","null","true","0.2,0.8","4:nogo_d","",""
"null","","html-keyboard-response","497","1126425","0.0-6.0-1.92","","<img src=""img/green-n.png"">","null","trial","null","","0.2,0.8","4:nogo_d","0",""
"null","","html-keyboard-response","498","1127426","0.0-6.0-2.92","","<div style=""font-size:60px;"">+</div>","null","","","","","","",""
"639.9749999400228","","image-keyboard-response","499","1128067","0.0-6.0-0.93","","img/blue.png","32","trial","32","true","0.8,0.2","1:go_a","",""
"null","","html-keyboard-response","500","1129069","0.0-6.0-1.93","","<img src=""img/blue-r.png"" border=""10"">","null","trial","32","","0.8,0.2","1:go_a","1",""
"null","","html-keyboard-response","501","1130071","0.0-6.0-2.93","","<div style=""font-size:60px;"">+</div>","null","","","","","","",""
"null","","image-keyboard-response","502","1131573","0.0-6.0-0.94","","img/purple.png","null","trial","null","true","0.2,0.8","2:nogo_b","",""
"null","","html-keyboard-response","503","1132574","0.0-6.0-1.94","","<img src=""img/purple-r.png"">","null","trial","null","","0.2,0.8","2:nogo_b","1",""
"null","","html-keyboard-response","504","1133575","0.0-6.0-2.94","","<div style=""font-size:60px;"">+</div>","null","","","","","","",""
"720.7150000613183","","image-keyboard-response","505","1134296","0.0-6.0-0.95","","img/red.png","32","trial","32","true","0.8,0.2","3:go_c","",""
"null","","html-keyboard-response","506","1135297","0.0-6.0-1.95","","<img src=""img/red-r.png"" border=""10"">","null","trial","32","","0.8,0.2","3:go_c","1",""
"null","","html-keyboard-response","507","1136298","0.0-6.0-2.95","","<div style=""font-size:60px;"">+</div>","null","","","","","","",""
"null","","image-keyboard-response","508","1137800","0.0-6.0-0.96","","img/green.png","null","trial","null","true","0.2,0.8","4:nogo_d","",""
"null","","html-keyboard-response","509","1138802","0.0-6.0-1.96","","<img src=""img/green-r.png"">","null","trial","null","","0.2,0.8","4:nogo_d","1",""
"null","","html-keyboard-response","510","1139803","0.0-6.0-2.96","","<div style=""font-size:60px;"">+</div>","null","","","","","","",""
"558.0649999901652","","image-keyboard-response","511","1140362","0.0-6.0-0.97","","img/red.png","32","trial","32","true","0.8,0.2","3:go_c","",""
"null","","html-keyboard-response","512","1141365","0.0-6.0-1.97","","<img src=""img/red-r.png"" border=""10"">","null","trial","32","","0.8,0.2","3:go_c","1",""
"null","","html-keyboard-response","513","1142366","0.0-6.0-2.97","","<div style=""font-size:60px;"">+</div>","null","","","","","","",""
"null","","image-keyboard-response","514","1143868","0.0-6.0-0.98","","img/purple.png","null","trial","null","true","0.2,0.8","2:nogo_b","",""
"null","","html-keyboard-response","515","1144869","0.0-6.0-1.98","","<img src=""img/purple-r.png"">","null","trial","null","","0.2,0.8","2:nogo_b","1",""
"null","","html-keyboard-response","516","1145871","0.0-6.0-2.98","","<div style=""font-size:60px;"">+</div>","null","","","","","","",""
"702.3599999956787","","image-keyboard-response","517","1146574","0.0-6.0-0.99","","img/blue.png","32","trial","32","true","0.8,0.2","1:go_a","",""
"null","","html-keyboard-response","518","1147575","0.0-6.0-1.99","","<img src=""img/blue-r.png"" border=""10"">","null","trial","32","","0.8,0.2","1:go_a","1",""
"null","","html-keyboard-response","519","1148576","0.0-6.0-2.99","","<div style=""font-size:60px;"">+</div>","null","","","","","","",""
"null","","image-keyboard-response","520","1150077","0.0-6.0-0.100","","img/green.png","null","trial","null","true","0.2,0.8","4:nogo_d","",""
"null","","html-keyboard-response","521","1151079","0.0-6.0-1.100","","<img src=""img/green-r.png"">","null","trial","null","","0.2,0.8","4:nogo_d","1",""
"null","","html-keyboard-response","522","1152081","0.0-6.0-2.100","","<div style=""font-size:60px;"">+</div>","null","","","","","","",""
"null","","image-keyboard-response","523","1153584","0.0-6.0-0.101","","img/purple.png","null","trial","null","true","0.2,0.8","2:nogo_b","",""
"null","","html-keyboard-response","524","1154585","0.0-6.0-1.101","","<img src=""img/purple-r.png"">","null","trial","null","","0.2,0.8","2:nogo_b","1",""
"null","","html-keyboard-response","525","1155587","0.0-6.0-2.101","","<div style=""font-size:60px;"">+</div>","null","","","","","","",""
"1367.020000005141","","image-keyboard-response","526","1156954","0.0-6.0-0.102","","img/blue.png","32","trial","32","true","0.8,0.2","1:go_a","",""
"null","","html-keyboard-response","527","1157956","0.0-6.0-1.102","","<img src=""img/blue-r.png"" border=""10"">","null","trial","32","","0.8,0.2","1:go_a","1",""
"null","","html-keyboard-response","528","1158957","0.0-6.0-2.102","","<div style=""font-size:60px;"">+</div>","null","","","","","","",""
"482.04500018619","","image-keyboard-response","529","1159440","0.0-6.0-0.103","","img/red.png","32","trial","32","true","0.8,0.2","3:go_c","",""
"null","","html-keyboard-response","530","1160442","0.0-6.0-1.103","","<img src=""img/red-r.png"" border=""10"">","null","trial","32","","0.8,0.2","3:go_c","1",""
"null","","html-keyboard-response","531","1161443","0.0-6.0-2.103","","<div style=""font-size:60px;"">+</div>","null","","","","","","",""
"490.189999807626","","image-keyboard-response","532","1161934","0.0-6.0-0.104","","img/red.png","32","trial","32","true","0.8,0.2","3:go_c","",""
"null","","html-keyboard-response","533","1162936","0.0-6.0-1.104","","<img src=""img/red-r.png"" border=""10"">","null","trial","32","","0.8,0.2","3:go_c","1",""
"null","","html-keyboard-response","534","1163937","0.0-6.0-2.104","","<div style=""font-size:60px;"">+</div>","null","","","","","","",""
"null","","image-keyboard-response","535","1165439","0.0-6.0-0.105","","img/purple.png","null","trial","null","true","0.2,0.8","2:nogo_b","",""
"null","","html-keyboard-response","536","1166441","0.0-6.0-1.105","","<img src=""img/purple-r.png"">","null","trial","null","","0.2,0.8","2:nogo_b","1",""
"null","","html-keyboard-response","537","1167442","0.0-6.0-2.105","","<div style=""font-size:60px;"">+</div>","null","","","","","","",""
"null","","image-keyboard-response","538","1168943","0.0-6.0-0.106","","img/green.png","null","trial","null","true","0.2,0.8","4:nogo_d","",""
"null","","html-keyboard-response","539","1169946","0.0-6.0-1.106","","<img src=""img/green-n.png"">","null","trial","null","","0.2,0.8","4:nogo_d","0",""
"null","","html-keyboard-response","540","1170947","0.0-6.0-2.106","","<div style=""font-size:60px;"">+</div>","null","","","","","","",""
"479.4850000180304","","image-keyboard-response","541","1171428","0.0-6.0-0.107","","img/blue.png","32","trial","32","true","0.8,0.2","1:go_a","",""
"null","","html-keyboard-response","542","1172429","0.0-6.0-1.107","","<img src=""img/blue-r.png"" border=""10"">","null","trial","32","","0.8,0.2","1:go_a","1",""
"null","","html-keyboard-response","543","1173430","0.0-6.0-2.107","","<div style=""font-size:60px;"">+</div>","null","","","","","","",""
"null","","image-keyboard-response","544","1174933","0.0-6.0-0.108","","img/purple.png","null","trial","null","true","0.2,0.8","2:nogo_b","",""
"null","","html-keyboard-response","545","1175935","0.0-6.0-1.108","","<img src=""img/purple-n.png"">","null","trial","null","","0.2,0.8","2:nogo_b","0",""
"null","","html-keyboard-response","546","1176937","0.0-6.0-2.108","","<div style=""font-size:60px;"">+</div>","null","","","","","","",""
"null","","image-keyboard-response","547","1178437","0.0-6.0-0.109","","img/green.png","null","trial","null","true","0.2,0.8","4:nogo_d","",""
"null","","html-keyboard-response","548","1179439","0.0-6.0-1.109","","<img src=""img/green-r.png"">","null","trial","null","","0.2,0.8","4:nogo_d","1",""
"null","","html-keyboard-response","549","1180441","0.0-6.0-2.109","","<div style=""font-size:60px;"">+</div>","null","","","","","","",""
"548.4450000803918","","image-keyboard-response","550","1180990","0.0-6.0-0.110","","img/blue.png","32","trial","32","true","0.8,0.2","1:go_a","",""
"null","","html-keyboard-response","551","1181991","0.0-6.0-1.110","","<img src=""img/blue-r.png"" border=""10"">","null","trial","32","","0.8,0.2","1:go_a","1",""
"null","","html-keyboard-response","552","1182993","0.0-6.0-2.110","","<div style=""font-size:60px;"">+</div>","null","","","","","","",""
"608.2849998492748","","image-keyboard-response","553","1183602","0.0-6.0-0.111","","img/red.png","32","trial","32","true","0.8,0.2","3:go_c","",""
"null","","html-keyboard-response","554","1184603","0.0-6.0-1.111","","<img src=""img/red-r.png"" border=""10"">","null","trial","32","","0.8,0.2","3:go_c","1",""
"null","","html-keyboard-response","555","1185605","0.0-6.0-2.111","","<div style=""font-size:60px;"">+</div>","null","","","","","","",""
"953.9150001946837","","image-keyboard-response","556","1186560","0.0-6.0-0.112","","img/red.png","32","trial","32","true","0.8,0.2","3:go_c","",""
"null","","html-keyboard-response","557","1187563","0.0-6.0-1.112","","<img src=""img/red-r.png"" border=""10"">","null","trial","32","","0.8,0.2","3:go_c","1",""
"null","","html-keyboard-response","558","1188565","0.0-6.0-2.112","","<div style=""font-size:60px;"">+</div>","null","","","","","","",""
"390.65499999560416","","image-keyboard-response","559","1188956","0.0-6.0-0.113","","img/blue.png","32","trial","32","true","0.8,0.2","1:go_a","",""
"null","","html-keyboard-response","560","1189958","0.0-6.0-1.113","","<img src=""img/blue-r.png"" border=""10"">","null","trial","32","","0.8,0.2","1:go_a","1",""
"null","","html-keyboard-response","561","1190959","0.0-6.0-2.113","","<div style=""font-size:60px;"">+</div>","null","","","","","","",""
"null","","image-keyboard-response","562","1192462","0.0-6.0-0.114","","img/purple.png","null","trial","null","true","0.2,0.8","2:nogo_b","",""
"null","","html-keyboard-response","563","1193464","0.0-6.0-1.114","","<img src=""img/purple-r.png"">","null","trial","null","","0.2,0.8","2:nogo_b","1",""
"null","","html-keyboard-response","564","1194466","0.0-6.0-2.114","","<div style=""font-size:60px;"">+</div>","null","","","","","","",""
"null","","image-keyboard-response","565","1195966","0.0-6.0-0.115","","img/green.png","null","trial","null","true","0.2,0.8","4:nogo_d","",""
"null","","html-keyboard-response","566","1196968","0.0-6.0-1.115","","<img src=""img/green-r.png"">","null","trial","null","","0.2,0.8","4:nogo_d","1",""
"null","","html-keyboard-response","567","1197970","0.0-6.0-2.115","","<div style=""font-size:60px;"">+</div>","null","","","","","","",""
"556.8150000181049","","image-keyboard-response","568","1198528","0.0-6.0-0.116","","img/blue.png","32","trial","32","true","0.8,0.2","1:go_a","",""
"null","","html-keyboard-response","569","1199532","0.0-6.0-1.116","","<img src=""img/blue-r.png"" border=""10"">","null","trial","32","","0.8,0.2","1:go_a","1",""
"null","","html-keyboard-response","570","1200534","0.0-6.0-2.116","","<div style=""font-size:60px;"">+</div>","null","","","","","","",""
"null","","image-keyboard-response","571","1202036","0.0-6.0-0.117","","img/green.png","null","trial","null","true","0.2,0.8","4:nogo_d","",""
"null","","html-keyboard-response","572","1203040","0.0-6.0-1.117","","<img src=""img/green-r.png"">","null","trial","null","","0.2,0.8","4:nogo_d","1",""
"null","","html-keyboard-response","573","1204041","0.0-6.0-2.117","","<div style=""font-size:60px;"">+</div>","null","","","","","","",""
"516.2949999794364","","image-keyboard-response","574","1204559","0.0-6.0-0.118","","img/red.png","32","trial","32","true","0.8,0.2","3:go_c","",""
"null","","html-keyboard-response","575","1205564","0.0-6.0-1.118","","<img src=""img/red-r.png"" border=""10"">","null","trial","32","","0.8,0.2","3:go_c","1",""
"null","","html-keyboard-response","576","1206566","0.0-6.0-2.118","","<div style=""font-size:60px;"">+</div>","null","","","","","","",""
"null","","image-keyboard-response","577","1208067","0.0-6.0-0.119","","img/purple.png","null","trial","null","true","0.2,0.8","2:nogo_b","",""
"null","","html-keyboard-response","578","1209068","0.0-6.0-1.119","","<img src=""img/purple-r.png"">","null","trial","null","","0.2,0.8","2:nogo_b","1",""
"null","","html-keyboard-response","579","1210069","0.0-6.0-2.119","","<div style=""font-size:60px;"">+</div>","null","","","","","","",""
"138672.23500018008","","instructions","580","1348741","0.0-7.0","[{""page_index"":0,""viewing_time"":138671.88500007614}]","","","","","","","","",""
"692.9299999028444","","image-keyboard-response","581","1349436","0.0-8.0-0.0","","img/orange.png","32","trial","32","true","1,0","3:go_c","",""
"null","","html-keyboard-response","582","1350438","0.0-8.0-1.0","","<img src=""img/orange-r.png"" border=""10"">","null","trial","32","","1,0","3:go_c","1",""
"null","","html-keyboard-response","583","1351439","0.0-8.0-2.0","","<div style=""font-size:60px;"">+</div>","null","","","","","","",""
"456.4650000538677","","image-keyboard-response","584","1351896","0.0-8.0-0.1","","img/blue.png","32","trial","32","true","0.8,0.2","1:go_a","",""
"null","","html-keyboard-response","585","1352899","0.0-8.0-1.1","","<img src=""img/blue-r.png"" border=""10"">","null","trial","32","","0.8,0.2","1:go_a","1",""
"null","","html-keyboard-response","586","1353900","0.0-8.0-2.1","","<div style=""font-size:60px;"">+</div>","null","","","","","","",""
"null","","image-keyboard-response","587","1355401","0.0-8.0-0.2","","img/pink.png","null","trial","null","true","0.2,0.8","2:nogo_b","",""
"null","","html-keyboard-response","588","1356403","0.0-8.0-1.2","","<img src=""img/pink-r.png"">","null","trial","null","","0.2,0.8","2:nogo_b","1",""
"null","","html-keyboard-response","589","1357403","0.0-8.0-2.2","","<div style=""font-size:60px;"">+</div>","null","","","","","","",""
"null","","image-keyboard-response","590","1358905","0.0-8.0-0.3","","img/red.png","null","trial","null","true","0,1","4:nogo_d","",""
"null","","html-keyboard-response","591","1359908","0.0-8.0-1.3","","<img src=""img/red-r.png"">","null","trial","null","","0,1","4:nogo_d","1",""
"null","","html-keyboard-response","592","1360910","0.0-8.0-2.3","","<div style=""font-size:60px;"">+</div>","null","","","","","","",""
"613.3649998810142","","image-keyboard-response","593","1361524","0.0-8.0-0.4","","img/blue.png","32","trial","32","true","0.8,0.2","1:go_a","",""
"null","","html-keyboard-response","594","1362526","0.0-8.0-1.4","","<img src=""img/blue-r.png"" border=""10"">","null","trial","32","","0.8,0.2","1:go_a","1",""
"null","","html-keyboard-response","595","1363528","0.0-8.0-2.4","","<div style=""font-size:60px;"">+</div>","null","","","","","","",""
"null","","image-keyboard-response","596","1365030","0.0-8.0-0.5","","img/pink.png","null","trial","null","true","0.2,0.8","2:nogo_b","",""
"null","","html-keyboard-response","597","1366032","0.0-8.0-1.5","","<img src=""img/pink-r.png"">","null","trial","null","","0.2,0.8","2:nogo_b","1",""
"null","","html-keyboard-response","598","1367033","0.0-8.0-2.5","","<div style=""font-size:60px;"">+</div>","null","","","","","","",""
"447.5000000093132","","image-keyboard-response","599","1367481","0.0-8.0-0.6","","img/orange.png","32","trial","32","true","1,0","3:go_c","",""
"null","","html-keyboard-response","600","1368483","0.0-8.0-1.6","","<img src=""img/orange-r.png"" border=""10"">","null","trial","32","","1,0","3:go_c","1",""
"null","","html-keyboard-response","601","1369484","0.0-8.0-2.6","","<div style=""font-size:60px;"">+</div>","null","","","","","","",""
"null","","image-keyboard-response","602","1370986","0.0-8.0-0.7","","img/red.png","null","trial","null","true","0,1","4:nogo_d","",""
"null","","html-keyboard-response","603","1371989","0.0-8.0-1.7","","<img src=""img/red-r.png"">","null","trial","null","","0,1","4:nogo_d","1",""
"null","","html-keyboard-response","604","1372990","0.0-8.0-2.7","","<div style=""font-size:60px;"">+</div>","null","","","","","","",""
"null","","image-keyboard-response","605","1374492","0.0-8.0-0.8","","img/pink.png","null","trial","null","true","0.2,0.8","2:nogo_b","",""
"null","","html-keyboard-response","606","1375494","0.0-8.0-1.8","","<img src=""img/pink-r.png"">","null","trial","null","","0.2,0.8","2:nogo_b","1",""
"null","","html-keyboard-response","607","1376497","0.0-8.0-2.8","","<div style=""font-size:60px;"">+</div>","null","","","","","","",""
"422.19500010833144","","image-keyboard-response","608","1376919","0.0-8.0-0.9","","img/blue.png","32","trial","32","true","0.8,0.2","1:go_a","",""
"null","","html-keyboard-response","609","1377922","0.0-8.0-1.9","","<img src=""img/blue-r.png"" border=""10"">","null","trial","32","","0.8,0.2","1:go_a","1",""
"null","","html-keyboard-response","610","1378923","0.0-8.0-2.9","","<div style=""font-size:60px;"">+</div>","null","","","","","","",""
"null","","image-keyboard-response","611","1380426","0.0-8.0-0.10","","img/red.png","null","trial","null","true","0,1","4:nogo_d","",""
"null","","html-keyboard-response","612","1381428","0.0-8.0-1.10","","<img src=""img/red-r.png"">","null","trial","null","","0,1","4:nogo_d","1",""
"null","","html-keyboard-response","613","1382429","0.0-8.0-2.10","","<div style=""font-size:60px;"">+</div>","null","","","","","","",""
"459.61999986320734","","image-keyboard-response","614","1382889","0.0-8.0-0.11","","img/orange.png","32","trial","32","true","1,0","3:go_c","",""
"null","","html-keyboard-response","615","1383891","0.0-8.0-1.11","","<img src=""img/orange-r.png"" border=""10"">","null","trial","32","","1,0","3:go_c","1",""
"null","","html-keyboard-response","616","1384892","0.0-8.0-2.11","","<div style=""font-size:60px;"">+</div>","null","","","","","","",""
"622.5899998098612","","image-keyboard-response","617","1385515","0.0-8.0-0.12","","img/orange.png","32","trial","32","true","1,0","3:go_c","",""
"null","","html-keyboard-response","618","1386518","0.0-8.0-1.12","","<img src=""img/orange-r.png"" border=""10"">","null","trial","32","","1,0","3:go_c","1",""
"null","","html-keyboard-response","619","1387520","0.0-8.0-2.12","","<div style=""font-size:60px;"">+</div>","null","","","","","","",""
"null","","image-keyboard-response","620","1389022","0.0-8.0-0.13","","img/pink.png","null","trial","null","true","0.2,0.8","2:nogo_b","",""
"null","","html-keyboard-response","621","1390023","0.0-8.0-1.13","","<img src=""img/pink-r.png"">","null","trial","null","","0.2,0.8","2:nogo_b","1",""
"null","","html-keyboard-response","622","1391024","0.0-8.0-2.13","","<div style=""font-size:60px;"">+</div>","null","","","","","","",""
"586.7799997795373","","image-keyboard-response","623","1391612","0.0-8.0-0.14","","img/blue.png","32","trial","32","true","0.8,0.2","1:go_a","",""
"null","","html-keyboard-response","624","1392614","0.0-8.0-1.14","","<img src=""img/blue-r.png"" border=""10"">","null","trial","32","","0.8,0.2","1:go_a","1",""
"null","","html-keyboard-response","625","1393616","0.0-8.0-2.14","","<div style=""font-size:60px;"">+</div>","null","","","","","","",""
"null","","image-keyboard-response","626","1395117","0.0-8.0-0.15","","img/red.png","null","trial","null","true","0,1","4:nogo_d","",""
"null","","html-keyboard-response","627","1396120","0.0-8.0-1.15","","<img src=""img/red-r.png"">","null","trial","null","","0,1","4:nogo_d","1",""
"null","","html-keyboard-response","628","1397121","0.0-8.0-2.15","","<div style=""font-size:60px;"">+</div>","null","","","","","","",""
"429.86500007100403","","image-keyboard-response","629","1397551","0.0-8.0-0.16","","img/blue.png","32","trial","32","true","0.8,0.2","1:go_a","",""
"null","","html-keyboard-response","630","1398554","0.0-8.0-1.16","","<img src=""img/blue-r.png"" border=""10"">","null","trial","32","","0.8,0.2","1:go_a","1",""
"null","","html-keyboard-response","631","1399555","0.0-8.0-2.16","","<div style=""font-size:60px;"">+</div>","null","","","","","","",""
"null","","image-keyboard-response","632","1401056","0.0-8.0-0.17","","img/red.png","null","trial","null","true","0,1","4:nogo_d","",""
"null","","html-keyboard-response","633","1402057","0.0-8.0-1.17","","<img src=""img/red-r.png"">","null","trial","null","","0,1","4:nogo_d","1",""
"null","","html-keyboard-response","634","1403058","0.0-8.0-2.17","","<div style=""font-size:60px;"">+</div>","null","","","","","","",""
"470.38500010967255","","image-keyboard-response","635","1403529","0.0-8.0-0.18","","img/orange.png","32","trial","32","true","1,0","3:go_c","",""
"null","","html-keyboard-response","636","1404531","0.0-8.0-1.18","","<img src=""img/orange-r.png"" border=""10"">","null","trial","32","","1,0","3:go_c","1",""
"null","","html-keyboard-response","637","1405532","0.0-8.0-2.18","","<div style=""font-size:60px;"">+</div>","null","","","","","","",""
"null","","image-keyboard-response","638","1407034","0.0-8.0-0.19","","img/pink.png","null","trial","null","true","0.2,0.8","2:nogo_b","",""
"null","","html-keyboard-response","639","1408036","0.0-8.0-1.19","","<img src=""img/pink-r.png"">","null","trial","null","","0.2,0.8","2:nogo_b","1",""
"null","","html-keyboard-response","640","1409037","0.0-8.0-2.19","","<div style=""font-size:60px;"">+</div>","null","","","","","","",""
"475.0050001312047","","image-keyboard-response","641","1409513","0.0-8.0-0.20","","img/orange.png","32","trial","32","true","1,0","3:go_c","",""
"null","","html-keyboard-response","642","1410515","0.0-8.0-1.20","","<img src=""img/orange-r.png"" border=""10"">","null","trial","32","","1,0","3:go_c","1",""
"null","","html-keyboard-response","643","1411516","0.0-8.0-2.20","","<div style=""font-size:60px;"">+</div>","null","","","","","","",""
"396.4250001590699","","image-keyboard-response","644","1411913","0.0-8.0-0.21","","img/blue.png","32","trial","32","true","0.8,0.2","1:go_a","",""
"null","","html-keyboard-response","645","1412915","0.0-8.0-1.21","","<img src=""img/blue-r.png"" border=""10"">","null","trial","32","","0.8,0.2","1:go_a","1",""
"null","","html-keyboard-response","646","1413917","0.0-8.0-2.21","","<div style=""font-size:60px;"">+</div>","null","","","","","","",""
"null","","image-keyboard-response","647","1415420","0.0-8.0-0.22","","img/red.png","null","trial","null","true","0,1","4:nogo_d","",""
"null","","html-keyboard-response","648","1416421","0.0-8.0-1.22","","<img src=""img/red-r.png"">","null","trial","null","","0,1","4:nogo_d","1",""
"null","","html-keyboard-response","649","1417423","0.0-8.0-2.22","","<div style=""font-size:60px;"">+</div>","null","","","","","","",""
"null","","image-keyboard-response","650","1418924","0.0-8.0-0.23","","img/pink.png","null","trial","null","true","0.2,0.8","2:nogo_b","",""
"null","","html-keyboard-response","651","1419925","0.0-8.0-1.23","","<img src=""img/pink-r.png"">","null","trial","null","","0.2,0.8","2:nogo_b","1",""
"null","","html-keyboard-response","652","1420928","0.0-8.0-2.23","","<div style=""font-size:60px;"">+</div>","null","","","","","","",""
"null","","image-keyboard-response","653","1422429","0.0-8.0-0.24","","img/pink.png","null","trial","null","true","0.2,0.8","2:nogo_b","",""
"null","","html-keyboard-response","654","1423432","0.0-8.0-1.24","","<img src=""img/pink-r.png"">","null","trial","null","","0.2,0.8","2:nogo_b","1",""
"null","","html-keyboard-response","655","1424433","0.0-8.0-2.24","","<div style=""font-size:60px;"">+</div>","null","","","","","","",""
"null","","image-keyboard-response","656","1425935","0.0-8.0-0.25","","img/red.png","null","trial","null","true","0,1","4:nogo_d","",""
"null","","html-keyboard-response","657","1426937","0.0-8.0-1.25","","<img src=""img/red-r.png"">","null","trial","null","","0,1","4:nogo_d","1",""
"null","","html-keyboard-response","658","1427938","0.0-8.0-2.25","","<div style=""font-size:60px;"">+</div>","null","","","","","","",""
"1014.3300001509488","","image-keyboard-response","659","1428953","0.0-8.0-0.26","","img/blue.png","32","trial","32","true","0.8,0.2","1:go_a","",""
"null","","html-keyboard-response","660","1429954","0.0-8.0-1.26","","<img src=""img/blue-r.png"" border=""10"">","null","trial","32","","0.8,0.2","1:go_a","1",""
"null","","html-keyboard-response","661","1430957","0.0-8.0-2.26","","<div style=""font-size:60px;"">+</div>","null","","","","","","",""
"591.8450001627207","","image-keyboard-response","662","1431549","0.0-8.0-0.27","","img/orange.png","32","trial","32","true","1,0","3:go_c","",""
"null","","html-keyboard-response","663","1432550","0.0-8.0-1.27","","<img src=""img/orange-r.png"" border=""10"">","null","trial","32","","1,0","3:go_c","1",""
"null","","html-keyboard-response","664","1433552","0.0-8.0-2.27","","<div style=""font-size:60px;"">+</div>","null","","","","","","",""
"624.6200001332909","","image-keyboard-response","665","1434177","0.0-8.0-0.28","","img/orange.png","32","trial","32","true","1,0","3:go_c","",""
"null","","html-keyboard-response","666","1435179","0.0-8.0-1.28","","<img src=""img/orange-r.png"" border=""10"">","null","trial","32","","1,0","3:go_c","1",""
"null","","html-keyboard-response","667","1436180","0.0-8.0-2.28","","<div style=""font-size:60px;"">+</div>","null","","","","","","",""
"null","","image-keyboard-response","668","1437681","0.0-8.0-0.29","","img/pink.png","null","trial","null","true","0.2,0.8","2:nogo_b","",""
"null","","html-keyboard-response","669","1438683","0.0-8.0-1.29","","<img src=""img/pink-r.png"">","null","trial","null","","0.2,0.8","2:nogo_b","1",""
"null","","html-keyboard-response","670","1439685","0.0-8.0-2.29","","<div style=""font-size:60px;"">+</div>","null","","","","","","",""
"null","","image-keyboard-response","671","1441186","0.0-8.0-0.30","","img/red.png","null","trial","null","true","0,1","4:nogo_d","",""
"null","","html-keyboard-response","672","1442187","0.0-8.0-1.30","","<img src=""img/red-r.png"">","null","trial","null","","0,1","4:nogo_d","1",""
"null","","html-keyboard-response","673","1443189","0.0-8.0-2.30","","<div style=""font-size:60px;"">+</div>","null","","","","","","",""
"457.35000004060566","","image-keyboard-response","674","1443647","0.0-8.0-0.31","","img/blue.png","32","trial","32","true","0.8,0.2","1:go_a","",""
"null","","html-keyboard-response","675","1444649","0.0-8.0-1.31","","<img src=""img/blue-r.png"" border=""10"">","null","trial","32","","0.8,0.2","1:go_a","1",""
"null","","html-keyboard-response","676","1445650","0.0-8.0-2.31","","<div style=""font-size:60px;"">+</div>","null","","","","","","",""
"null","","image-keyboard-response","677","1447151","0.0-8.0-0.32","","img/red.png","null","trial","null","true","0,1","4:nogo_d","",""
"null","","html-keyboard-response","678","1448153","0.0-8.0-1.32","","<img src=""img/red-r.png"">","null","trial","null","","0,1","4:nogo_d","1",""
"null","","html-keyboard-response","679","1449154","0.0-8.0-2.32","","<div style=""font-size:60px;"">+</div>","null","","","","","","",""
"563.9799998607486","","image-keyboard-response","680","1449719","0.0-8.0-0.33","","img/blue.png","32","trial","32","true","0.8,0.2","1:go_a","",""
"null","","html-keyboard-response","681","1450721","0.0-8.0-1.33","","<img src=""img/blue-r.png"" border=""10"">","null","trial","32","","0.8,0.2","1:go_a","1",""
