"rt","url","trial_type","trial_index","time_elapsed","internal_node_id","view_history","stimulus","key_press","test_part","correct_response","correct","use_rew","which_stim","reward","responses"
"35203.429999994114","consent.html","external-html","0","35419","0.0-0.0","","","","","","","","","",""
"52767.310000024736","","instructions","1","88194","0.0-1.0","[{""page_index"":0,""viewing_time"":3043.85500002536},{""page_index"":1,""viewing_time"":30572.14499998372},{""page_index"":2,""viewing_time"":5569.929999997839},{""page_index"":3,""viewing_time"":2526.284999999916},{""page_index"":4,""viewing_time"":6529.529999999795},{""page_index"":5,""viewing_time"":1888.5750000190455},{""page_index"":6,""viewing_time"":2635.954999976093}]","","","","","","","","",""
"null","","image-keyboard-response","2","89696","0.0-2.0-0.0","","img/test2.PNG","null","practice","null","true","","","",""
"null","","html-keyboard-response","3","90698","0.0-2.0-1.0","","<img src=""img/test2-reward.PNG"">","null","","","","","","",""
"null","","html-keyboard-response","4","91700","0.0-2.0-2.0","","<div style=""font-size:60px;"">+</div>","null","","","","","","",""
"387.43000000249594","","image-keyboard-response","5","92088","0.0-2.0-0.1","","img/test1.PNG","32","practice","32","true","","","",""
"null","","html-keyboard-response","6","93090","0.0-2.0-1.1","","<img src=""img/test1-reward.PNG"" border=""10px; grey"">","null","","","","","","",""
"null","","html-keyboard-response","7","94091","0.0-2.0-2.1","","<div style=""font-size:60px;"">+</div>","null","","","","","","",""
"545.0150000106078","","image-keyboard-response","8","94637","0.0-2.0-0.2","","img/test3.PNG","32","practice","null","false","","","",""
"null","","html-keyboard-response","9","95639","0.0-2.0-1.2","","<img src=""img/test3-neutral.PNG"" border=""10px; grey"">","null","","","","","","",""
"null","","html-keyboard-response","10","96640","0.0-2.0-2.2","","<div style=""font-size:60px;"">+</div>","null","","","","","","",""
"858.1249999988358","","image-keyboard-response","11","97500","0.0-2.0-0.3","","img/test2.PNG","32","practice","null","false","","","",""
"null","","html-keyboard-response","12","98502","0.0-2.0-1.3","","<img src=""img/test2-neutral.PNG"" border=""10px; grey"">","null","","","","","","",""
"null","","html-keyboard-response","13","99502","0.0-2.0-2.3","","<div style=""font-size:60px;"">+</div>","null","","","","","","",""
"null","","image-keyboard-response","14","101004","0.0-2.0-0.4","","img/test3.PNG","null","practice","null","true","","","",""
"null","","html-keyboard-response","15","102006","0.0-2.0-1.4","","<img src=""img/test3-reward.PNG"">","null","","","","","","",""
"null","","html-keyboard-response","16","103007","0.0-2.0-2.4","","<div style=""font-size:60px;"">+</div>","null","","","","","","",""
"567.8049999987707","","image-keyboard-response","17","103577","0.0-2.0-0.5","","img/test1.PNG","32","practice","32","true","","","",""
"null","","html-keyboard-response","18","104579","0.0-2.0-1.5","","<img src=""img/test1-reward.PNG"" border=""10px; grey"">","null","","","","","","",""
"null","","html-keyboard-response","19","105580","0.0-2.0-2.5","","<div style=""font-size:60px;"">+</div>","null","","","","","","",""
"824.5000000169966","","image-keyboard-response","20","106405","0.0-2.0-0.6","","img/test3.PNG","32","practice","null","false","","","",""
"null","","html-keyboard-response","21","107408","0.0-2.0-1.6","","<img src=""img/test3-neutral.PNG"" border=""10px; grey"">","null","","","","","","",""
"null","","html-keyboard-response","22","108409","0.0-2.0-2.6","","<div style=""font-size:60px;"">+</div>","null","","","","","","",""
"605.4399999848101","","image-keyboard-response","23","109016","0.0-2.0-0.7","","img/test1.PNG","32","practice","32","true","","","",""
"null","","html-keyboard-response","24","110017","0.0-2.0-1.7","","<img src=""img/test1-reward.PNG"" border=""10px; grey"">","null","","","","","","",""
"null","","html-keyboard-response","25","111018","0.0-2.0-2.7","","<div style=""font-size:60px;"">+</div>","null","","","","","","",""
"null","","image-keyboard-response","26","112520","0.0-2.0-0.8","","img/test2.PNG","null","practice","null","true","","","",""
"null","","html-keyboard-response","27","113522","0.0-2.0-1.8","","<img src=""img/test2-reward.PNG"">","null","","","","","","",""
"null","","html-keyboard-response","28","114523","0.0-2.0-2.8","","<div style=""font-size:60px;"">+</div>","null","","","","","","",""
"null","","image-keyboard-response","29","116025","0.0-2.0-0.9","","img/test2.PNG","null","practice","null","true","","","",""
"null","","html-keyboard-response","30","117026","0.0-2.0-1.9","","<img src=""img/test2-reward.PNG"">","null","","","","","","",""
"null","","html-keyboard-response","31","118027","0.0-2.0-2.9","","<div style=""font-size:60px;"">+</div>","null","","","","","","",""
"null","","image-keyboard-response","32","119529","0.0-2.0-0.10","","img/test3.PNG","null","practice","null","true","","","",""
"null","","html-keyboard-response","33","120531","0.0-2.0-1.10","","<img src=""img/test3-reward.PNG"">","null","","","","","","",""
"null","","html-keyboard-response","34","121532","0.0-2.0-2.10","","<div style=""font-size:60px;"">+</div>","null","","","","","","",""
"506.744999991497","","image-keyboard-response","35","122040","0.0-2.0-0.11","","img/test1.PNG","32","practice","32","true","","","",""
"null","","html-keyboard-response","36","123042","0.0-2.0-1.11","","<img src=""img/test1-reward.PNG"" border=""10px; grey"">","null","","","","","","",""
"null","","html-keyboard-response","37","124043","0.0-2.0-2.11","","<div style=""font-size:60px;"">+</div>","null","","","","","","",""
"47922.850000002654","","instructions","38","171966","0.0-3.0","[{""page_index"":0,""viewing_time"":47922.43999999482}]","","","","","","","","",""
"707.6750000123866","","image-keyboard-response","39","172676","0.0-4.0-0.0","","img/red.png","32","trial","32","true","0.8,0.2","1:go_a","",""
"null","","html-keyboard-response","40","173679","0.0-4.0-1.0","","<img src=""img/red-r.png"" border=""10"">","null","trial","32","","0.8,0.2","1:go_a","1",""
"null","","html-keyboard-response","41","174681","0.0-4.0-2.0","","<div style=""font-size:60px;"">+</div>","null","","","","","","",""
"832.8650000039488","","image-keyboard-response","42","175516","0.0-4.0-0.1","","img/orange.png","32","trial","null","false","0.2,0.8","2:nogo_b","",""
"null","","html-keyboard-response","43","176520","0.0-4.0-1.1","","<img src=""img/orange-n.png"" border=""10"">","null","trial","null","","0.2,0.8","2:nogo_b","0",""
"null","","html-keyboard-response","44","177521","0.0-4.0-2.1","","<div style=""font-size:60px;"">+</div>","null","","","","","","",""
"676.4949999924283","","image-keyboard-response","45","178199","0.0-4.0-0.2","","img/red.png","32","trial","32","true","0.8,0.2","1:go_a","",""
"null","","html-keyboard-response","46","179201","0.0-4.0-1.2","","<img src=""img/red-r.png"" border=""10"">","null","trial","32","","0.8,0.2","1:go_a","1",""
"null","","html-keyboard-response","47","180202","0.0-4.0-2.2","","<div style=""font-size:60px;"">+</div>","null","","","","","","",""
"null","","image-keyboard-response","48","181703","0.0-4.0-0.3","","img/orange.png","null","trial","null","true","0.2,0.8","2:nogo_b","",""
"null","","html-keyboard-response","49","182705","0.0-4.0-1.3","","<img src=""img/orange-r.png"">","null","trial","null","","0.2,0.8","2:nogo_b","1",""
"null","","html-keyboard-response","50","183706","0.0-4.0-2.3","","<div style=""font-size:60px;"">+</div>","null","","","","","","",""
"646.6399999917485","","image-keyboard-response","51","184354","0.0-4.0-0.4","","img/red.png","32","trial","32","true","0.8,0.2","1:go_a","",""
"null","","html-keyboard-response","52","185357","0.0-4.0-1.4","","<img src=""img/red-r.png"" border=""10"">","null","trial","32","","0.8,0.2","1:go_a","1",""
"null","","html-keyboard-response","53","186358","0.0-4.0-2.4","","<div style=""font-size:60px;"">+</div>","null","","","","","","",""
"null","","image-keyboard-response","54","187859","0.0-4.0-0.5","","img/orange.png","null","trial","null","true","0.2,0.8","2:nogo_b","",""
"null","","html-keyboard-response","55","188861","0.0-4.0-1.5","","<img src=""img/orange-r.png"">","null","trial","null","","0.2,0.8","2:nogo_b","1",""
"null","","html-keyboard-response","56","189862","0.0-4.0-2.5","","<div style=""font-size:60px;"">+</div>","null","","","","","","",""
"631.7500000004657","","image-keyboard-response","57","190495","0.0-4.0-0.6","","img/red.png","32","trial","32","true","0.8,0.2","1:go_a","",""
"null","","html-keyboard-response","58","191497","0.0-4.0-1.6","","<img src=""img/red-r.png"" border=""10"">","null","trial","32","","0.8,0.2","1:go_a","1",""
"null","","html-keyboard-response","59","192498","0.0-4.0-2.6","","<div style=""font-size:60px;"">+</div>","null","","","","","","",""
"null","","image-keyboard-response","60","194001","0.0-4.0-0.7","","img/orange.png","null","trial","null","true","0.2,0.8","2:nogo_b","",""
"null","","html-keyboard-response","61","195004","0.0-4.0-1.7","","<img src=""img/orange-r.png"">","null","trial","null","","0.2,0.8","2:nogo_b","1",""
"null","","html-keyboard-response","62","196005","0.0-4.0-2.7","","<div style=""font-size:60px;"">+</div>","null","","","","","","",""
"752.8350000211503","","image-keyboard-response","63","196759","0.0-4.0-0.8","","img/red.png","32","trial","32","true","0.8,0.2","1:go_a","",""
"null","","html-keyboard-response","64","197761","0.0-4.0-1.8","","<img src=""img/red-r.png"" border=""10"">","null","trial","32","","0.8,0.2","1:go_a","1",""
"null","","html-keyboard-response","65","198762","0.0-4.0-2.8","","<div style=""font-size:60px;"">+</div>","null","","","","","","",""
"979.2900000174996","","image-keyboard-response","66","199743","0.0-4.0-0.9","","img/orange.png","32","trial","null","false","0.2,0.8","2:nogo_b","",""
"null","","html-keyboard-response","67","200747","0.0-4.0-1.9","","<img src=""img/orange-r.png"" border=""10"">","null","trial","null","","0.2,0.8","2:nogo_b","1",""
"null","","html-keyboard-response","68","201748","0.0-4.0-2.9","","<div style=""font-size:60px;"">+</div>","null","","","","","","",""
"867.6949999935459","","image-keyboard-response","69","202628","0.0-4.0-0.10","","img/red.png","32","trial","32","true","0.8,0.2","1:go_a","",""
"null","","html-keyboard-response","70","203632","0.0-4.0-1.10","","<img src=""img/red-r.png"" border=""10"">","null","trial","32","","0.8,0.2","1:go_a","1",""
"null","","html-keyboard-response","71","204633","0.0-4.0-2.10","","<div style=""font-size:60px;"">+</div>","null","","","","","","",""
"635.1650000142399","","image-keyboard-response","72","205269","0.0-4.0-0.11","","img/orange.png","32","trial","null","false","0.2,0.8","2:nogo_b","",""
"null","","html-keyboard-response","73","206272","0.0-4.0-1.11","","<img src=""img/orange-r.png"" border=""10"">","null","trial","null","","0.2,0.8","2:nogo_b","1",""
"null","","html-keyboard-response","74","207277","0.0-4.0-2.11","","<div style=""font-size:60px;"">+</div>","null","","","","","","",""
"629.800000024261","","image-keyboard-response","75","207909","0.0-4.0-0.12","","img/red.png","32","trial","32","true","0.8,0.2","1:go_a","",""
"null","","html-keyboard-response","76","208911","0.0-4.0-1.12","","<img src=""img/red-n.png"" border=""10"">","null","trial","32","","0.8,0.2","1:go_a","0",""
"null","","html-keyboard-response","77","209913","0.0-4.0-2.12","","<div style=""font-size:60px;"">+</div>","null","","","","","","",""
"null","","image-keyboard-response","78","211417","0.0-4.0-0.13","","img/orange.png","null","trial","null","true","0.2,0.8","2:nogo_b","",""
"null","","html-keyboard-response","79","212424","0.0-4.0-1.13","","<img src=""img/orange-r.png"">","null","trial","null","","0.2,0.8","2:nogo_b","1",""
"null","","html-keyboard-response","80","213425","0.0-4.0-2.13","","<div style=""font-size:60px;"">+</div>","null","","","","","","",""
"null","","image-keyboard-response","81","214926","0.0-4.0-0.14","","img/red.png","null","trial","32","false","0.8,0.2","1:go_a","",""
"null","","html-keyboard-response","82","215928","0.0-4.0-1.14","","<img src=""img/red-n.png"">","null","trial","32","","0.8,0.2","1:go_a","0",""
"null","","html-keyboard-response","83","216929","0.0-4.0-2.14","","<div style=""font-size:60px;"">+</div>","null","","","","","","",""
"546.8249999976251","","image-keyboard-response","84","217477","0.0-4.0-0.15","","img/orange.png","32","trial","null","false","0.2,0.8","2:nogo_b","",""
"null","","html-keyboard-response","85","218481","0.0-4.0-1.15","","<img src=""img/orange-n.png"" border=""10"">","null","trial","null","","0.2,0.8","2:nogo_b","0",""
"null","","html-keyboard-response","86","219482","0.0-4.0-2.15","","<div style=""font-size:60px;"">+</div>","null","","","","","","",""
"528.954999987036","","image-keyboard-response","87","220012","0.0-4.0-0.16","","img/red.png","32","trial","32","true","0.8,0.2","1:go_a","",""
"null","","html-keyboard-response","88","221014","0.0-4.0-1.16","","<img src=""img/red-r.png"" border=""10"">","null","trial","32","","0.8,0.2","1:go_a","1",""
"null","","html-keyboard-response","89","222015","0.0-4.0-2.16","","<div style=""font-size:60px;"">+</div>","null","","","","","","",""
"588.4899999946356","","image-keyboard-response","90","222604","0.0-4.0-0.17","","img/orange.png","32","trial","null","false","0.2,0.8","2:nogo_b","",""
"null","","html-keyboard-response","91","223609","0.0-4.0-1.17","","<img src=""img/orange-n.png"" border=""10"">","null","trial","null","","0.2,0.8","2:nogo_b","0",""
"null","","html-keyboard-response","92","224609","0.0-4.0-2.17","","<div style=""font-size:60px;"">+</div>","null","","","","","","",""
"null","","image-keyboard-response","93","226111","0.0-4.0-0.18","","img/orange.png","null","trial","null","true","0.2,0.8","2:nogo_b","",""
"null","","html-keyboard-response","94","227113","0.0-4.0-1.18","","<img src=""img/orange-r.png"">","null","trial","null","","0.2,0.8","2:nogo_b","1",""
"null","","html-keyboard-response","95","228114","0.0-4.0-2.18","","<div style=""font-size:60px;"">+</div>","null","","","","","","",""
"570.67499999539","","image-keyboard-response","96","228686","0.0-4.0-0.19","","img/red.png","32","trial","32","true","0.8,0.2","1:go_a","",""
"null","","html-keyboard-response","97","229690","0.0-4.0-1.19","","<img src=""img/red-r.png"" border=""10"">","null","trial","32","","0.8,0.2","1:go_a","1",""
"null","","html-keyboard-response","98","230690","0.0-4.0-2.19","","<div style=""font-size:60px;"">+</div>","null","","","","","","",""
"595.6949999963399","","image-keyboard-response","99","231287","0.0-4.0-0.20","","img/red.png","32","trial","32","true","0.8,0.2","1:go_a","",""
"null","","html-keyboard-response","100","232289","0.0-4.0-1.20","","<img src=""img/red-r.png"" border=""10"">","null","trial","32","","0.8,0.2","1:go_a","1",""
"null","","html-keyboard-response","101","233291","0.0-4.0-2.20","","<div style=""font-size:60px;"">+</div>","null","","","","","","",""
"760.5399999883957","","image-keyboard-response","102","234052","0.0-4.0-0.21","","img/orange.png","32","trial","null","false","0.2,0.8","2:nogo_b","",""
"null","","html-keyboard-response","103","235055","0.0-4.0-1.21","","<img src=""img/orange-n.png"" border=""10"">","null","trial","null","","0.2,0.8","2:nogo_b","0",""
"null","","html-keyboard-response","104","236055","0.0-4.0-2.21","","<div style=""font-size:60px;"">+</div>","null","","","","","","",""
"null","","image-keyboard-response","105","237557","0.0-4.0-0.22","","img/orange.png","null","trial","null","true","0.2,0.8","2:nogo_b","",""
"null","","html-keyboard-response","106","238559","0.0-4.0-1.22","","<img src=""img/orange-r.png"">","null","trial","null","","0.2,0.8","2:nogo_b","1",""
"null","","html-keyboard-response","107","239560","0.0-4.0-2.22","","<div style=""font-size:60px;"">+</div>","null","","","","","","",""
"531.3050000113435","","image-keyboard-response","108","240093","0.0-4.0-0.23","","img/red.png","32","trial","32","true","0.8,0.2","1:go_a","",""
"null","","html-keyboard-response","109","241095","0.0-4.0-1.23","","<img src=""img/red-n.png"" border=""10"">","null","trial","32","","0.8,0.2","1:go_a","0",""
"null","","html-keyboard-response","110","242097","0.0-4.0-2.23","","<div style=""font-size:60px;"">+</div>","null","","","","","","",""
"758.334999991348","","image-keyboard-response","111","242857","0.0-4.0-0.24","","img/orange.png","32","trial","null","false","0.2,0.8","2:nogo_b","",""
"null","","html-keyboard-response","112","243859","0.0-4.0-1.24","","<img src=""img/orange-n.png"" border=""10"">","null","trial","null","","0.2,0.8","2:nogo_b","0",""
"null","","html-keyboard-response","113","244860","0.0-4.0-2.24","","<div style=""font-size:60px;"">+</div>","null","","","","","","",""
"null","","image-keyboard-response","114","246363","0.0-4.0-0.25","","img/red.png","null","trial","32","false","0.8,0.2","1:go_a","",""
"null","","html-keyboard-response","115","247366","0.0-4.0-1.25","","<img src=""img/red-n.png"">","null","trial","32","","0.8,0.2","1:go_a","0",""
"null","","html-keyboard-response","116","248367","0.0-4.0-2.25","","<div style=""font-size:60px;"">+</div>","null","","","","","","",""
"1106.260000000475","","image-keyboard-response","117","249474","0.0-4.0-0.26","","img/red.png","32","trial","32","true","0.8,0.2","1:go_a","",""
"null","","html-keyboard-response","118","250478","0.0-4.0-1.26","","<img src=""img/red-r.png"" border=""10"">","null","trial","32","","0.8,0.2","1:go_a","1",""
"null","","html-keyboard-response","119","251479","0.0-4.0-2.26","","<div style=""font-size:60px;"">+</div>","null","","","","","","",""
"796.5599999879487","","image-keyboard-response","120","252277","0.0-4.0-0.27","","img/orange.png","32","trial","null","false","0.2,0.8","2:nogo_b","",""
"null","","html-keyboard-response","121","253282","0.0-4.0-1.27","","<img src=""img/orange-r.png"" border=""10"">","null","trial","null","","0.2,0.8","2:nogo_b","1",""
"null","","html-keyboard-response","122","254283","0.0-4.0-2.27","","<div style=""font-size:60px;"">+</div>","null","","","","","","",""
"null","","image-keyboard-response","123","255785","0.0-4.0-0.28","","img/orange.png","null","trial","null","true","0.2,0.8","2:nogo_b","",""
"null","","html-keyboard-response","124","256787","0.0-4.0-1.28","","<img src=""img/orange-r.png"">","null","trial","null","","0.2,0.8","2:nogo_b","1",""
"null","","html-keyboard-response","125","257788","0.0-4.0-2.28","","<div style=""font-size:60px;"">+</div>","null","","","","","","",""
"null","","image-keyboard-response","126","259290","0.0-4.0-0.29","","img/red.png","null","trial","32","false","0.8,0.2","1:go_a","",""
"null","","html-keyboard-response","127","260294","0.0-4.0-1.29","","<img src=""img/red-n.png"">","null","trial","32","","0.8,0.2","1:go_a","0",""
"null","","html-keyboard-response","128","261297","0.0-4.0-2.29","","<div style=""font-size:60px;"">+</div>","null","","","","","","",""
"894.4149999879301","","image-keyboard-response","129","262193","0.0-4.0-0.30","","img/red.png","32","trial","32","true","0.8,0.2","1:go_a","",""
"null","","html-keyboard-response","130","263195","0.0-4.0-1.30","","<img src=""img/red-r.png"" border=""10"">","null","trial","32","","0.8,0.2","1:go_a","1",""
"null","","html-keyboard-response","131","264196","0.0-4.0-2.30","","<div style=""font-size:60px;"">+</div>","null","","","","","","",""
"613.9149999944493","","image-keyboard-response","132","264811","0.0-4.0-0.31","","img/orange.png","32","trial","null","false","0.2,0.8","2:nogo_b","",""
"null","","html-keyboard-response","133","265813","0.0-4.0-1.31","","<img src=""img/orange-n.png"" border=""10"">","null","trial","null","","0.2,0.8","2:nogo_b","0",""
"null","","html-keyboard-response","134","266814","0.0-4.0-2.31","","<div style=""font-size:60px;"">+</div>","null","","","","","","",""
"950.6850000179838","","image-keyboard-response","135","267769","0.0-4.0-0.32","","img/red.png","32","trial","32","true","0.8,0.2","1:go_a","",""
"null","","html-keyboard-response","136","268770","0.0-4.0-1.32","","<img src=""img/red-n.png"" border=""10"">","null","trial","32","","0.8,0.2","1:go_a","0",""
"null","","html-keyboard-response","137","269771","0.0-4.0-2.32","","<div style=""font-size:60px;"">+</div>","null","","","","","","",""
"null","","image-keyboard-response","138","271272","0.0-4.0-0.33","","img/orange.png","null","trial","null","true","0.2,0.8","2:nogo_b","",""
"null","","html-keyboard-response","139","272275","0.0-4.0-1.33","","<img src=""img/orange-r.png"">","null","trial","null","","0.2,0.8","2:nogo_b","1",""
"null","","html-keyboard-response","140","273275","0.0-4.0-2.33","","<div style=""font-size:60px;"">+</div>","null","","","","","","",""
"null","","image-keyboard-response","141","274777","0.0-4.0-0.34","","img/orange.png","null","trial","null","true","0.2,0.8","2:nogo_b","",""
"null","","html-keyboard-response","142","275779","0.0-4.0-1.34","","<img src=""img/orange-n.png"">","null","trial","null","","0.2,0.8","2:nogo_b","0",""
"null","","html-keyboard-response","143","276780","0.0-4.0-2.34","","<div style=""font-size:60px;"">+</div>","null","","","","","","",""
"765.4599999950733","","image-keyboard-response","144","277547","0.0-4.0-0.35","","img/red.png","32","trial","32","true","0.8,0.2","1:go_a","",""
"null","","html-keyboard-response","145","278549","0.0-4.0-1.35","","<img src=""img/red-n.png"" border=""10"">","null","trial","32","","0.8,0.2","1:go_a","0",""
"null","","html-keyboard-response","146","279550","0.0-4.0-2.35","","<div style=""font-size:60px;"">+</div>","null","","","","","","",""
"542.6350000197999","","image-keyboard-response","147","280094","0.0-4.0-0.36","","img/red.png","32","trial","32","true","0.8,0.2","1:go_a","",""
"null","","html-keyboard-response","148","281096","0.0-4.0-1.36","","<img src=""img/red-r.png"" border=""10"">","null","trial","32","","0.8,0.2","1:go_a","1",""
"null","","html-keyboard-response","149","282096","0.0-4.0-2.36","","<div style=""font-size:60px;"">+</div>","null","","","","","","",""
"null","","image-keyboard-response","150","283598","0.0-4.0-0.37","","img/orange.png","null","trial","null","true","0.2,0.8","2:nogo_b","",""
"null","","html-keyboard-response","151","284600","0.0-4.0-1.37","","<img src=""img/orange-n.png"">","null","trial","null","","0.2,0.8","2:nogo_b","0",""
"null","","html-keyboard-response","152","285601","0.0-4.0-2.37","","<div style=""font-size:60px;"">+</div>","null","","","","","","",""
"1019.6299999952316","","image-keyboard-response","153","286622","0.0-4.0-0.38","","img/red.png","32","trial","32","true","0.8,0.2","1:go_a","",""
"null","","html-keyboard-response","154","287626","0.0-4.0-1.38","","<img src=""img/red-r.png"" border=""10"">","null","trial","32","","0.8,0.2","1:go_a","1",""
"null","","html-keyboard-response","155","288628","0.0-4.0-2.38","","<div style=""font-size:60px;"">+</div>","null","","","","","","",""
"559.8299999837764","","image-keyboard-response","156","289188","0.0-4.0-0.39","","img/orange.png","32","trial","null","false","0.2,0.8","2:nogo_b","",""
"null","","html-keyboard-response","157","290190","0.0-4.0-1.39","","<img src=""img/orange-n.png"" border=""10"">","null","trial","null","","0.2,0.8","2:nogo_b","0",""
"null","","html-keyboard-response","158","291191","0.0-4.0-2.39","","<div style=""font-size:60px;"">+</div>","null","","","","","","",""
"874.630000005709","","image-keyboard-response","159","292067","0.0-4.0-0.40","","img/red.png","32","trial","32","true","0.8,0.2","1:go_a","",""
"null","","html-keyboard-response","160","293069","0.0-4.0-1.40","","<img src=""img/red-r.png"" border=""10"">","null","trial","32","","0.8,0.2","1:go_a","1",""
"null","","html-keyboard-response","161","294069","0.0-4.0-2.40","","<div style=""font-size:60px;"">+</div>","null","","","","","","",""
"null","","image-keyboard-response","162","295571","0.0-4.0-0.41","","img/orange.png","null","trial","null","true","0.2,0.8","2:nogo_b","",""
"null","","html-keyboard-response","163","296573","0.0-4.0-1.41","","<img src=""img/orange-n.png"">","null","trial","null","","0.2,0.8","2:nogo_b","0",""
"null","","html-keyboard-response","164","297573","0.0-4.0-2.41","","<div style=""font-size:60px;"">+</div>","null","","","","","","",""
"1104.2899999883957","","image-keyboard-response","165","298679","0.0-4.0-0.42","","img/orange.png","32","trial","null","false","0.2,0.8","2:nogo_b","",""
"null","","html-keyboard-response","166","299681","0.0-4.0-1.42","","<img src=""img/orange-n.png"" border=""10"">","null","trial","null","","0.2,0.8","2:nogo_b","0",""
"null","","html-keyboard-response","167","300682","0.0-4.0-2.42","","<div style=""font-size:60px;"">+</div>","null","","","","","","",""
"816.755000007106","","image-keyboard-response","168","301500","0.0-4.0-0.43","","img/red.png","32","trial","32","true","0.8,0.2","1:go_a","",""
"null","","html-keyboard-response","169","302502","0.0-4.0-1.43","","<img src=""img/red-r.png"" border=""10"">","null","trial","32","","0.8,0.2","1:go_a","1",""
"null","","html-keyboard-response","170","303503","0.0-4.0-2.43","","<div style=""font-size:60px;"">+</div>","null","","","","","","",""
"null","","image-keyboard-response","171","305004","0.0-4.0-0.44","","img/orange.png","null","trial","null","true","0.2,0.8","2:nogo_b","",""
"null","","html-keyboard-response","172","306006","0.0-4.0-1.44","","<img src=""img/orange-r.png"">","null","trial","null","","0.2,0.8","2:nogo_b","1",""
"null","","html-keyboard-response","173","307007","0.0-4.0-2.44","","<div style=""font-size:60px;"">+</div>","null","","","","","","",""
"857.8850000048988","","image-keyboard-response","174","307866","0.0-4.0-0.45","","img/red.png","32","trial","32","true","0.8,0.2","1:go_a","",""
"null","","html-keyboard-response","175","308868","0.0-4.0-1.45","","<img src=""img/red-r.png"" border=""10"">","null","trial","32","","0.8,0.2","1:go_a","1",""
"null","","html-keyboard-response","176","309868","0.0-4.0-2.45","","<div style=""font-size:60px;"">+</div>","null","","","","","","",""
"1085.2350000059232","","image-keyboard-response","177","310954","0.0-4.0-0.46","","img/red.png","32","trial","32","true","0.8,0.2","1:go_a","",""
"null","","html-keyboard-response","178","311957","0.0-4.0-1.46","","<img src=""img/red-r.png"" border=""10"">","null","trial","32","","0.8,0.2","1:go_a","1",""
"null","","html-keyboard-response","179","312958","0.0-4.0-2.46","","<div style=""font-size:60px;"">+</div>","null","","","","","","",""
"null","","image-keyboard-response","180","314460","0.0-4.0-0.47","","img/orange.png","null","trial","null","true","0.2,0.8","2:nogo_b","",""
"null","","html-keyboard-response","181","315462","0.0-4.0-1.47","","<img src=""img/orange-n.png"">","null","trial","null","","0.2,0.8","2:nogo_b","0",""
"null","","html-keyboard-response","182","316463","0.0-4.0-2.47","","<div style=""font-size:60px;"">+</div>","null","","","","","","",""
"653.1649999960791","","image-keyboard-response","183","317118","0.0-4.0-0.48","","img/red.png","32","trial","32","true","0.8,0.2","1:go_a","",""
"null","","html-keyboard-response","184","318121","0.0-4.0-1.48","","<img src=""img/red-n.png"" border=""10"">","null","trial","32","","0.8,0.2","1:go_a","0",""
"null","","html-keyboard-response","185","319122","0.0-4.0-2.48","","<div style=""font-size:60px;"">+</div>","null","","","","","","",""
"1176.75500002224","","image-keyboard-response","186","320300","0.0-4.0-0.49","","img/orange.png","32","trial","null","false","0.2,0.8","2:nogo_b","",""
"null","","html-keyboard-response","187","321304","0.0-4.0-1.49","","<img src=""img/orange-n.png"" border=""10"">","null","trial","null","","0.2,0.8","2:nogo_b","0",""
"null","","html-keyboard-response","188","322305","0.0-4.0-2.49","","<div style=""font-size:60px;"">+</div>","null","","","","","","",""
"null","","image-keyboard-response","189","323807","0.0-4.0-0.50","","img/orange.png","null","trial","null","true","0.2,0.8","2:nogo_b","",""
"null","","html-keyboard-response","190","324815","0.0-4.0-1.50","","<img src=""img/orange-n.png"">","null","trial","null","","0.2,0.8","2:nogo_b","0",""
"null","","html-keyboard-response","191","325816","0.0-4.0-2.50","","<div style=""font-size:60px;"">+</div>","null","","","","","","",""
"773.2149999937974","","image-keyboard-response","192","326591","0.0-4.0-0.51","","img/red.png","32","trial","32","true","0.8,0.2","1:go_a","",""
"null","","html-keyboard-response","193","327593","0.0-4.0-1.51","","<img src=""img/red-r.png"" border=""10"">","null","trial","32","","0.8,0.2","1:go_a","1",""
"null","","html-keyboard-response","194","328593","0.0-4.0-2.51","","<div style=""font-size:60px;"">+</div>","null","","","","","","",""
"null","","image-keyboard-response","195","330095","0.0-4.0-0.52","","img/orange.png","null","trial","null","true","0.2,0.8","2:nogo_b","",""
"null","","html-keyboard-response","196","331097","0.0-4.0-1.52","","<img src=""img/orange-r.png"">","null","trial","null","","0.2,0.8","2:nogo_b","1",""
"null","","html-keyboard-response","197","332099","0.0-4.0-2.52","","<div style=""font-size:60px;"">+</div>","null","","","","","","",""
"711.4349999756087","","image-keyboard-response","198","332811","0.0-4.0-0.53","","img/red.png","32","trial","32","true","0.8,0.2","1:go_a","",""
"null","","html-keyboard-response","199","333814","0.0-4.0-1.53","","<img src=""img/red-r.png"" border=""10"">","null","trial","32","","0.8,0.2","1:go_a","1",""
"null","","html-keyboard-response","200","334815","0.0-4.0-2.53","","<div style=""font-size:60px;"">+</div>","null","","","","","","",""
"null","","image-keyboard-response","201","336316","0.0-4.0-0.54","","img/orange.png","null","trial","null","true","0.2,0.8","2:nogo_b","",""
"null","","html-keyboard-response","202","337318","0.0-4.0-1.54","","<img src=""img/orange-r.png"">","null","trial","null","","0.2,0.8","2:nogo_b","1",""
"null","","html-keyboard-response","203","338320","0.0-4.0-2.54","","<div style=""font-size:60px;"">+</div>","null","","","","","","",""
"763.4849999740254","","image-keyboard-response","204","339084","0.0-4.0-0.55","","img/red.png","32","trial","32","true","0.8,0.2","1:go_a","",""
"null","","html-keyboard-response","205","340088","0.0-4.0-1.55","","<img src=""img/red-r.png"" border=""10"">","null","trial","32","","0.8,0.2","1:go_a","1",""
"null","","html-keyboard-response","206","341089","0.0-4.0-2.55","","<div style=""font-size:60px;"">+</div>","null","","","","","","",""
"null","","image-keyboard-response","207","342592","0.0-4.0-0.56","","img/orange.png","null","trial","null","true","0.2,0.8","2:nogo_b","",""
"null","","html-keyboard-response","208","343594","0.0-4.0-1.56","","<img src=""img/orange-n.png"">","null","trial","null","","0.2,0.8","2:nogo_b","0",""
"null","","html-keyboard-response","209","344595","0.0-4.0-2.56","","<div style=""font-size:60px;"">+</div>","null","","","","","","",""
"866.2949999852572","","image-keyboard-response","210","345463","0.0-4.0-0.57","","img/red.png","32","trial","32","true","0.8,0.2","1:go_a","",""
"null","","html-keyboard-response","211","346465","0.0-4.0-1.57","","<img src=""img/red-n.png"" border=""10"">","null","trial","32","","0.8,0.2","1:go_a","0",""
"null","","html-keyboard-response","212","347466","0.0-4.0-2.57","","<div style=""font-size:60px;"">+</div>","null","","","","","","",""
"537.4550000124145","","image-keyboard-response","213","348005","0.0-4.0-0.58","","img/red.png","32","trial","32","true","0.8,0.2","1:go_a","",""
"null","","html-keyboard-response","214","349007","0.0-4.0-1.58","","<img src=""img/red-r.png"" border=""10"">","null","trial","32","","0.8,0.2","1:go_a","1",""
"null","","html-keyboard-response","215","350008","0.0-4.0-2.58","","<div style=""font-size:60px;"">+</div>","null","","","","","","",""
"null","","image-keyboard-response","216","351509","0.0-4.0-0.59","","img/orange.png","null","trial","null","true","0.2,0.8","2:nogo_b","",""
"null","","html-keyboard-response","217","352512","0.0-4.0-1.59","","<img src=""img/orange-r.png"">","null","trial","null","","0.2,0.8","2:nogo_b","1",""
"null","","html-keyboard-response","218","353513","0.0-4.0-2.59","","<div style=""font-size:60px;"">+</div>","null","","","","","","",""
"99421.13500001142","","instructions","219","452934","0.0-5.0","[{""page_index"":0,""viewing_time"":99420.79499998363}]","","","","","","","","",""
"847.4700000078883","","image-keyboard-response","220","453785","0.0-6.0-0.0","","img/pink.png","32","trial","32","true","0.6,0.4","3:go_c","",""
"null","","html-keyboard-response","221","454788","0.0-6.0-1.0","","<img src=""img/pink-n.png"" border=""10"">","null","trial","32","","0.6,0.4","3:go_c","0",""
"null","","html-keyboard-response","222","455789","0.0-6.0-2.0","","<div style=""font-size:60px;"">+</div>","null","","","","","","",""
"1069.9249999888707","","image-keyboard-response","223","456860","0.0-6.0-0.1","","img/green.png","32","trial","null","false","0.2,0.8","2:nogo_b","",""
"null","","html-keyboard-response","224","457862","0.0-6.0-1.1","","<img src=""img/green-n.png"" border=""10"">","null","trial","null","","0.2,0.8","2:nogo_b","0",""
"null","","html-keyboard-response","225","458864","0.0-6.0-2.1","","<div style=""font-size:60px;"">+</div>","null","","","","","","",""
"976.8850000109524","","image-keyboard-response","226","459842","0.0-6.0-0.2","","img/orange.png","32","trial","32","true","0.8,0.2","1:go_a","",""
"null","","html-keyboard-response","227","460844","0.0-6.0-1.2","","<img src=""img/orange-r.png"" border=""10"">","null","trial","32","","0.8,0.2","1:go_a","1",""
"null","","html-keyboard-response","228","461846","0.0-6.0-2.2","","<div style=""font-size:60px;"">+</div>","null","","","","","","",""
"1048.8799999875482","","image-keyboard-response","229","462896","0.0-6.0-0.3","","img/grey.png","32","trial","null","false","0.4,0.6","4:nogo_d","",""
"null","","html-keyboard-response","230","463899","0.0-6.0-1.3","","<img src=""img/grey-n.png"" border=""10"">","null","trial","null","","0.4,0.6","4:nogo_d","0",""
"null","","html-keyboard-response","231","464899","0.0-6.0-2.3","","<div style=""font-size:60px;"">+</div>","null","","","","","","",""
"null","","image-keyboard-response","232","466401","0.0-6.0-0.4","","img/grey.png","null","trial","null","true","0.4,0.6","4:nogo_d","",""
"null","","html-keyboard-response","233","467403","0.0-6.0-1.4","","<img src=""img/grey-n.png"">","null","trial","null","","0.4,0.6","4:nogo_d","0",""
"null","","html-keyboard-response","234","468404","0.0-6.0-2.4","","<div style=""font-size:60px;"">+</div>","null","","","","","","",""
"713.5249999992084","","image-keyboard-response","235","469118","0.0-6.0-0.5","","img/pink.png","32","trial","32","true","0.6,0.4","3:go_c","",""
"null","","html-keyboard-response","236","470122","0.0-6.0-1.5","","<img src=""img/pink-r.png"" border=""10"">","null","trial","32","","0.6,0.4","3:go_c","1",""
"null","","html-keyboard-response","237","471123","0.0-6.0-2.5","","<div style=""font-size:60px;"">+</div>","null","","","","","","",""
"null","","image-keyboard-response","238","472624","0.0-6.0-0.6","","img/green.png","null","trial","null","true","0.2,0.8","2:nogo_b","",""
"null","","html-keyboard-response","239","473626","0.0-6.0-1.6","","<img src=""img/green-r.png"">","null","trial","null","","0.2,0.8","2:nogo_b","1",""
"null","","html-keyboard-response","240","474627","0.0-6.0-2.6","","<div style=""font-size:60px;"">+</div>","null","","","","","","",""
"null","","image-keyboard-response","241","476129","0.0-6.0-0.7","","img/orange.png","null","trial","32","false","0.8,0.2","1:go_a","",""
"null","","html-keyboard-response","242","477131","0.0-6.0-1.7","","<img src=""img/orange-n.png"">","null","trial","32","","0.8,0.2","1:go_a","0",""
"null","","html-keyboard-response","243","478132","0.0-6.0-2.7","","<div style=""font-size:60px;"">+</div>","null","","","","","","",""
"1282.9450000135694","","image-keyboard-response","244","479416","0.0-6.0-0.8","","img/green.png","32","trial","null","false","0.2,0.8","2:nogo_b","",""
"null","","html-keyboard-response","245","480418","0.0-6.0-1.8","","<img src=""img/green-r.png"" border=""10"">","null","trial","null","","0.2,0.8","2:nogo_b","1",""
"null","","html-keyboard-response","246","481419","0.0-6.0-2.8","","<div style=""font-size:60px;"">+</div>","null","","","","","","",""
"null","","image-keyboard-response","247","482920","0.0-6.0-0.9","","img/orange.png","null","trial","32","false","0.8,0.2","1:go_a","",""
"null","","html-keyboard-response","248","483922","0.0-6.0-1.9","","<img src=""img/orange-n.png"">","null","trial","32","","0.8,0.2","1:go_a","0",""
"null","","html-keyboard-response","249","484924","0.0-6.0-2.9","","<div style=""font-size:60px;"">+</div>","null","","","","","","",""
"null","","image-keyboard-response","250","486426","0.0-6.0-0.10","","img/grey.png","null","trial","null","true","0.4,0.6","4:nogo_d","",""
"null","","html-keyboard-response","251","487430","0.0-6.0-1.10","","<img src=""img/grey-r.png"">","null","trial","null","","0.4,0.6","4:nogo_d","1",""
"null","","html-keyboard-response","252","488430","0.0-6.0-2.10","","<div style=""font-size:60px;"">+</div>","null","","","","","","",""
"1230.2700000000186","","image-keyboard-response","253","489662","0.0-6.0-0.11","","img/pink.png","32","trial","32","true","0.6,0.4","3:go_c","",""
"null","","html-keyboard-response","254","490663","0.0-6.0-1.11","","<img src=""img/pink-r.png"" border=""10"">","null","trial","32","","0.6,0.4","3:go_c","1",""
"null","","html-keyboard-response","255","491665","0.0-6.0-2.11","","<div style=""font-size:60px;"">+</div>","null","","","","","","",""
"1280.0799999968149","","image-keyboard-response","256","492946","0.0-6.0-0.12","","img/green.png","32","trial","null","false","0.2,0.8","2:nogo_b","",""
"null","","html-keyboard-response","257","493948","0.0-6.0-1.12","","<img src=""img/green-n.png"" border=""10"">","null","trial","null","","0.2,0.8","2:nogo_b","0",""
"null","","html-keyboard-response","258","494950","0.0-6.0-2.12","","<div style=""font-size:60px;"">+</div>","null","","","","","","",""
"null","","image-keyboard-response","259","496452","0.0-6.0-0.13","","img/orange.png","null","trial","32","false","0.8,0.2","1:go_a","",""
"null","","html-keyboard-response","260","497456","0.0-6.0-1.13","","<img src=""img/orange-n.png"">","null","trial","32","","0.8,0.2","1:go_a","0",""
"null","","html-keyboard-response","261","498456","0.0-6.0-2.13","","<div style=""font-size:60px;"">+</div>","null","","","","","","",""
"1181.1349999916274","","image-keyboard-response","262","499639","0.0-6.0-0.14","","img/grey.png","32","trial","null","false","0.4,0.6","4:nogo_d","",""
"null","","html-keyboard-response","263","500641","0.0-6.0-1.14","","<img src=""img/grey-n.png"" border=""10"">","null","trial","null","","0.4,0.6","4:nogo_d","0",""
"null","","html-keyboard-response","264","501642","0.0-6.0-2.14","","<div style=""font-size:60px;"">+</div>","null","","","","","","",""
"894.2300000053365","","image-keyboard-response","265","502537","0.0-6.0-0.15","","img/pink.png","32","trial","32","true","0.6,0.4","3:go_c","",""
"null","","html-keyboard-response","266","503540","0.0-6.0-1.15","","<img src=""img/pink-r.png"" border=""10"">","null","trial","32","","0.6,0.4","3:go_c","1",""
"null","","html-keyboard-response","267","504541","0.0-6.0-2.15","","<div style=""font-size:60px;"">+</div>","null","","","","","","",""
"null","","image-keyboard-response","268","506042","0.0-6.0-0.16","","img/grey.png","null","trial","null","true","0.4,0.6","4:nogo_d","",""
"null","","html-keyboard-response","269","507044","0.0-6.0-1.16","","<img src=""img/grey-n.png"">","null","trial","null","","0.4,0.6","4:nogo_d","0",""
"null","","html-keyboard-response","270","508045","0.0-6.0-2.16","","<div style=""font-size:60px;"">+</div>","null","","","","","","",""
"null","","image-keyboard-response","271","509546","0.0-6.0-0.17","","img/green.png","null","trial","null","true","0.2,0.8","2:nogo_b","",""
"null","","html-keyboard-response","272","510550","0.0-6.0-1.17","","<img src=""img/green-r.png"">","null","trial","null","","0.2,0.8","2:nogo_b","1",""
"null","","html-keyboard-response","273","511550","0.0-6.0-2.17","","<div style=""font-size:60px;"">+</div>","null","","","","","","",""
"975.1150000083726","","image-keyboard-response","274","512527","0.0-6.0-0.18","","img/pink.png","32","trial","32","true","0.6,0.4","3:go_c","",""
"null","","html-keyboard-response","275","513529","0.0-6.0-1.18","","<img src=""img/pink-r.png"" border=""10"">","null","trial","32","","0.6,0.4","3:go_c","1",""
"null","","html-keyboard-response","276","514529","0.0-6.0-2.18","","<div style=""font-size:60px;"">+</div>","null","","","","","","",""
"null","","image-keyboard-response","277","516031","0.0-6.0-0.19","","img/orange.png","null","trial","32","false","0.8,0.2","1:go_a","",""
"null","","html-keyboard-response","278","517033","0.0-6.0-1.19","","<img src=""img/orange-r.png"">","null","trial","32","","0.8,0.2","1:go_a","1",""
"null","","html-keyboard-response","279","518034","0.0-6.0-2.19","","<div style=""font-size:60px;"">+</div>","null","","","","","","",""
"null","","image-keyboard-response","280","519535","0.0-6.0-0.20","","img/grey.png","null","trial","null","true","0.4,0.6","4:nogo_d","",""
"null","","html-keyboard-response","281","520537","0.0-6.0-1.20","","<img src=""img/grey-n.png"">","null","trial","null","","0.4,0.6","4:nogo_d","0",""
"null","","html-keyboard-response","282","521539","0.0-6.0-2.20","","<div style=""font-size:60px;"">+</div>","null","","","","","","",""
"1109.9000000103842","","image-keyboard-response","283","522650","0.0-6.0-0.21","","img/pink.png","32","trial","32","true","0.6,0.4","3:go_c","",""
"null","","html-keyboard-response","284","523653","0.0-6.0-1.21","","<img src=""img/pink-r.png"" border=""10"">","null","trial","32","","0.6,0.4","3:go_c","1",""
"null","","html-keyboard-response","285","524654","0.0-6.0-2.21","","<div style=""font-size:60px;"">+</div>","null","","","","","","",""
"null","","image-keyboard-response","286","526156","0.0-6.0-0.22","","img/orange.png","null","trial","32","false","0.8,0.2","1:go_a","",""
"null","","html-keyboard-response","287","527159","0.0-6.0-1.22","","<img src=""img/orange-n.png"">","null","trial","32","","0.8,0.2","1:go_a","0",""
"null","","html-keyboard-response","288","528160","0.0-6.0-2.22","","<div style=""font-size:60px;"">+</div>","null","","","","","","",""
"828.7750000017695","","image-keyboard-response","289","528992","0.0-6.0-0.23","","img/green.png","32","trial","null","false","0.2,0.8","2:nogo_b","",""
"null","","html-keyboard-response","290","529994","0.0-6.0-1.23","","<img src=""img/green-n.png"" border=""10"">","null","trial","null","","0.2,0.8","2:nogo_b","0",""
"null","","html-keyboard-response","291","530995","0.0-6.0-2.23","","<div style=""font-size:60px;"">+</div>","null","","","","","","",""
"null","","image-keyboard-response","292","532496","0.0-6.0-0.24","","img/green.png","null","trial","null","true","0.2,0.8","2:nogo_b","",""
"null","","html-keyboard-response","293","533498","0.0-6.0-1.24","","<img src=""img/green-n.png"">","null","trial","null","","0.2,0.8","2:nogo_b","0",""
"null","","html-keyboard-response","294","534500","0.0-6.0-2.24","","<div style=""font-size:60px;"">+</div>","null","","","","","","",""
"null","","image-keyboard-response","295","536003","0.0-6.0-0.25","","img/grey.png","null","trial","null","true","0.4,0.6","4:nogo_d","",""
"null","","html-keyboard-response","296","537005","0.0-6.0-1.25","","<img src=""img/grey-n.png"">","null","trial","null","","0.4,0.6","4:nogo_d","0",""
"null","","html-keyboard-response","297","538006","0.0-6.0-2.25","","<div style=""font-size:60px;"">+</div>","null","","","","","","",""
"null","","image-keyboard-response","298","539508","0.0-6.0-0.26","","img/orange.png","null","trial","32","false","0.8,0.2","1:go_a","",""
"null","","html-keyboard-response","299","540514","0.0-6.0-1.26","","<img src=""img/orange-r.png"">","null","trial","32","","0.8,0.2","1:go_a","1",""
"null","","html-keyboard-response","300","541515","0.0-6.0-2.26","","<div style=""font-size:60px;"">+</div>","null","","","","","","",""
"915.1100000017323","","image-keyboard-response","301","542431","0.0-6.0-0.27","","img/pink.png","32","trial","32","true","0.6,0.4","3:go_c","",""
"null","","html-keyboard-response","302","543433","0.0-6.0-1.27","","<img src=""img/pink-r.png"" border=""10"">","null","trial","32","","0.6,0.4","3:go_c","1",""
"null","","html-keyboard-response","303","544435","0.0-6.0-2.27","","<div style=""font-size:60px;"">+</div>","null","","","","","","",""
"null","","image-keyboard-response","304","545937","0.0-6.0-0.28","","img/grey.png","null","trial","null","true","0.4,0.6","4:nogo_d","",""
"null","","html-keyboard-response","305","546942","0.0-6.0-1.28","","<img src=""img/grey-n.png"">","null","trial","null","","0.4,0.6","4:nogo_d","0",""
"null","","html-keyboard-response","306","547943","0.0-6.0-2.28","","<div style=""font-size:60px;"">+</div>","null","","","","","","",""
"905.5250000092201","","image-keyboard-response","307","548849","0.0-6.0-0.29","","img/pink.png","32","trial","32","true","0.6,0.4","3:go_c","",""
"null","","html-keyboard-response","308","549853","0.0-6.0-1.29","","<img src=""img/pink-n.png"" border=""10"">","null","trial","32","","0.6,0.4","3:go_c","0",""
"null","","html-keyboard-response","309","550854","0.0-6.0-2.29","","<div style=""font-size:60px;"">+</div>","null","","","","","","",""
"1000.2950000052806","","image-keyboard-response","310","551856","0.0-6.0-0.30","","img/orange.png","32","trial","32","true","0.8,0.2","1:go_a","",""
"null","","html-keyboard-response","311","552858","0.0-6.0-1.30","","<img src=""img/orange-r.png"" border=""10"">","null","trial","32","","0.8,0.2","1:go_a","1",""
"null","","html-keyboard-response","312","553859","0.0-6.0-2.30","","<div style=""font-size:60px;"">+</div>","null","","","","","","",""
"913.4149999881629","","image-keyboard-response","313","554774","0.0-6.0-0.31","","img/green.png","32","trial","null","false","0.2,0.8","2:nogo_b","",""
"null","","html-keyboard-response","314","555776","0.0-6.0-1.31","","<img src=""img/green-n.png"" border=""10"">","null","trial","null","","0.2,0.8","2:nogo_b","0",""
"null","","html-keyboard-response","315","556777","0.0-6.0-2.31","","<div style=""font-size:60px;"">+</div>","null","","","","","","",""
"808.9449999970384","","image-keyboard-response","316","557588","0.0-6.0-0.32","","img/pink.png","32","trial","32","true","0.6,0.4","3:go_c","",""
"null","","html-keyboard-response","317","558590","0.0-6.0-1.32","","<img src=""img/pink-n.png"" border=""10"">","null","trial","32","","0.6,0.4","3:go_c","0",""
"null","","html-keyboard-response","318","559591","0.0-6.0-2.32","","<div style=""font-size:60px;"">+</div>","null","","","","","","",""
"null","","image-keyboard-response","319","561092","0.0-6.0-0.33","","img/orange.png","null","trial","32","false","0.8,0.2","1:go_a","",""
"null","","html-keyboard-response","320","562096","0.0-6.0-1.33","","<img src=""img/orange-n.png"">","null","trial","32","","0.8,0.2","1:go_a","0",""
"null","","html-keyboard-response","321","563097","0.0-6.0-2.33","","<div style=""font-size:60px;"">+</div>","null","","","","","","",""
"772.0550000085495","","image-keyboard-response","322","563871","0.0-6.0-0.34","","img/green.png","32","trial","null","false","0.2,0.8","2:nogo_b","",""
"null","","html-keyboard-response","323","564873","0.0-6.0-1.34","","<img src=""img/green-r.png"" border=""10"">","null","trial","null","","0.2,0.8","2:nogo_b","1",""
"null","","html-keyboard-response","324","565874","0.0-6.0-2.34","","<div style=""font-size:60px;"">+</div>","null","","","","","","",""
"1016.4499999955297","","image-keyboard-response","325","566891","0.0-6.0-0.35","","img/grey.png","32","trial","null","false","0.4,0.6","4:nogo_d","",""
"null","","html-keyboard-response","326","567895","0.0-6.0-1.35","","<img src=""img/grey-n.png"" border=""10"">","null","trial","null","","0.4,0.6","4:nogo_d","0",""
"null","","html-keyboard-response","327","568896","0.0-6.0-2.35","","<div style=""font-size:60px;"">+</div>","null","","","","","","",""
"null","","image-keyboard-response","328","570397","0.0-6.0-0.36","","img/orange.png","null","trial","32","false","0.8,0.2","1:go_a","",""
"null","","html-keyboard-response","329","571399","0.0-6.0-1.36","","<img src=""img/orange-n.png"">","null","trial","32","","0.8,0.2","1:go_a","0",""
"null","","html-keyboard-response","330","572400","0.0-6.0-2.36","","<div style=""font-size:60px;"">+</div>","null","","","","","","",""
"805.4899999988265","","image-keyboard-response","331","573207","0.0-6.0-0.37","","img/pink.png","32","trial","32","true","0.6,0.4","3:go_c","",""
"null","","html-keyboard-response","332","574210","0.0-6.0-1.37","","<img src=""img/pink-r.png"" border=""10"">","null","trial","32","","0.6,0.4","3:go_c","1",""
"null","","html-keyboard-response","333","575211","0.0-6.0-2.37","","<div style=""font-size:60px;"">+</div>","null","","","","","","",""
"null","","image-keyboard-response","334","576715","0.0-6.0-0.38","","img/grey.png","null","trial","null","true","0.4,0.6","4:nogo_d","",""
"null","","html-keyboard-response","335","577720","0.0-6.0-1.38","","<img src=""img/grey-r.png"">","null","trial","null","","0.4,0.6","4:nogo_d","1",""
"null","","html-keyboard-response","336","578721","0.0-6.0-2.38","","<div style=""font-size:60px;"">+</div>","null","","","","","","",""
"null","","image-keyboard-response","337","580223","0.0-6.0-0.39","","img/green.png","null","trial","null","true","0.2,0.8","2:nogo_b","",""
"null","","html-keyboard-response","338","581225","0.0-6.0-1.39","","<img src=""img/green-r.png"">","null","trial","null","","0.2,0.8","2:nogo_b","1",""
"null","","html-keyboard-response","339","582226","0.0-6.0-2.39","","<div style=""font-size:60px;"">+</div>","null","","","","","","",""
"668.9800000167452","","image-keyboard-response","340","582896","0.0-6.0-0.40","","img/green.png","32","trial","null","false","0.2,0.8","2:nogo_b","",""
"null","","html-keyboard-response","341","583898","0.0-6.0-1.40","","<img src=""img/green-n.png"" border=""10"">","null","trial","null","","0.2,0.8","2:nogo_b","0",""
"null","","html-keyboard-response","342","584899","0.0-6.0-2.40","","<div style=""font-size:60px;"">+</div>","null","","","","","","",""
"null","","image-keyboard-response","343","586401","0.0-6.0-0.41","","img/orange.png","null","trial","32","false","0.8,0.2","1:go_a","",""
"null","","html-keyboard-response","344","587404","0.0-6.0-1.41","","<img src=""img/orange-n.png"">","null","trial","32","","0.8,0.2","1:go_a","0",""
"null","","html-keyboard-response","345","588405","0.0-6.0-2.41","","<div style=""font-size:60px;"">+</div>","null","","","","","","",""
"614.0650000015739","","image-keyboard-response","346","589020","0.0-6.0-0.42","","img/pink.png","32","trial","32","true","0.6,0.4","3:go_c","",""
"null","","html-keyboard-response","347","590022","0.0-6.0-1.42","","<img src=""img/pink-r.png"" border=""10"">","null","trial","32","","0.6,0.4","3:go_c","1",""
"null","","html-keyboard-response","348","591022","0.0-6.0-2.42","","<div style=""font-size:60px;"">+</div>","null","","","","","","",""
"null","","image-keyboard-response","349","592524","0.0-6.0-0.43","","img/grey.png","null","trial","null","true","0.4,0.6","4:nogo_d","",""
"null","","html-keyboard-response","350","593527","0.0-6.0-1.43","","<img src=""img/grey-r.png"">","null","trial","null","","0.4,0.6","4:nogo_d","1",""
"null","","html-keyboard-response","351","594528","0.0-6.0-2.43","","<div style=""font-size:60px;"">+</div>","null","","","","","","",""
"null","","image-keyboard-response","352","596030","0.0-6.0-0.44","","img/orange.png","null","trial","32","false","0.8,0.2","1:go_a","",""
"null","","html-keyboard-response","353","597035","0.0-6.0-1.44","","<img src=""img/orange-n.png"">","null","trial","32","","0.8,0.2","1:go_a","0",""
"null","","html-keyboard-response","354","598036","0.0-6.0-2.44","","<div style=""font-size:60px;"">+</div>","null","","","","","","",""
"null","","image-keyboard-response","355","599538","0.0-6.0-0.45","","img/grey.png","null","trial","null","true","0.4,0.6","4:nogo_d","",""
"null","","html-keyboard-response","356","600541","0.0-6.0-1.45","","<img src=""img/grey-r.png"">","null","trial","null","","0.4,0.6","4:nogo_d","1",""
"null","","html-keyboard-response","357","601541","0.0-6.0-2.45","","<div style=""font-size:60px;"">+</div>","null","","","","","","",""
"null","","image-keyboard-response","358","603043","0.0-6.0-0.46","","img/green.png","null","trial","null","true","0.2,0.8","2:nogo_b","",""
"null","","html-keyboard-response","359","604045","0.0-6.0-1.46","","<img src=""img/green-r.png"">","null","trial","null","","0.2,0.8","2:nogo_b","1",""
"null","","html-keyboard-response","360","605046","0.0-6.0-2.46","","<div style=""font-size:60px;"">+</div>","null","","","","","","",""
"608.9149999897927","","image-keyboard-response","361","605656","0.0-6.0-0.47","","img/pink.png","32","trial","32","true","0.6,0.4","3:go_c","",""
"null","","html-keyboard-response","362","606658","0.0-6.0-1.47","","<img src=""img/pink-n.png"" border=""10"">","null","trial","32","","0.6,0.4","3:go_c","0",""
"null","","html-keyboard-response","363","607659","0.0-6.0-2.47","","<div style=""font-size:60px;"">+</div>","null","","","","","","",""
"null","","image-keyboard-response","364","609164","0.0-6.0-0.48","","img/orange.png","null","trial","32","false","0.8,0.2","1:go_a","",""
"null","","html-keyboard-response","365","610166","0.0-6.0-1.48","","<img src=""img/orange-n.png"">","null","trial","32","","0.8,0.2","1:go_a","0",""
"null","","html-keyboard-response","366","611166","0.0-6.0-2.48","","<div style=""font-size:60px;"">+</div>","null","","","","","","",""
"846.5250000008382","","image-keyboard-response","367","612014","0.0-6.0-0.49","","img/pink.png","32","trial","32","true","0.6,0.4","3:go_c","",""
"null","","html-keyboard-response","368","613016","0.0-6.0-1.49","","<img src=""img/pink-n.png"" border=""10"">","null","trial","32","","0.6,0.4","3:go_c","0",""
"null","","html-keyboard-response","369","614017","0.0-6.0-2.49","","<div style=""font-size:60px;"">+</div>","null","","","","","","",""
"null","","image-keyboard-response","370","615518","0.0-6.0-0.50","","img/grey.png","null","trial","null","true","0.4,0.6","4:nogo_d","",""
"null","","html-keyboard-response","371","616520","0.0-6.0-1.50","","<img src=""img/grey-r.png"">","null","trial","null","","0.4,0.6","4:nogo_d","1",""
"null","","html-keyboard-response","372","617525","0.0-6.0-2.50","","<div style=""font-size:60px;"">+</div>","null","","","","","","",""
"null","","image-keyboard-response","373","619027","0.0-6.0-0.51","","img/green.png","null","trial","null","true","0.2,0.8","2:nogo_b","",""
"null","","html-keyboard-response","374","620029","0.0-6.0-1.51","","<img src=""img/green-n.png"">","null","trial","null","","0.2,0.8","2:nogo_b","0",""
"null","","html-keyboard-response","375","621030","0.0-6.0-2.51","","<div style=""font-size:60px;"">+</div>","null","","","","","","",""
"null","","image-keyboard-response","376","622532","0.0-6.0-0.52","","img/green.png","null","trial","null","true","0.2,0.8","2:nogo_b","",""
"null","","html-keyboard-response","377","623536","0.0-6.0-1.52","","<img src=""img/green-r.png"">","null","trial","null","","0.2,0.8","2:nogo_b","1",""
"null","","html-keyboard-response","378","624537","0.0-6.0-2.52","","<div style=""font-size:60px;"">+</div>","null","","","","","","",""
"1343.7799999956042","","image-keyboard-response","379","625881","0.0-6.0-0.53","","img/pink.png","32","trial","32","true","0.6,0.4","3:go_c","",""
"null","","html-keyboard-response","380","626884","0.0-6.0-1.53","","<img src=""img/pink-r.png"" border=""10"">","null","trial","32","","0.6,0.4","3:go_c","1",""
"null","","html-keyboard-response","381","627885","0.0-6.0-2.53","","<div style=""font-size:60px;"">+</div>","null","","","","","","",""
"715.9699999901932","","image-keyboard-response","382","628602","0.0-6.0-0.54","","img/grey.png","32","trial","null","false","0.4,0.6","4:nogo_d","",""
"null","","html-keyboard-response","383","629605","0.0-6.0-1.54","","<img src=""img/grey-r.png"" border=""10"">","null","trial","null","","0.4,0.6","4:nogo_d","1",""
"null","","html-keyboard-response","384","630607","0.0-6.0-2.54","","<div style=""font-size:60px;"">+</div>","null","","","","","","",""
"null","","image-keyboard-response","385","632109","0.0-6.0-0.55","","img/orange.png","null","trial","32","false","0.8,0.2","1:go_a","",""
"null","","html-keyboard-response","386","633112","0.0-6.0-1.55","","<img src=""img/orange-r.png"">","null","trial","32","","0.8,0.2","1:go_a","1",""
"null","","html-keyboard-response","387","634113","0.0-6.0-2.55","","<div style=""font-size:60px;"">+</div>","null","","","","","","",""
"null","","image-keyboard-response","388","635614","0.0-6.0-0.56","","img/grey.png","null","trial","null","true","0.4,0.6","4:nogo_d","",""
"null","","html-keyboard-response","389","636615","0.0-6.0-1.56","","<img src=""img/grey-n.png"">","null","trial","null","","0.4,0.6","4:nogo_d","0",""
"null","","html-keyboard-response","390","637618","0.0-6.0-2.56","","<div style=""font-size:60px;"">+</div>","null","","","","","","",""
"944.6150000148918","","image-keyboard-response","391","638564","0.0-6.0-0.57","","img/green.png","32","trial","null","false","0.2,0.8","2:nogo_b","",""
"null","","html-keyboard-response","392","639567","0.0-6.0-1.57","","<img src=""img/green-n.png"" border=""10"">","null","trial","null","","0.2,0.8","2:nogo_b","0",""
"null","","html-keyboard-response","393","640567","0.0-6.0-2.57","","<div style=""font-size:60px;"">+</div>","null","","","","","","",""
"null","","image-keyboard-response","394","642069","0.0-6.0-0.58","","img/orange.png","null","trial","32","false","0.8,0.2","1:go_a","",""
"null","","html-keyboard-response","395","643071","0.0-6.0-1.58","","<img src=""img/orange-n.png"">","null","trial","32","","0.8,0.2","1:go_a","0",""
"null","","html-keyboard-response","396","644075","0.0-6.0-2.58","","<div style=""font-size:60px;"">+</div>","null","","","","","","",""
"716.1250000062864","","image-keyboard-response","397","644792","0.0-6.0-0.59","","img/pink.png","32","trial","32","true","0.6,0.4","3:go_c","",""
"null","","html-keyboard-response","398","645795","0.0-6.0-1.59","","<img src=""img/pink-r.png"" border=""10"">","null","trial","32","","0.6,0.4","3:go_c","1",""
"null","","html-keyboard-response","399","646796","0.0-6.0-2.59","","<div style=""font-size:60px;"">+</div>","null","","","","","","",""
"893.4999999764841","","image-keyboard-response","400","647690","0.0-6.0-0.60","","img/green.png","32","trial","null","false","0.2,0.8","2:nogo_b","",""
"null","","html-keyboard-response","401","648692","0.0-6.0-1.60","","<img src=""img/green-n.png"" border=""10"">","null","trial","null","","0.2,0.8","2:nogo_b","0",""
"null","","html-keyboard-response","402","649693","0.0-6.0-2.60","","<div style=""font-size:60px;"">+</div>","null","","","","","","",""
"null","","image-keyboard-response","403","651194","0.0-6.0-0.61","","img/orange.png","null","trial","32","false","0.8,0.2","1:go_a","",""
"null","","html-keyboard-response","404","652196","0.0-6.0-1.61","","<img src=""img/orange-r.png"">","null","trial","32","","0.8,0.2","1:go_a","1",""
"null","","html-keyboard-response","405","653197","0.0-6.0-2.61","","<div style=""font-size:60px;"">+</div>","null","","","","","","",""
"1160.3699999977835","","image-keyboard-response","406","654359","0.0-6.0-0.62","","img/grey.png","32","trial","null","false","0.4,0.6","4:nogo_d","",""
"null","","html-keyboard-response","407","655361","0.0-6.0-1.62","","<img src=""img/grey-n.png"" border=""10"">","null","trial","null","","0.4,0.6","4:nogo_d","0",""
"null","","html-keyboard-response","408","656362","0.0-6.0-2.62","","<div style=""font-size:60px;"">+</div>","null","","","","","","",""
"844.5749999955297","","image-keyboard-response","409","657207","0.0-6.0-0.63","","img/pink.png","32","trial","32","true","0.6,0.4","3:go_c","",""
"null","","html-keyboard-response","410","658210","0.0-6.0-1.63","","<img src=""img/pink-n.png"" border=""10"">","null","trial","32","","0.6,0.4","3:go_c","0",""
"null","","html-keyboard-response","411","659211","0.0-6.0-2.63","","<div style=""font-size:60px;"">+</div>","null","","","","","","",""
"null","","image-keyboard-response","412","660713","0.0-6.0-0.64","","img/grey.png","null","trial","null","true","0.4,0.6","4:nogo_d","",""
"null","","html-keyboard-response","413","661715","0.0-6.0-1.64","","<img src=""img/grey-n.png"">","null","trial","null","","0.4,0.6","4:nogo_d","0",""
"null","","html-keyboard-response","414","662716","0.0-6.0-2.64","","<div style=""font-size:60px;"">+</div>","null","","","","","","",""
"1298.3600000152364","","image-keyboard-response","415","664015","0.0-6.0-0.65","","img/green.png","32","trial","null","false","0.2,0.8","2:nogo_b","",""
"null","","html-keyboard-response","416","665017","0.0-6.0-1.65","","<img src=""img/green-n.png"" border=""10"">","null","trial","null","","0.2,0.8","2:nogo_b","0",""
"null","","html-keyboard-response","417","666018","0.0-6.0-2.65","","<div style=""font-size:60px;"">+</div>","null","","","","","","",""
"710.5049999954645","","image-keyboard-response","418","666729","0.0-6.0-0.66","","img/orange.png","32","trial","32","true","0.8,0.2","1:go_a","",""
"null","","html-keyboard-response","419","667731","0.0-6.0-1.66","","<img src=""img/orange-r.png"" border=""10"">","null","trial","32","","0.8,0.2","1:go_a","1",""
"null","","html-keyboard-response","420","668734","0.0-6.0-2.66","","<div style=""font-size:60px;"">+</div>","null","","","","","","",""
"678.9799999969546","","image-keyboard-response","421","669415","0.0-6.0-0.67","","img/pink.png","32","trial","32","true","0.6,0.4","3:go_c","",""
"null","","html-keyboard-response","422","670417","0.0-6.0-1.67","","<img src=""img/pink-r.png"" border=""10"">","null","trial","32","","0.6,0.4","3:go_c","1",""
"null","","html-keyboard-response","423","671418","0.0-6.0-2.67","","<div style=""font-size:60px;"">+</div>","null","","","","","","",""
"1496.2450000166427","","image-keyboard-response","424","672915","0.0-6.0-0.68","","img/pink.png","32","trial","32","true","0.6,0.4","3:go_c","",""
"null","","html-keyboard-response","425","673921","0.0-6.0-1.68","","<img src=""img/pink-n.png"" border=""10"">","null","trial","32","","0.6,0.4","3:go_c","0",""
"null","","html-keyboard-response","426","674922","0.0-6.0-2.68","","<div style=""font-size:60px;"">+</div>","null","","","","","","",""
"null","","image-keyboard-response","427","676423","0.0-6.0-0.69","","img/grey.png","null","trial","null","true","0.4,0.6","4:nogo_d","",""
"null","","html-keyboard-response","428","677426","0.0-6.0-1.69","","<img src=""img/grey-r.png"">","null","trial","null","","0.4,0.6","4:nogo_d","1",""
"null","","html-keyboard-response","429","678426","0.0-6.0-2.69","","<div style=""font-size:60px;"">+</div>","null","","","","","","",""
"1068.345000006957","","image-keyboard-response","430","679497","0.0-6.0-0.70","","img/green.png","32","trial","null","false","0.2,0.8","2:nogo_b","",""
"null","","html-keyboard-response","431","680499","0.0-6.0-1.70","","<img src=""img/green-n.png"" border=""10"">","null","trial","null","","0.2,0.8","2:nogo_b","0",""
"null","","html-keyboard-response","432","681500","0.0-6.0-2.70","","<div style=""font-size:60px;"">+</div>","null","","","","","","",""
"null","","image-keyboard-response","433","683001","0.0-6.0-0.71","","img/orange.png","null","trial","32","false","0.8,0.2","1:go_a","",""
"null","","html-keyboard-response","434","684005","0.0-6.0-1.71","","<img src=""img/orange-n.png"">","null","trial","32","","0.8,0.2","1:go_a","0",""
"null","","html-keyboard-response","435","685007","0.0-6.0-2.71","","<div style=""font-size:60px;"">+</div>","null","","","","","","",""
"691.659999982221","","image-keyboard-response","436","685700","0.0-6.0-0.72","","img/grey.png","32","trial","null","false","0.4,0.6","4:nogo_d","",""
"null","","html-keyboard-response","437","686704","0.0-6.0-1.72","","<img src=""img/grey-r.png"" border=""10"">","null","trial","null","","0.4,0.6","4:nogo_d","1",""
"null","","html-keyboard-response","438","687705","0.0-6.0-2.72","","<div style=""font-size:60px;"">+</div>","null","","","","","","",""
"null","","image-keyboard-response","439","689206","0.0-6.0-0.73","","img/green.png","null","trial","null","true","0.2,0.8","2:nogo_b","",""
"null","","html-keyboard-response","440","690208","0.0-6.0-1.73","","<img src=""img/green-r.png"">","null","trial","null","","0.2,0.8","2:nogo_b","1",""
"null","","html-keyboard-response","441","691209","0.0-6.0-2.73","","<div style=""font-size:60px;"">+</div>","null","","","","","","",""
"733.7049999914598","","image-keyboard-response","442","691944","0.0-6.0-0.74","","img/pink.png","32","trial","32","true","0.6,0.4","3:go_c","",""
"null","","html-keyboard-response","443","692947","0.0-6.0-1.74","","<img src=""img/pink-r.png"" border=""10"">","null","trial","32","","0.6,0.4","3:go_c","1",""
"null","","html-keyboard-response","444","693948","0.0-6.0-2.74","","<div style=""font-size:60px;"">+</div>","null","","","","","","",""
"null","","image-keyboard-response","445","695450","0.0-6.0-0.75","","img/orange.png","null","trial","32","false","0.8,0.2","1:go_a","",""
"null","","html-keyboard-response","446","696452","0.0-6.0-1.75","","<img src=""img/orange-r.png"">","null","trial","32","","0.8,0.2","1:go_a","1",""
"null","","html-keyboard-response","447","697453","0.0-6.0-2.75","","<div style=""font-size:60px;"">+</div>","null","","","","","","",""
"null","","image-keyboard-response","448","698954","0.0-6.0-0.76","","img/orange.png","null","trial","32","false","0.8,0.2","1:go_a","",""
"null","","html-keyboard-response","449","699956","0.0-6.0-1.76","","<img src=""img/orange-n.png"">","null","trial","32","","0.8,0.2","1:go_a","0",""
"null","","html-keyboard-response","450","700957","0.0-6.0-2.76","","<div style=""font-size:60px;"">+</div>","null","","","","","","",""
"751.8900000141002","","image-keyboard-response","451","701711","0.0-6.0-0.77","","img/pink.png","32","trial","32","true","0.6,0.4","3:go_c","",""
"null","","html-keyboard-response","452","702713","0.0-6.0-1.77","","<img src=""img/pink-r.png"" border=""10"">","null","trial","32","","0.6,0.4","3:go_c","1",""
"null","","html-keyboard-response","453","703714","0.0-6.0-2.77","","<div style=""font-size:60px;"">+</div>","null","","","","","","",""
"null","","image-keyboard-response","454","705215","0.0-6.0-0.78","","img/green.png","null","trial","null","true","0.2,0.8","2:nogo_b","",""
"null","","html-keyboard-response","455","706221","0.0-6.0-1.78","","<img src=""img/green-n.png"">","null","trial","null","","0.2,0.8","2:nogo_b","0",""
"null","","html-keyboard-response","456","707221","0.0-6.0-2.78","","<div style=""font-size:60px;"">+</div>","null","","","","","","",""
"744.8849999927916","","image-keyboard-response","457","707967","0.0-6.0-0.79","","img/grey.png","32","trial","null","false","0.4,0.6","4:nogo_d","",""
"null","","html-keyboard-response","458","708969","0.0-6.0-1.79","","<img src=""img/grey-n.png"" border=""10"">","null","trial","null","","0.4,0.6","4:nogo_d","0",""
"null","","html-keyboard-response","459","709970","0.0-6.0-2.79","","<div style=""font-size:60px;"">+</div>","null","","","","","","",""
"1103.3950000128243","","image-keyboard-response","460","711075","0.0-6.0-0.80","","img/pink.png","32","trial","32","true","0.6,0.4","3:go_c","",""
"null","","html-keyboard-response","461","712078","0.0-6.0-1.80","","<img src=""img/pink-n.png"" border=""10"">","null","trial","32","","0.6,0.4","3:go_c","0",""
"null","","html-keyboard-response","462","713079","0.0-6.0-2.80","","<div style=""font-size:60px;"">+</div>","null","","","","","","",""
"null","","image-keyboard-response","463","714581","0.0-6.0-0.81","","img/orange.png","null","trial","32","false","0.8,0.2","1:go_a","",""
"null","","html-keyboard-response","464","715582","0.0-6.0-1.81","","<img src=""img/orange-n.png"">","null","trial","32","","0.8,0.2","1:go_a","0",""
"null","","html-keyboard-response","465","716584","0.0-6.0-2.81","","<div style=""font-size:60px;"">+</div>","null","","","","","","",""
"null","","image-keyboard-response","466","718085","0.0-6.0-0.82","","img/green.png","null","trial","null","true","0.2,0.8","2:nogo_b","",""
"null","","html-keyboard-response","467","719087","0.0-6.0-1.82","","<img src=""img/green-r.png"">","null","trial","null","","0.2,0.8","2:nogo_b","1",""
"null","","html-keyboard-response","468","720088","0.0-6.0-2.82","","<div style=""font-size:60px;"">+</div>","null","","","","","","",""
"689.8499999952037","","image-keyboard-response","469","720779","0.0-6.0-0.83","","img/grey.png","32","trial","null","false","0.4,0.6","4:nogo_d","",""
"null","","html-keyboard-response","470","721781","0.0-6.0-1.83","","<img src=""img/grey-n.png"" border=""10"">","null","trial","null","","0.4,0.6","4:nogo_d","0",""
"null","","html-keyboard-response","471","722782","0.0-6.0-2.83","","<div style=""font-size:60px;"">+</div>","null","","","","","","",""
"1186.630000011064","","image-keyboard-response","472","723970","0.0-6.0-0.84","","img/green.png","32","trial","null","false","0.2,0.8","2:nogo_b","",""
"null","","html-keyboard-response","473","724972","0.0-6.0-1.84","","<img src=""img/green-n.png"" border=""10"">","null","trial","null","","0.2,0.8","2:nogo_b","0",""
"null","","html-keyboard-response","474","725973","0.0-6.0-2.84","","<div style=""font-size:60px;"">+</div>","null","","","","","","",""
"null","","image-keyboard-response","475","727475","0.0-6.0-0.85","","img/orange.png","null","trial","32","false","0.8,0.2","1:go_a","",""
"null","","html-keyboard-response","476","728477","0.0-6.0-1.85","","<img src=""img/orange-n.png"">","null","trial","32","","0.8,0.2","1:go_a","0",""
"null","","html-keyboard-response","477","729479","0.0-6.0-2.85","","<div style=""font-size:60px;"">+</div>","null","","","","","","",""
"780.4899999755435","","image-keyboard-response","478","730261","0.0-6.0-0.86","","img/grey.png","32","trial","null","false","0.4,0.6","4:nogo_d","",""
"null","","html-keyboard-response","479","731265","0.0-6.0-1.86","","<img src=""img/grey-n.png"" border=""10"">","null","trial","null","","0.4,0.6","4:nogo_d","0",""
"null","","html-keyboard-response","480","732266","0.0-6.0-2.86","","<div style=""font-size:60px;"">+</div>","null","","","","","","",""
"494.95000002207235","","image-keyboard-response","481","732762","0.0-6.0-0.87","","img/pink.png","32","trial","32","true","0.6,0.4","3:go_c","",""
"null","","html-keyboard-response","482","733764","0.0-6.0-1.87","","<img src=""img/pink-r.png"" border=""10"">","null","trial","32","","0.6,0.4","3:go_c","1",""
"null","","html-keyboard-response","483","734764","0.0-6.0-2.87","","<div style=""font-size:60px;"">+</div>","null","","","","","","",""
"null","","image-keyboard-response","484","736266","0.0-6.0-0.88","","img/green.png","null","trial","null","true","0.2,0.8","2:nogo_b","",""
"null","","html-keyboard-response","485","737268","0.0-6.0-1.88","","<img src=""img/green-r.png"">","null","trial","null","","0.2,0.8","2:nogo_b","1",""
"null","","html-keyboard-response","486","738269","0.0-6.0-2.88","","<div style=""font-size:60px;"">+</div>","null","","","","","","",""
"764.6700000041164","","image-keyboard-response","487","739035","0.0-6.0-0.89","","img/pink.png","32","trial","32","true","0.6,0.4","3:go_c","",""
"null","","html-keyboard-response","488","740040","0.0-6.0-1.89","","<img src=""img/pink-r.png"" border=""10"">","null","trial","32","","0.6,0.4","3:go_c","1",""
"null","","html-keyboard-response","489","741041","0.0-6.0-2.89","","<div style=""font-size:60px;"">+</div>","null","","","","","","",""
"null","","image-keyboard-response","490","742543","0.0-6.0-0.90","","img/orange.png","null","trial","32","false","0.8,0.2","1:go_a","",""
"null","","html-keyboard-response","491","743545","0.0-6.0-1.90","","<img src=""img/orange-r.png"">","null","trial","32","","0.8,0.2","1:go_a","1",""
"null","","html-keyboard-response","492","744547","0.0-6.0-2.90","","<div style=""font-size:60px;"">+</div>","null","","","","","","",""
"877.5100000202656","","image-keyboard-response","493","745425","0.0-6.0-0.91","","img/grey.png","32","trial","null","false","0.4,0.6","4:nogo_d","",""
"null","","html-keyboard-response","494","746427","0.0-6.0-1.91","","<img src=""img/grey-n.png"" border=""10"">","null","trial","null","","0.4,0.6","4:nogo_d","0",""
"null","","html-keyboard-response","495","747433","0.0-6.0-2.91","","<div style=""font-size:60px;"">+</div>","null","","","","","","",""
"696.9499999831896","","image-keyboard-response","496","748131","0.0-6.0-0.92","","img/pink.png","32","trial","32","true","0.6,0.4","3:go_c","",""
"null","","html-keyboard-response","497","749134","0.0-6.0-1.92","","<img src=""img/pink-n.png"" border=""10"">","null","trial","32","","0.6,0.4","3:go_c","0",""
"null","","html-keyboard-response","498","750135","0.0-6.0-2.92","","<div style=""font-size:60px;"">+</div>","null","","","","","","",""
"null","","image-keyboard-response","499","751636","0.0-6.0-0.93","","img/green.png","null","trial","null","true","0.2,0.8","2:nogo_b","",""
"null","","html-keyboard-response","500","752639","0.0-6.0-1.93","","<img src=""img/green-r.png"">","null","trial","null","","0.2,0.8","2:nogo_b","1",""
"null","","html-keyboard-response","501","753640","0.0-6.0-2.93","","<div style=""font-size:60px;"">+</div>","null","","","","","","",""
"1020.1649999944493","","image-keyboard-response","502","754661","0.0-6.0-0.94","","img/grey.png","32","trial","null","false","0.4,0.6","4:nogo_d","",""
"null","","html-keyboard-response","503","755664","0.0-6.0-1.94","","<img src=""img/grey-r.png"" border=""10"">","null","trial","null","","0.4,0.6","4:nogo_d","1",""
"null","","html-keyboard-response","504","756665","0.0-6.0-2.94","","<div style=""font-size:60px;"">+</div>","null","","","","","","",""
"null","","image-keyboard-response","505","758166","0.0-6.0-0.95","","img/orange.png","null","trial","32","false","0.8,0.2","1:go_a","",""
"null","","html-keyboard-response","506","759168","0.0-6.0-1.95","","<img src=""img/orange-n.png"">","null","trial","32","","0.8,0.2","1:go_a","0",""
"null","","html-keyboard-response","507","760169","0.0-6.0-2.95","","<div style=""font-size:60px;"">+</div>","null","","","","","","",""
"857.3949999990873","","image-keyboard-response","508","761028","0.0-6.0-0.96","","img/orange.png","32","trial","32","true","0.8,0.2","1:go_a","",""
"null","","html-keyboard-response","509","762030","0.0-6.0-1.96","","<img src=""img/orange-r.png"" border=""10"">","null","trial","32","","0.8,0.2","1:go_a","1",""
"null","","html-keyboard-response","510","763031","0.0-6.0-2.96","","<div style=""font-size:60px;"">+</div>","null","","","","","","",""
"811.5500000130851","","image-keyboard-response","511","763844","0.0-6.0-0.97","","img/pink.png","32","trial","32","true","0.6,0.4","3:go_c","",""
"null","","html-keyboard-response","512","764846","0.0-6.0-1.97","","<img src=""img/pink-n.png"" border=""10"">","null","trial","32","","0.6,0.4","3:go_c","0",""
"null","","html-keyboard-response","513","765847","0.0-6.0-2.97","","<div style=""font-size:60px;"">+</div>","null","","","","","","",""
"1240.8250000153203","","image-keyboard-response","514","767090","0.0-6.0-0.98","","img/grey.png","32","trial","null","false","0.4,0.6","4:nogo_d","",""
"null","","html-keyboard-response","515","768092","0.0-6.0-1.98","","<img src=""img/grey-n.png"" border=""10"">","null","trial","null","","0.4,0.6","4:nogo_d","0",""
"null","","html-keyboard-response","516","769092","0.0-6.0-2.98","","<div style=""font-size:60px;"">+</div>","null","","","","","","",""
"null","","image-keyboard-response","517","770594","0.0-6.0-0.99","","img/green.png","null","trial","null","true","0.2,0.8","2:nogo_b","",""
"null","","html-keyboard-response","518","771596","0.0-6.0-1.99","","<img src=""img/green-r.png"">","null","trial","null","","0.2,0.8","2:nogo_b","1",""
"null","","html-keyboard-response","519","772597","0.0-6.0-2.99","","<div style=""font-size:60px;"">+</div>","null","","","","","","",""
"695.1499999850057","","image-keyboard-response","520","773294","0.0-6.0-0.100","","img/pink.png","32","trial","32","true","0.6,0.4","3:go_c","",""
"null","","html-keyboard-response","521","774296","0.0-6.0-1.100","","<img src=""img/pink-r.png"" border=""10"">","null","trial","32","","0.6,0.4","3:go_c","1",""
"null","","html-keyboard-response","522","775298","0.0-6.0-2.100","","<div style=""font-size:60px;"">+</div>","null","","","","","","",""
"859.7149999986868","","image-keyboard-response","523","776159","0.0-6.0-0.101","","img/grey.png","32","trial","null","false","0.4,0.6","4:nogo_d","",""
"null","","html-keyboard-response","524","777162","0.0-6.0-1.101","","<img src=""img/grey-n.png"" border=""10"">","null","trial","null","","0.4,0.6","4:nogo_d","0",""
"null","","html-keyboard-response","525","778164","0.0-6.0-2.101","","<div style=""font-size:60px;"">+</div>","null","","","","","","",""
"null","","image-keyboard-response","526","779667","0.0-6.0-0.102","","img/orange.png","null","trial","32","false","0.8,0.2","1:go_a","",""
"null","","html-keyboard-response","527","780669","0.0-6.0-1.102","","<img src=""img/orange-n.png"">","null","trial","32","","0.8,0.2","1:go_a","0",""
"null","","html-keyboard-response","528","781670","0.0-6.0-2.102","","<div style=""font-size:60px;"">+</div>","null","","","","","","",""
"793.5249999864027","","image-keyboard-response","529","782466","0.0-6.0-0.103","","img/green.png","32","trial","null","false","0.2,0.8","2:nogo_b","",""
"null","","html-keyboard-response","530","783468","0.0-6.0-1.103","","<img src=""img/green-n.png"" border=""10"">","null","trial","null","","0.2,0.8","2:nogo_b","0",""
"null","","html-keyboard-response","531","784469","0.0-6.0-2.103","","<div style=""font-size:60px;"">+</div>","null","","","","","","",""
"null","","image-keyboard-response","532","785970","0.0-6.0-0.104","","img/orange.png","null","trial","32","false","0.8,0.2","1:go_a","",""
"null","","html-keyboard-response","533","786973","0.0-6.0-1.104","","<img src=""img/orange-n.png"">","null","trial","32","","0.8,0.2","1:go_a","0",""
"null","","html-keyboard-response","534","787974","0.0-6.0-2.104","","<div style=""font-size:60px;"">+</div>","null","","","","","","",""
"723.8300000026356","","image-keyboard-response","535","788699","0.0-6.0-0.105","","img/pink.png","32","trial","32","true","0.6,0.4","3:go_c","",""
"null","","html-keyboard-response","536","789701","0.0-6.0-1.105","","<img src=""img/pink-n.png"" border=""10"">","null","trial","32","","0.6,0.4","3:go_c","0",""
"null","","html-keyboard-response","537","790702","0.0-6.0-2.105","","<div style=""font-size:60px;"">+</div>","null","","","","","","",""
"630.3400000033434","","image-keyboard-response","538","791333","0.0-6.0-0.106","","img/green.png","32","trial","null","false","0.2,0.8","2:nogo_b","",""
"null","","html-keyboard-response","539","792336","0.0-6.0-1.106","","<img src=""img/green-r.png"" border=""10"">","null","trial","null","","0.2,0.8","2:nogo_b","1",""
"null","","html-keyboard-response","540","793337","0.0-6.0-2.106","","<div style=""font-size:60px;"">+</div>","null","","","","","","",""
"629.7900000063237","","image-keyboard-response","541","793968","0.0-6.0-0.107","","img/grey.png","32","trial","null","false","0.4,0.6","4:nogo_d","",""
"null","","html-keyboard-response","542","794972","0.0-6.0-1.107","","<img src=""img/grey-n.png"" border=""10"">","null","trial","null","","0.4,0.6","4:nogo_d","0",""
"null","","html-keyboard-response","543","795973","0.0-6.0-2.107","","<div style=""font-size:60px;"">+</div>","null","","","","","","",""
"1046.440000005532","","image-keyboard-response","544","797021","0.0-6.0-0.108","","img/grey.png","32","trial","null","false","0.4,0.6","4:nogo_d","",""
"null","","html-keyboard-response","545","798024","0.0-6.0-1.108","","<img src=""img/grey-n.png"" border=""10"">","null","trial","null","","0.4,0.6","4:nogo_d","0",""
"null","","html-keyboard-response","546","799025","0.0-6.0-2.108","","<div style=""font-size:60px;"">+</div>","null","","","","","","",""
"null","","image-keyboard-response","547","800527","0.0-6.0-0.109","","img/green.png","null","trial","null","true","0.2,0.8","2:nogo_b","",""
"null","","html-keyboard-response","548","801529","0.0-6.0-1.109","","<img src=""img/green-r.png"">","null","trial","null","","0.2,0.8","2:nogo_b","1",""
"null","","html-keyboard-response","549","802530","0.0-6.0-2.109","","<div style=""font-size:60px;"">+</div>","null","","","","","","",""
"null","","image-keyboard-response","550","804032","0.0-6.0-0.110","","img/orange.png","null","trial","32","false","0.8,0.2","1:go_a","",""
"null","","html-keyboard-response","551","805034","0.0-6.0-1.110","","<img src=""img/orange-n.png"">","null","trial","32","","0.8,0.2","1:go_a","0",""
"null","","html-keyboard-response","552","806035","0.0-6.0-2.110","","<div style=""font-size:60px;"">+</div>","null","","","","","","",""
"674.910000001546","","image-keyboard-response","553","806712","0.0-6.0-0.111","","img/pink.png","32","trial","32","true","0.6,0.4","3:go_c","",""
"null","","html-keyboard-response","554","807714","0.0-6.0-1.111","","<img src=""img/pink-n.png"" border=""10"">","null","trial","32","","0.6,0.4","3:go_c","0",""
"null","","html-keyboard-response","555","808715","0.0-6.0-2.111","","<div style=""font-size:60px;"">+</div>","null","","","","","","",""
"808.3299999998417","","image-keyboard-response","556","809526","0.0-6.0-0.112","","img/pink.png","32","trial","32","true","0.6,0.4","3:go_c","",""
"null","","html-keyboard-response","557","810529","0.0-6.0-1.112","","<img src=""img/pink-r.png"" border=""10"">","null","trial","32","","0.6,0.4","3:go_c","1",""
"null","","html-keyboard-response","558","811530","0.0-6.0-2.112","","<div style=""font-size:60px;"">+</div>","null","","","","","","",""
"790.2950000134297","","image-keyboard-response","559","812321","0.0-6.0-0.113","","img/orange.png","32","trial","32","true","0.8,0.2","1:go_a","",""
"null","","html-keyboard-response","560","813323","0.0-6.0-1.113","","<img src=""img/orange-r.png"" border=""10"">","null","trial","32","","0.8,0.2","1:go_a","1",""
"null","","html-keyboard-response","561","814324","0.0-6.0-2.113","","<div style=""font-size:60px;"">+</div>","null","","","","","","",""
"701.1599999968894","","image-keyboard-response","562","815027","0.0-6.0-0.114","","img/grey.png","32","trial","null","false","0.4,0.6","4:nogo_d","",""
"null","","html-keyboard-response","563","816030","0.0-6.0-1.114","","<img src=""img/grey-n.png"" border=""10"">","null","trial","null","","0.4,0.6","4:nogo_d","0",""
"null","","html-keyboard-response","564","817031","0.0-6.0-2.114","","<div style=""font-size:60px;"">+</div>","null","","","","","","",""
"null","","image-keyboard-response","565","818532","0.0-6.0-0.115","","img/green.png","null","trial","null","true","0.2,0.8","2:nogo_b","",""
"null","","html-keyboard-response","566","819534","0.0-6.0-1.115","","<img src=""img/green-r.png"">","null","trial","null","","0.2,0.8","2:nogo_b","1",""
"null","","html-keyboard-response","567","820535","0.0-6.0-2.115","","<div style=""font-size:60px;"">+</div>","null","","","","","","",""
"803.3899999863934","","image-keyboard-response","568","821340","0.0-6.0-0.116","","img/pink.png","32","trial","32","true","0.6,0.4","3:go_c","",""
"null","","html-keyboard-response","569","822344","0.0-6.0-1.116","","<img src=""img/pink-n.png"" border=""10"">","null","trial","32","","0.6,0.4","3:go_c","0",""
"null","","html-keyboard-response","570","823345","0.0-6.0-2.116","","<div style=""font-size:60px;"">+</div>","null","","","","","","",""
"638.6749999946915","","image-keyboard-response","571","823985","0.0-6.0-0.117","","img/grey.png","32","trial","null","false","0.4,0.6","4:nogo_d","",""
"null","","html-keyboard-response","572","824988","0.0-6.0-1.117","","<img src=""img/grey-r.png"" border=""10"">","null","trial","null","","0.4,0.6","4:nogo_d","1",""
"null","","html-keyboard-response","573","825988","0.0-6.0-2.117","","<div style=""font-size:60px;"">+</div>","null","","","","","","",""
"null","","image-keyboard-response","574","827490","0.0-6.0-0.118","","img/green.png","null","trial","null","true","0.2,0.8","2:nogo_b","",""
"null","","html-keyboard-response","575","828494","0.0-6.0-1.118","","<img src=""img/green-r.png"">","null","trial","null","","0.2,0.8","2:nogo_b","1",""
"null","","html-keyboard-response","576","829496","0.0-6.0-2.118","","<div style=""font-size:60px;"">+</div>","null","","","","","","",""
"null","","image-keyboard-response","577","830997","0.0-6.0-0.119","","img/orange.png","null","trial","32","false","0.8,0.2","1:go_a","",""
"null","","html-keyboard-response","578","831999","0.0-6.0-1.119","","<img src=""img/orange-r.png"">","null","trial","32","","0.8,0.2","1:go_a","1",""
"null","","html-keyboard-response","579","833004","0.0-6.0-2.119","","<div style=""font-size:60px;"">+</div>","null","","","","","","",""
"152367.81500000507","","instructions","580","985372","0.0-7.0","[{""page_index"":0,""viewing_time"":152367.4100000062}]","","","","","","","","",""
"791.2199999846052","","image-keyboard-response","581","986165","0.0-8.0-0.0","","img/blue.png","32","trial","null","false","0.2,0.8","4:nogo_d","",""
"null","","html-keyboard-response","582","987168","0.0-8.0-1.0","","<img src=""img/blue-n.png"" border=""10"">","null","trial","null","","0.2,0.8","4:nogo_d","0",""
"null","","html-keyboard-response","583","988169","0.0-8.0-2.0","","<div style=""font-size:60px;"">+</div>","null","","","","","","",""
"1068.0449999927077","","image-keyboard-response","584","989238","0.0-8.0-0.1","","img/purple.png","32","trial","32","true","0.8,0.2","1:go_a","",""
"null","","html-keyboard-response","585","990241","0.0-8.0-1.1","","<img src=""img/purple-r.png"" border=""10"">","null","trial","32","","0.8,0.2","1:go_a","1",""
"null","","html-keyboard-response","586","991242","0.0-8.0-2.1","","<div style=""font-size:60px;"">+</div>","null","","","","","","",""
"1339.4200000038836","","image-keyboard-response","587","992582","0.0-8.0-0.2","","img/pink.png","32","trial","null","false","0.2,0.8","2:nogo_b","",""
"null","","html-keyboard-response","588","993584","0.0-8.0-1.2","","<img src=""img/pink-n.png"" border=""10"">","null","trial","null","","0.2,0.8","2:nogo_b","0",""
"null","","html-keyboard-response","589","994585","0.0-8.0-2.2","","<div style=""font-size:60px;"">+</div>","null","","","","","","",""
"1259.7700000042096","","image-keyboard-response","590","995846","0.0-8.0-0.3","","img/orange.png","32","trial","32","true","0.8,0.2","3:go_c","",""
"null","","html-keyboard-response","591","996848","0.0-8.0-1.3","","<img src=""img/orange-r.png"" border=""10"">","null","trial","32","","0.8,0.2","3:go_c","1",""
"null","","html-keyboard-response","592","997849","0.0-8.0-2.3","","<div style=""font-size:60px;"">+</div>","null","","","","","","",""
"null","","image-keyboard-response","593","999350","0.0-8.0-0.4","","img/orange.png","null","trial","32","false","0.8,0.2","3:go_c","",""
"null","","html-keyboard-response","594","1000352","0.0-8.0-1.4","","<img src=""img/orange-n.png"">","null","trial","32","","0.8,0.2","3:go_c","0",""
"null","","html-keyboard-response","595","1001354","0.0-8.0-2.4","","<div style=""font-size:60px;"">+</div>","null","","","","","","",""
"null","","image-keyboard-response","596","1002855","0.0-8.0-0.5","","img/blue.png","null","trial","null","true","0.2,0.8","4:nogo_d","",""
"null","","html-keyboard-response","597","1003857","0.0-8.0-1.5","","<img src=""img/blue-n.png"">","null","trial","null","","0.2,0.8","4:nogo_d","0",""
"null","","html-keyboard-response","598","1004858","0.0-8.0-2.5","","<div style=""font-size:60px;"">+</div>","null","","","","","","",""
"874.5850000123028","","image-keyboard-response","599","1005734","0.0-8.0-0.6","","img/pink.png","32","trial","null","false","0.2,0.8","2:nogo_b","",""
"null","","html-keyboard-response","600","1006737","0.0-8.0-1.6","","<img src=""img/pink-n.png"" border=""10"">","null","trial","null","","0.2,0.8","2:nogo_b","0",""
"null","","html-keyboard-response","601","1007738","0.0-8.0-2.6","","<div style=""font-size:60px;"">+</div>","null","","","","","","",""
"744.2549999977928","","image-keyboard-response","602","1008484","0.0-8.0-0.7","","img/purple.png","32","trial","32","true","0.8,0.2","1:go_a","",""
"null","","html-keyboard-response","603","1009486","0.0-8.0-1.7","","<img src=""img/purple-r.png"" border=""10"">","null","trial","32","","0.8,0.2","1:go_a","1",""
"null","","html-keyboard-response","604","1010487","0.0-8.0-2.7","","<div style=""font-size:60px;"">+</div>","null","","","","","","",""
"null","","image-keyboard-response","605","1011989","0.0-8.0-0.8","","img/pink.png","null","trial","null","true","0.2,0.8","2:nogo_b","",""
"null","","html-keyboard-response","606","1012992","0.0-8.0-1.8","","<img src=""img/pink-r.png"">","null","trial","null","","0.2,0.8","2:nogo_b","1",""
"null","","html-keyboard-response","607","1013994","0.0-8.0-2.8","","<div style=""font-size:60px;"">+</div>","null","","","","","","",""
"null","","image-keyboard-response","608","1015495","0.0-8.0-0.9","","img/orange.png","null","trial","32","false","0.8,0.2","3:go_c","",""
"null","","html-keyboard-response","609","1016498","0.0-8.0-1.9","","<img src=""img/orange-n.png"">","null","trial","32","","0.8,0.2","3:go_c","0",""
"null","","html-keyboard-response","610","1017499","0.0-8.0-2.9","","<div style=""font-size:60px;"">+</div>","null","","","","","","",""
"null","","image-keyboard-response","611","1019001","0.0-8.0-0.10","","img/blue.png","null","trial","null","true","0.2,0.8","4:nogo_d","",""
"null","","html-keyboard-response","612","1020002","0.0-8.0-1.10","","<img src=""img/blue-n.png"">","null","trial","null","","0.2,0.8","4:nogo_d","0",""
"null","","html-keyboard-response","613","1021003","0.0-8.0-2.10","","<div style=""font-size:60px;"">+</div>","null","","","","","","",""
"657.5999999768101","","image-keyboard-response","614","1021663","0.0-8.0-0.11","","img/purple.png","32","trial","32","true","0.8,0.2","1:go_a","",""
"null","","html-keyboard-response","615","1022666","0.0-8.0-1.11","","<img src=""img/purple-r.png"" border=""10"">","null","trial","32","","0.8,0.2","1:go_a","1",""
"null","","html-keyboard-response","616","1023667","0.0-8.0-2.11","","<div style=""font-size:60px;"">+</div>","null","","","","","","",""
"972.1149999822956","","image-keyboard-response","617","1024640","0.0-8.0-0.12","","img/orange.png","32","trial","32","true","0.8,0.2","3:go_c","",""
"null","","html-keyboard-response","618","1025643","0.0-8.0-1.12","","<img src=""img/orange-n.png"" border=""10"">","null","trial","32","","0.8,0.2","3:go_c","0",""
"null","","html-keyboard-response","619","1026644","0.0-8.0-2.12","","<div style=""font-size:60px;"">+</div>","null","","","","","","",""
"null","","image-keyboard-response","620","1028145","0.0-8.0-0.13","","img/blue.png","null","trial","null","true","0.2,0.8","4:nogo_d","",""
"null","","html-keyboard-response","621","1029148","0.0-8.0-1.13","","<img src=""img/blue-r.png"">","null","trial","null","","0.2,0.8","4:nogo_d","1",""
"null","","html-keyboard-response","622","1030149","0.0-8.0-2.13","","<div style=""font-size:60px;"">+</div>","null","","","","","","",""
"683.5949999804143","","image-keyboard-response","623","1030834","0.0-8.0-0.14","","img/purple.png","32","trial","32","true","0.8,0.2","1:go_a","",""
"null","","html-keyboard-response","624","1031836","0.0-8.0-1.14","","<img src=""img/purple-r.png"" border=""10"">","null","trial","32","","0.8,0.2","1:go_a","1",""
"null","","html-keyboard-response","625","1032837","0.0-8.0-2.14","","<div style=""font-size:60px;"">+</div>","null","","","","","","",""
"null","","image-keyboard-response","626","1034339","0.0-8.0-0.15","","img/pink.png","null","trial","null","true","0.2,0.8","2:nogo_b","",""
"null","","html-keyboard-response","627","1035342","0.0-8.0-1.15","","<img src=""img/pink-r.png"">","null","trial","null","","0.2,0.8","2:nogo_b","1",""
"null","","html-keyboard-response","628","1036343","0.0-8.0-2.15","","<div style=""font-size:60px;"">+</div>","null","","","","","","",""
"null","","image-keyboard-response","629","1037845","0.0-8.0-0.16","","img/orange.png","null","trial","32","false","0.8,0.2","3:go_c","",""
"null","","html-keyboard-response","630","1038847","0.0-8.0-1.16","","<img src=""img/orange-n.png"">","null","trial","32","","0.8,0.2","3:go_c","0",""
"null","","html-keyboard-response","631","1039849","0.0-8.0-2.16","","<div style=""font-size:60px;"">+</div>","null","","","","","","",""
"673.7800000119023","","image-keyboard-response","632","1040526","0.0-8.0-0.17","","img/purple.png","32","trial","32","true","0.8,0.2","1:go_a","",""
"null","","html-keyboard-response","633","1041529","0.0-8.0-1.17","","<img src=""img/purple-r.png"" border=""10"">","null","trial","32","","0.8,0.2","1:go_a","1",""
"null","","html-keyboard-response","634","1042530","0.0-8.0-2.17","","<div style=""font-size:60px;"">+</div>","null","","","","","","",""
"null","","image-keyboard-response","635","1044031","0.0-8.0-0.18","","img/blue.png","null","trial","null","true","0.2,0.8","4:nogo_d","",""
"null","","html-keyboard-response","636","1045034","0.0-8.0-1.18","","<img src=""img/blue-r.png"">","null","trial","null","","0.2,0.8","4:nogo_d","1",""
"null","","html-keyboard-response","637","1046035","0.0-8.0-2.18","","<div style=""font-size:60px;"">+</div>","null","","","","","","",""
"null","","image-keyboard-response","638","1047536","0.0-8.0-0.19","","img/pink.png","null","trial","null","true","0.2,0.8","2:nogo_b","",""
"null","","html-keyboard-response","639","1048539","0.0-8.0-1.19","","<img src=""img/pink-n.png"">","null","trial","null","","0.2,0.8","2:nogo_b","0",""
"null","","html-keyboard-response","640","1049540","0.0-8.0-2.19","","<div style=""font-size:60px;"">+</div>","null","","","","","","",""
"729.9699999857694","","image-keyboard-response","641","1050271","0.0-8.0-0.20","","img/purple.png","32","trial","32","true","0.8,0.2","1:go_a","",""
"null","","html-keyboard-response","642","1051274","0.0-8.0-1.20","","<img src=""img/purple-n.png"" border=""10"">","null","trial","32","","0.8,0.2","1:go_a","0",""
"null","","html-keyboard-response","643","1052275","0.0-8.0-2.20","","<div style=""font-size:60px;"">+</div>","null","","","","","","",""
"726.9699999887962","","image-keyboard-response","644","1053004","0.0-8.0-0.21","","img/orange.png","32","trial","32","true","0.8,0.2","3:go_c","",""
"null","","html-keyboard-response","645","1054007","0.0-8.0-1.21","","<img src=""img/orange-n.png"" border=""10"">","null","trial","32","","0.8,0.2","3:go_c","0",""
"null","","html-keyboard-response","646","1055007","0.0-8.0-2.21","","<div style=""font-size:60px;"">+</div>","null","","","","","","",""
"1281.2400000111666","","image-keyboard-response","647","1056290","0.0-8.0-0.22","","img/pink.png","32","trial","null","false","0.2,0.8","2:nogo_b","",""
"null","","html-keyboard-response","648","1057293","0.0-8.0-1.22","","<img src=""img/pink-n.png"" border=""10"">","null","trial","null","","0.2,0.8","2:nogo_b","0",""
"null","","html-keyboard-response","649","1058294","0.0-8.0-2.22","","<div style=""font-size:60px;"">+</div>","null","","","","","","",""
"964.2150000145193","","image-keyboard-response","650","1059261","0.0-8.0-0.23","","img/blue.png","32","trial","null","false","0.2,0.8","4:nogo_d","",""
"null","","html-keyboard-response","651","1060264","0.0-8.0-1.23","","<img src=""img/blue-n.png"" border=""10"">","null","trial","null","","0.2,0.8","4:nogo_d","0",""
"null","","html-keyboard-response","652","1061265","0.0-8.0-2.23","","<div style=""font-size:60px;"">+</div>","null","","","","","","",""
"743.2600000174716","","image-keyboard-response","653","1062009","0.0-8.0-0.24","","img/purple.png","32","trial","32","true","0.8,0.2","1:go_a","",""
"null","","html-keyboard-response","654","1063012","0.0-8.0-1.24","","<img src=""img/purple-r.png"" border=""10"">","null","trial","32","","0.8,0.2","1:go_a","1",""
"null","","html-keyboard-response","655","1064012","0.0-8.0-2.24","","<div style=""font-size:60px;"">+</div>","null","","","","","","",""
"null","","image-keyboard-response","656","1065514","0.0-8.0-0.25","","img/pink.png","null","trial","null","true","0.2,0.8","2:nogo_b","",""
"null","","html-keyboard-response","657","1066516","0.0-8.0-1.25","","<img src=""img/pink-n.png"">","null","trial","null","","0.2,0.8","2:nogo_b","0",""
"null","","html-keyboard-response","658","1067517","0.0-8.0-2.25","","<div style=""font-size:60px;"">+</div>","null","","","","","","",""
"880.894999980228","","image-keyboard-response","659","1068399","0.0-8.0-0.26","","img/blue.png","32","trial","null","false","0.2,0.8","4:nogo_d","",""
"null","","html-keyboard-response","660","1069402","0.0-8.0-1.26","","<img src=""img/blue-n.png"" border=""10"">","null","trial","null","","0.2,0.8","4:nogo_d","0",""
"null","","html-keyboard-response","661","1070403","0.0-8.0-2.26","","<div style=""font-size:60px;"">+</div>","null","","","","","","",""
"918.1200000166427","","image-keyboard-response","662","1071322","0.0-8.0-0.27","","img/orange.png","32","trial","32","true","0.8,0.2","3:go_c","",""
"null","","html-keyboard-response","663","1072324","0.0-8.0-1.27","","<img src=""img/orange-r.png"" border=""10"">","null","trial","32","","0.8,0.2","3:go_c","1",""
"null","","html-keyboard-response","664","1073325","0.0-8.0-2.27","","<div style=""font-size:60px;"">+</div>","null","","","","","","",""
"null","","image-keyboard-response","665","1074826","0.0-8.0-0.28","","img/orange.png","null","trial","32","false","0.8,0.2","3:go_c","",""
"null","","html-keyboard-response","666","1075828","0.0-8.0-1.28","","<img src=""img/orange-r.png"">","null","trial","32","","0.8,0.2","3:go_c","1",""
"null","","html-keyboard-response","667","1076829","0.0-8.0-2.28","","<div style=""font-size:60px;"">+</div>","null","","","","","","",""
"null","","image-keyboard-response","668","1078330","0.0-8.0-0.29","","img/pink.png","null","trial","null","true","0.2,0.8","2:nogo_b","",""
"null","","html-keyboard-response","669","1079332","0.0-8.0-1.29","","<img src=""img/pink-r.png"">","null","trial","null","","0.2,0.8","2:nogo_b","1",""
"null","","html-keyboard-response","670","1080333","0.0-8.0-2.29","","<div style=""font-size:60px;"">+</div>","null","","","","","","",""
"null","","image-keyboard-response","671","1081835","0.0-8.0-0.30","","img/blue.png","null","trial","null","true","0.2,0.8","4:nogo_d","",""
"null","","html-keyboard-response","672","1082838","0.0-8.0-1.30","","<img src=""img/blue-r.png"">","null","trial","null","","0.2,0.8","4:nogo_d","1",""
"null","","html-keyboard-response","673","1083839","0.0-8.0-2.30","","<div style=""font-size:60px;"">+</div>","null","","","","","","",""
"668.0799999739975","","image-keyboard-response","674","1084508","0.0-8.0-0.31","","img/purple.png","32","trial","32","true","0.8,0.2","1:go_a","",""
"null","","html-keyboard-response","675","1085512","0.0-8.0-1.31","","<img src=""img/purple-n.png"" border=""10"">","null","trial","32","","0.8,0.2","1:go_a","0",""
"null","","html-keyboard-response","676","1086512","0.0-8.0-2.31","","<div style=""font-size:60px;"">+</div>","null","","","","","","",""
"1141.0550000146031","","image-keyboard-response","677","1087655","0.0-8.0-0.32","","img/orange.png","32","trial","32","true","0.8,0.2","3:go_c","",""
