"rt","url","trial_type","trial_index","time_elapsed","internal_node_id","view_history","stimulus","key_press","test_part","correct_response","correct","use_rew","which_stim","reward","responses"
"8968.934999778867","consent.html","external-html","0","9113","0.0-0.0","","","","","","","","","",""
"153838.81000010297","","instructions","1","162959","0.0-1.0","[{""page_index"":0,""viewing_time"":4363.2049998268485},{""page_index"":1,""viewing_time"":35777.88500022143},{""page_index"":2,""viewing_time"":15487.369999755174},{""page_index"":3,""viewing_time"":37992.7100003697},{""page_index"":4,""viewing_time"":22244.0700000152},{""page_index"":5,""viewing_time"":7203.729999717325},{""page_index"":6,""viewing_time"":30767.969999928027}]","","","","","","","","",""
"525.4150000400841","","image-keyboard-response","2","163488","0.0-2.0-0.0","","img/test1.PNG","32","practice","32","true","","","",""
"null","","html-keyboard-response","3","164490","0.0-2.0-1.0","","<img src=""img/test1-reward.PNG"" border=""10px; grey"">","null","","","","","","",""
"null","","html-keyboard-response","4","165491","0.0-2.0-2.0","","<div style=""font-size:60px;"">+</div>","null","","","","","","",""
"null","","image-keyboard-response","5","166994","0.0-2.0-0.1","","img/test2.PNG","null","practice","null","true","","","",""
"null","","html-keyboard-response","6","167995","0.0-2.0-1.1","","<img src=""img/test2-reward.PNG"">","null","","","","","","",""
"null","","html-keyboard-response","7","168996","0.0-2.0-2.1","","<div style=""font-size:60px;"">+</div>","null","","","","","","",""
"null","","image-keyboard-response","8","170498","0.0-2.0-0.2","","img/test3.PNG","null","practice","null","true","","","",""
"null","","html-keyboard-response","9","171499","0.0-2.0-1.2","","<img src=""img/test3-reward.PNG"">","null","","","","","","",""
"null","","html-keyboard-response","10","172500","0.0-2.0-2.2","","<div style=""font-size:60px;"">+</div>","null","","","","","","",""
"null","","image-keyboard-response","11","174001","0.0-2.0-0.3","","img/test3.PNG","null","practice","null","true","","","",""
"null","","html-keyboard-response","12","175003","0.0-2.0-1.3","","<img src=""img/test3-reward.PNG"">","null","","","","","","",""
"null","","html-keyboard-response","13","176005","0.0-2.0-2.3","","<div style=""font-size:60px;"">+</div>","null","","","","","","",""
"427.9150003567338","","image-keyboard-response","14","176434","0.0-2.0-0.4","","img/test1.PNG","32","practice","32","true","","","",""
"null","","html-keyboard-response","15","177436","0.0-2.0-1.4","","<img src=""img/test1-reward.PNG"" border=""10px; grey"">","null","","","","","","",""
"null","","html-keyboard-response","16","178436","0.0-2.0-2.4","","<div style=""font-size:60px;"">+</div>","null","","","","","","",""
"null","","image-keyboard-response","17","179938","0.0-2.0-0.5","","img/test2.PNG","null","practice","null","true","","","",""
"null","","html-keyboard-response","18","180939","0.0-2.0-1.5","","<img src=""img/test2-reward.PNG"">","null","","","","","","",""
"null","","html-keyboard-response","19","181940","0.0-2.0-2.5","","<div style=""font-size:60px;"">+</div>","null","","","","","","",""
"null","","image-keyboard-response","20","183442","0.0-2.0-0.6","","img/test3.PNG","null","practice","null","true","","","",""
"null","","html-keyboard-response","21","184443","0.0-2.0-1.6","","<img src=""img/test3-reward.PNG"">","null","","","","","","",""
"null","","html-keyboard-response","22","185444","0.0-2.0-2.6","","<div style=""font-size:60px;"">+</div>","null","","","","","","",""
"null","","image-keyboard-response","23","186946","0.0-2.0-0.7","","img/test2.PNG","null","practice","null","true","","","",""
"null","","html-keyboard-response","24","187947","0.0-2.0-1.7","","<img src=""img/test2-reward.PNG"">","null","","","","","","",""
"null","","html-keyboard-response","25","188948","0.0-2.0-2.7","","<div style=""font-size:60px;"">+</div>","null","","","","","","",""
"532.8750000335276","","image-keyboard-response","26","189483","0.0-2.0-0.8","","img/test1.PNG","32","practice","32","true","","","",""
"null","","html-keyboard-response","27","190484","0.0-2.0-1.8","","<img src=""img/test1-reward.PNG"" border=""10px; grey"">","null","","","","","","",""
"null","","html-keyboard-response","28","191486","0.0-2.0-2.8","","<div style=""font-size:60px;"">+</div>","null","","","","","","",""
"686.7149998433888","","image-keyboard-response","29","192174","0.0-2.0-0.9","","img/test1.PNG","32","practice","32","true","","","",""
"null","","html-keyboard-response","30","193176","0.0-2.0-1.9","","<img src=""img/test1-reward.PNG"" border=""10px; grey"">","null","","","","","","",""
"null","","html-keyboard-response","31","194177","0.0-2.0-2.9","","<div style=""font-size:60px;"">+</div>","null","","","","","","",""
"null","","image-keyboard-response","32","195678","0.0-2.0-0.10","","img/test3.PNG","null","practice","null","true","","","",""
"null","","html-keyboard-response","33","196680","0.0-2.0-1.10","","<img src=""img/test3-reward.PNG"">","null","","","","","","",""
"null","","html-keyboard-response","34","197681","0.0-2.0-2.10","","<div style=""font-size:60px;"">+</div>","null","","","","","","",""
"null","","image-keyboard-response","35","199182","0.0-2.0-0.11","","img/test2.PNG","null","practice","null","true","","","",""
"null","","html-keyboard-response","36","200184","0.0-2.0-1.11","","<img src=""img/test2-reward.PNG"">","null","","","","","","",""
"null","","html-keyboard-response","37","201185","0.0-2.0-2.11","","<div style=""font-size:60px;"">+</div>","null","","","","","","",""
"3188.6749998666346","","instructions","38","204374","0.0-3.0","[{""page_index"":0,""viewing_time"":3188.2650000043213}]","","","","","","","","",""
"1355.8749998919666","","image-keyboard-response","39","205732","0.0-4.0-0.0","","img/blue.png","32","trial","32","true","0.8,0.2","1:go_a","",""
"null","","html-keyboard-response","40","206735","0.0-4.0-1.0","","<img src=""img/blue-r.png"" border=""10"">","null","trial","32","","0.8,0.2","1:go_a","1",""
"null","","html-keyboard-response","41","207737","0.0-4.0-2.0","","<div style=""font-size:60px;"">+</div>","null","","","","","","",""
"null","","image-keyboard-response","42","209238","0.0-4.0-0.1","","img/grey.png","null","trial","null","true","0.2,0.8","2:nogo_b","",""
"null","","html-keyboard-response","43","210241","0.0-4.0-1.1","","<img src=""img/grey-r.png"">","null","trial","null","","0.2,0.8","2:nogo_b","1",""
"null","","html-keyboard-response","44","211241","0.0-4.0-2.1","","<div style=""font-size:60px;"">+</div>","null","","","","","","",""
"528.1250001862645","","image-keyboard-response","45","211771","0.0-4.0-0.2","","img/blue.png","32","trial","32","true","0.8,0.2","1:go_a","",""
"null","","html-keyboard-response","46","212773","0.0-4.0-1.2","","<img src=""img/blue-r.png"" border=""10"">","null","trial","32","","0.8,0.2","1:go_a","1",""
"null","","html-keyboard-response","47","213774","0.0-4.0-2.2","","<div style=""font-size:60px;"">+</div>","null","","","","","","",""
"1016.7300002649426","","image-keyboard-response","48","214792","0.0-4.0-0.3","","img/grey.png","32","trial","null","false","0.2,0.8","2:nogo_b","",""
"null","","html-keyboard-response","49","215794","0.0-4.0-1.3","","<img src=""img/grey-n.png"" border=""10"">","null","trial","null","","0.2,0.8","2:nogo_b","0",""
"null","","html-keyboard-response","50","216796","0.0-4.0-2.3","","<div style=""font-size:60px;"">+</div>","null","","","","","","",""
"null","","image-keyboard-response","51","218297","0.0-4.0-0.4","","img/grey.png","null","trial","null","true","0.2,0.8","2:nogo_b","",""
"null","","html-keyboard-response","52","219302","0.0-4.0-1.4","","<img src=""img/grey-n.png"">","null","trial","null","","0.2,0.8","2:nogo_b","0",""
"null","","html-keyboard-response","53","220303","0.0-4.0-2.4","","<div style=""font-size:60px;"">+</div>","null","","","","","","",""
"631.8050003610551","","image-keyboard-response","54","220936","0.0-4.0-0.5","","img/blue.png","32","trial","32","true","0.8,0.2","1:go_a","",""
"null","","html-keyboard-response","55","221938","0.0-4.0-1.5","","<img src=""img/blue-r.png"" border=""10"">","null","trial","32","","0.8,0.2","1:go_a","1",""
"null","","html-keyboard-response","56","222939","0.0-4.0-2.5","","<div style=""font-size:60px;"">+</div>","null","","","","","","",""
"637.3450001701713","","image-keyboard-response","57","223578","0.0-4.0-0.6","","img/blue.png","32","trial","32","true","0.8,0.2","1:go_a","",""
"null","","html-keyboard-response","58","224581","0.0-4.0-1.6","","<img src=""img/blue-r.png"" border=""10"">","null","trial","32","","0.8,0.2","1:go_a","1",""
"null","","html-keyboard-response","59","225582","0.0-4.0-2.6","","<div style=""font-size:60px;"">+</div>","null","","","","","","",""
"null","","image-keyboard-response","60","227083","0.0-4.0-0.7","","img/grey.png","null","trial","null","true","0.2,0.8","2:nogo_b","",""
"null","","html-keyboard-response","61","228085","0.0-4.0-1.7","","<img src=""img/grey-r.png"">","null","trial","null","","0.2,0.8","2:nogo_b","1",""
"null","","html-keyboard-response","62","229086","0.0-4.0-2.7","","<div style=""font-size:60px;"">+</div>","null","","","","","","",""
"874.2450000718236","","image-keyboard-response","63","229962","0.0-4.0-0.8","","img/grey.png","32","trial","null","false","0.2,0.8","2:nogo_b","",""
"null","","html-keyboard-response","64","230964","0.0-4.0-1.8","","<img src=""img/grey-n.png"" border=""10"">","null","trial","null","","0.2,0.8","2:nogo_b","0",""
"null","","html-keyboard-response","65","231965","0.0-4.0-2.8","","<div style=""font-size:60px;"">+</div>","null","","","","","","",""
"507.5799999758601","","image-keyboard-response","66","232474","0.0-4.0-0.9","","img/blue.png","32","trial","32","true","0.8,0.2","1:go_a","",""
"null","","html-keyboard-response","67","233476","0.0-4.0-1.9","","<img src=""img/blue-r.png"" border=""10"">","null","trial","32","","0.8,0.2","1:go_a","1",""
"null","","html-keyboard-response","68","234477","0.0-4.0-2.9","","<div style=""font-size:60px;"">+</div>","null","","","","","","",""
"682.3100000619888","","image-keyboard-response","69","235162","0.0-4.0-0.10","","img/blue.png","32","trial","32","true","0.8,0.2","1:go_a","",""
"null","","html-keyboard-response","70","236165","0.0-4.0-1.10","","<img src=""img/blue-r.png"" border=""10"">","null","trial","32","","0.8,0.2","1:go_a","1",""
"null","","html-keyboard-response","71","237166","0.0-4.0-2.10","","<div style=""font-size:60px;"">+</div>","null","","","","","","",""
"null","","image-keyboard-response","72","238667","0.0-4.0-0.11","","img/grey.png","null","trial","null","true","0.2,0.8","2:nogo_b","",""
"null","","html-keyboard-response","73","239670","0.0-4.0-1.11","","<img src=""img/grey-r.png"">","null","trial","null","","0.2,0.8","2:nogo_b","1",""
"null","","html-keyboard-response","74","240671","0.0-4.0-2.11","","<div style=""font-size:60px;"">+</div>","null","","","","","","",""
"505.35500003024936","","image-keyboard-response","75","241177","0.0-4.0-0.12","","img/blue.png","32","trial","32","true","0.8,0.2","1:go_a","",""
"null","","html-keyboard-response","76","242180","0.0-4.0-1.12","","<img src=""img/blue-r.png"" border=""10"">","null","trial","32","","0.8,0.2","1:go_a","1",""
"null","","html-keyboard-response","77","243181","0.0-4.0-2.12","","<div style=""font-size:60px;"">+</div>","null","","","","","","",""
"null","","image-keyboard-response","78","244683","0.0-4.0-0.13","","img/grey.png","null","trial","null","true","0.2,0.8","2:nogo_b","",""
"null","","html-keyboard-response","79","245685","0.0-4.0-1.13","","<img src=""img/grey-r.png"">","null","trial","null","","0.2,0.8","2:nogo_b","1",""
"null","","html-keyboard-response","80","246687","0.0-4.0-2.13","","<div style=""font-size:60px;"">+</div>","null","","","","","","",""
"472.06000005826354","","image-keyboard-response","81","247161","0.0-4.0-0.14","","img/blue.png","32","trial","32","true","0.8,0.2","1:go_a","",""
"null","","html-keyboard-response","82","248162","0.0-4.0-1.14","","<img src=""img/blue-r.png"" border=""10"">","null","trial","32","","0.8,0.2","1:go_a","1",""
"null","","html-keyboard-response","83","249163","0.0-4.0-2.14","","<div style=""font-size:60px;"">+</div>","null","","","","","","",""
"807.1850002743304","","image-keyboard-response","84","249971","0.0-4.0-0.15","","img/grey.png","32","trial","null","false","0.2,0.8","2:nogo_b","",""
"null","","html-keyboard-response","85","250973","0.0-4.0-1.15","","<img src=""img/grey-n.png"" border=""10"">","null","trial","null","","0.2,0.8","2:nogo_b","0",""
"null","","html-keyboard-response","86","251974","0.0-4.0-2.15","","<div style=""font-size:60px;"">+</div>","null","","","","","","",""
"500.9249998256564","","image-keyboard-response","87","252476","0.0-4.0-0.16","","img/blue.png","32","trial","32","true","0.8,0.2","1:go_a","",""
"null","","html-keyboard-response","88","253479","0.0-4.0-1.16","","<img src=""img/blue-r.png"" border=""10"">","null","trial","32","","0.8,0.2","1:go_a","1",""
"null","","html-keyboard-response","89","254480","0.0-4.0-2.16","","<div style=""font-size:60px;"">+</div>","null","","","","","","",""
"441.82500010356307","","image-keyboard-response","90","254923","0.0-4.0-0.17","","img/grey.png","32","trial","null","false","0.2,0.8","2:nogo_b","",""
"null","","html-keyboard-response","91","255925","0.0-4.0-1.17","","<img src=""img/grey-n.png"" border=""10"">","null","trial","null","","0.2,0.8","2:nogo_b","0",""
"null","","html-keyboard-response","92","256926","0.0-4.0-2.17","","<div style=""font-size:60px;"">+</div>","null","","","","","","",""
"508.78999987617135","","image-keyboard-response","93","257436","0.0-4.0-0.18","","img/blue.png","32","trial","32","true","0.8,0.2","1:go_a","",""
"null","","html-keyboard-response","94","258438","0.0-4.0-1.18","","<img src=""img/blue-n.png"" border=""10"">","null","trial","32","","0.8,0.2","1:go_a","0",""
"null","","html-keyboard-response","95","259439","0.0-4.0-2.18","","<div style=""font-size:60px;"">+</div>","null","","","","","","",""
"970.1900002546608","","image-keyboard-response","96","260410","0.0-4.0-0.19","","img/grey.png","32","trial","null","false","0.2,0.8","2:nogo_b","",""
"null","","html-keyboard-response","97","261415","0.0-4.0-1.19","","<img src=""img/grey-r.png"" border=""10"">","null","trial","null","","0.2,0.8","2:nogo_b","1",""
"null","","html-keyboard-response","98","262416","0.0-4.0-2.19","","<div style=""font-size:60px;"">+</div>","null","","","","","","",""
"null","","image-keyboard-response","99","263917","0.0-4.0-0.20","","img/blue.png","null","trial","32","false","0.8,0.2","1:go_a","",""
"null","","html-keyboard-response","100","264919","0.0-4.0-1.20","","<img src=""img/blue-n.png"">","null","trial","32","","0.8,0.2","1:go_a","0",""
"null","","html-keyboard-response","101","265920","0.0-4.0-2.20","","<div style=""font-size:60px;"">+</div>","null","","","","","","",""
"428.7999998778105","","image-keyboard-response","102","266350","0.0-4.0-0.21","","img/grey.png","32","trial","null","false","0.2,0.8","2:nogo_b","",""
"null","","html-keyboard-response","103","267352","0.0-4.0-1.21","","<img src=""img/grey-n.png"" border=""10"">","null","trial","null","","0.2,0.8","2:nogo_b","0",""
"null","","html-keyboard-response","104","268353","0.0-4.0-2.21","","<div style=""font-size:60px;"">+</div>","null","","","","","","",""
"728.7849998101592","","image-keyboard-response","105","269084","0.0-4.0-0.22","","img/grey.png","32","trial","null","false","0.2,0.8","2:nogo_b","",""
"null","","html-keyboard-response","106","270086","0.0-4.0-1.22","","<img src=""img/grey-r.png"" border=""10"">","null","trial","null","","0.2,0.8","2:nogo_b","1",""
"null","","html-keyboard-response","107","271087","0.0-4.0-2.22","","<div style=""font-size:60px;"">+</div>","null","","","","","","",""
"583.0000001005828","","image-keyboard-response","108","271671","0.0-4.0-0.23","","img/blue.png","32","trial","32","true","0.8,0.2","1:go_a","",""
"null","","html-keyboard-response","109","272673","0.0-4.0-1.23","","<img src=""img/blue-r.png"" border=""10"">","null","trial","32","","0.8,0.2","1:go_a","1",""
"null","","html-keyboard-response","110","273675","0.0-4.0-2.23","","<div style=""font-size:60px;"">+</div>","null","","","","","","",""
"746.6450002975762","","image-keyboard-response","111","274423","0.0-4.0-0.24","","img/blue.png","32","trial","32","true","0.8,0.2","1:go_a","",""
"null","","html-keyboard-response","112","275425","0.0-4.0-1.24","","<img src=""img/blue-r.png"" border=""10"">","null","trial","32","","0.8,0.2","1:go_a","1",""
"null","","html-keyboard-response","113","276426","0.0-4.0-2.24","","<div style=""font-size:60px;"">+</div>","null","","","","","","",""
"null","","image-keyboard-response","114","277928","0.0-4.0-0.25","","img/grey.png","null","trial","null","true","0.2,0.8","2:nogo_b","",""
"null","","html-keyboard-response","115","278930","0.0-4.0-1.25","","<img src=""img/grey-r.png"">","null","trial","null","","0.2,0.8","2:nogo_b","1",""
"null","","html-keyboard-response","116","279931","0.0-4.0-2.25","","<div style=""font-size:60px;"">+</div>","null","","","","","","",""
"null","","image-keyboard-response","117","281433","0.0-4.0-0.26","","img/blue.png","null","trial","32","false","0.8,0.2","1:go_a","",""
"null","","html-keyboard-response","118","282435","0.0-4.0-1.26","","<img src=""img/blue-n.png"">","null","trial","32","","0.8,0.2","1:go_a","0",""
"null","","html-keyboard-response","119","283436","0.0-4.0-2.26","","<div style=""font-size:60px;"">+</div>","null","","","","","","",""
"498.16500023007393","","image-keyboard-response","120","283936","0.0-4.0-0.27","","img/grey.png","32","trial","null","false","0.2,0.8","2:nogo_b","",""
"null","","html-keyboard-response","121","284938","0.0-4.0-1.27","","<img src=""img/grey-n.png"" border=""10"">","null","trial","null","","0.2,0.8","2:nogo_b","0",""
"null","","html-keyboard-response","122","285939","0.0-4.0-2.27","","<div style=""font-size:60px;"">+</div>","null","","","","","","",""
"601.4799997210503","","image-keyboard-response","123","286542","0.0-4.0-0.28","","img/grey.png","32","trial","null","false","0.2,0.8","2:nogo_b","",""
"null","","html-keyboard-response","124","287545","0.0-4.0-1.28","","<img src=""img/grey-n.png"" border=""10"">","null","trial","null","","0.2,0.8","2:nogo_b","0",""
"null","","html-keyboard-response","125","288546","0.0-4.0-2.28","","<div style=""font-size:60px;"">+</div>","null","","","","","","",""
"null","","image-keyboard-response","126","290048","0.0-4.0-0.29","","img/blue.png","null","trial","32","false","0.8,0.2","1:go_a","",""
"null","","html-keyboard-response","127","291050","0.0-4.0-1.29","","<img src=""img/blue-r.png"">","null","trial","32","","0.8,0.2","1:go_a","1",""
"null","","html-keyboard-response","128","292052","0.0-4.0-2.29","","<div style=""font-size:60px;"">+</div>","null","","","","","","",""
"526.6900002025068","","image-keyboard-response","129","292580","0.0-4.0-0.30","","img/blue.png","32","trial","32","true","0.8,0.2","1:go_a","",""
"null","","html-keyboard-response","130","293582","0.0-4.0-1.30","","<img src=""img/blue-r.png"" border=""10"">","null","trial","32","","0.8,0.2","1:go_a","1",""
"null","","html-keyboard-response","131","294583","0.0-4.0-2.30","","<div style=""font-size:60px;"">+</div>","null","","","","","","",""
"null","","image-keyboard-response","132","296085","0.0-4.0-0.31","","img/grey.png","null","trial","null","true","0.2,0.8","2:nogo_b","",""
"null","","html-keyboard-response","133","297087","0.0-4.0-1.31","","<img src=""img/grey-r.png"">","null","trial","null","","0.2,0.8","2:nogo_b","1",""
"null","","html-keyboard-response","134","298088","0.0-4.0-2.31","","<div style=""font-size:60px;"">+</div>","null","","","","","","",""
"682.2800002992153","","image-keyboard-response","135","298772","0.0-4.0-0.32","","img/grey.png","32","trial","null","false","0.2,0.8","2:nogo_b","",""
"null","","html-keyboard-response","136","299774","0.0-4.0-1.32","","<img src=""img/grey-n.png"" border=""10"">","null","trial","null","","0.2,0.8","2:nogo_b","0",""
"null","","html-keyboard-response","137","300775","0.0-4.0-2.32","","<div style=""font-size:60px;"">+</div>","null","","","","","","",""
"511.6249998100102","","image-keyboard-response","138","301289","0.0-4.0-0.33","","img/blue.png","32","trial","32","true","0.8,0.2","1:go_a","",""
"null","","html-keyboard-response","139","302290","0.0-4.0-1.33","","<img src=""img/blue-r.png"" border=""10"">","null","trial","32","","0.8,0.2","1:go_a","1",""
"null","","html-keyboard-response","140","303291","0.0-4.0-2.33","","<div style=""font-size:60px;"">+</div>","null","","","","","","",""
"null","","image-keyboard-response","141","304793","0.0-4.0-0.34","","img/grey.png","null","trial","null","true","0.2,0.8","2:nogo_b","",""
"null","","html-keyboard-response","142","305795","0.0-4.0-1.34","","<img src=""img/grey-r.png"">","null","trial","null","","0.2,0.8","2:nogo_b","1",""
"null","","html-keyboard-response","143","306797","0.0-4.0-2.34","","<div style=""font-size:60px;"">+</div>","null","","","","","","",""
"536.215000320226","","image-keyboard-response","144","307335","0.0-4.0-0.35","","img/blue.png","32","trial","32","true","0.8,0.2","1:go_a","",""
"null","","html-keyboard-response","145","308336","0.0-4.0-1.35","","<img src=""img/blue-r.png"" border=""10"">","null","trial","32","","0.8,0.2","1:go_a","1",""
"null","","html-keyboard-response","146","309338","0.0-4.0-2.35","","<div style=""font-size:60px;"">+</div>","null","","","","","","",""
"null","","image-keyboard-response","147","310839","0.0-4.0-0.36","","img/grey.png","null","trial","null","true","0.2,0.8","2:nogo_b","",""
"null","","html-keyboard-response","148","311841","0.0-4.0-1.36","","<img src=""img/grey-r.png"">","null","trial","null","","0.2,0.8","2:nogo_b","1",""
"null","","html-keyboard-response","149","312843","0.0-4.0-2.36","","<div style=""font-size:60px;"">+</div>","null","","","","","","",""
"660.8899999409914","","image-keyboard-response","150","313505","0.0-4.0-0.37","","img/blue.png","32","trial","32","true","0.8,0.2","1:go_a","",""
"null","","html-keyboard-response","151","314507","0.0-4.0-1.37","","<img src=""img/blue-n.png"" border=""10"">","null","trial","32","","0.8,0.2","1:go_a","0",""
"null","","html-keyboard-response","152","315508","0.0-4.0-2.37","","<div style=""font-size:60px;"">+</div>","null","","","","","","",""
"740.7599999569356","","image-keyboard-response","153","316250","0.0-4.0-0.38","","img/blue.png","32","trial","32","true","0.8,0.2","1:go_a","",""
"null","","html-keyboard-response","154","317255","0.0-4.0-1.38","","<img src=""img/blue-r.png"" border=""10"">","null","trial","32","","0.8,0.2","1:go_a","1",""
"null","","html-keyboard-response","155","318257","0.0-4.0-2.38","","<div style=""font-size:60px;"">+</div>","null","","","","","","",""
"701.6850002110004","","image-keyboard-response","156","318963","0.0-4.0-0.39","","img/grey.png","32","trial","null","false","0.2,0.8","2:nogo_b","",""
"null","","html-keyboard-response","157","319965","0.0-4.0-1.39","","<img src=""img/grey-n.png"" border=""10"">","null","trial","null","","0.2,0.8","2:nogo_b","0",""
"null","","html-keyboard-response","158","320966","0.0-4.0-2.39","","<div style=""font-size:60px;"">+</div>","null","","","","","","",""
"null","","image-keyboard-response","159","322467","0.0-4.0-0.40","","img/grey.png","null","trial","null","true","0.2,0.8","2:nogo_b","",""
"null","","html-keyboard-response","160","323469","0.0-4.0-1.40","","<img src=""img/grey-r.png"">","null","trial","null","","0.2,0.8","2:nogo_b","1",""
"null","","html-keyboard-response","161","324470","0.0-4.0-2.40","","<div style=""font-size:60px;"">+</div>","null","","","","","","",""
"null","","image-keyboard-response","162","325972","0.0-4.0-0.41","","img/blue.png","null","trial","32","false","0.8,0.2","1:go_a","",""
"null","","html-keyboard-response","163","326974","0.0-4.0-1.41","","<img src=""img/blue-n.png"">","null","trial","32","","0.8,0.2","1:go_a","0",""
"null","","html-keyboard-response","164","327975","0.0-4.0-2.41","","<div style=""font-size:60px;"">+</div>","null","","","","","","",""
"1129.564999602735","","image-keyboard-response","165","329106","0.0-4.0-0.42","","img/blue.png","32","trial","32","true","0.8,0.2","1:go_a","",""
"null","","html-keyboard-response","166","330109","0.0-4.0-1.42","","<img src=""img/blue-r.png"" border=""10"">","null","trial","32","","0.8,0.2","1:go_a","1",""
"null","","html-keyboard-response","167","331110","0.0-4.0-2.42","","<div style=""font-size:60px;"">+</div>","null","","","","","","",""
"734.3100002035499","","image-keyboard-response","168","331845","0.0-4.0-0.43","","img/grey.png","32","trial","null","false","0.2,0.8","2:nogo_b","",""
"null","","html-keyboard-response","169","332847","0.0-4.0-1.43","","<img src=""img/grey-n.png"" border=""10"">","null","trial","null","","0.2,0.8","2:nogo_b","0",""
"null","","html-keyboard-response","170","333848","0.0-4.0-2.43","","<div style=""font-size:60px;"">+</div>","null","","","","","","",""
"null","","image-keyboard-response","171","335349","0.0-4.0-0.44","","img/blue.png","null","trial","32","false","0.8,0.2","1:go_a","",""
"null","","html-keyboard-response","172","336351","0.0-4.0-1.44","","<img src=""img/blue-n.png"">","null","trial","32","","0.8,0.2","1:go_a","0",""
"null","","html-keyboard-response","173","337352","0.0-4.0-2.44","","<div style=""font-size:60px;"">+</div>","null","","","","","","",""
"709.7649998031557","","image-keyboard-response","174","338063","0.0-4.0-0.45","","img/grey.png","32","trial","null","false","0.2,0.8","2:nogo_b","",""
"null","","html-keyboard-response","175","339065","0.0-4.0-1.45","","<img src=""img/grey-r.png"" border=""10"">","null","trial","null","","0.2,0.8","2:nogo_b","1",""
"null","","html-keyboard-response","176","340067","0.0-4.0-2.45","","<div style=""font-size:60px;"">+</div>","null","","","","","","",""
"null","","image-keyboard-response","177","341569","0.0-4.0-0.46","","img/blue.png","null","trial","32","false","0.8,0.2","1:go_a","",""
"null","","html-keyboard-response","178","342571","0.0-4.0-1.46","","<img src=""img/blue-n.png"">","null","trial","32","","0.8,0.2","1:go_a","0",""
"null","","html-keyboard-response","179","343572","0.0-4.0-2.46","","<div style=""font-size:60px;"">+</div>","null","","","","","","",""
"567.6299999468029","","image-keyboard-response","180","344142","0.0-4.0-0.47","","img/grey.png","32","trial","null","false","0.2,0.8","2:nogo_b","",""
"null","","html-keyboard-response","181","345144","0.0-4.0-1.47","","<img src=""img/grey-n.png"" border=""10"">","null","trial","null","","0.2,0.8","2:nogo_b","0",""
"null","","html-keyboard-response","182","346145","0.0-4.0-2.47","","<div style=""font-size:60px;"">+</div>","null","","","","","","",""
"1175.9150000289083","","image-keyboard-response","183","347322","0.0-4.0-0.48","","img/grey.png","32","trial","null","false","0.2,0.8","2:nogo_b","",""
"null","","html-keyboard-response","184","348326","0.0-4.0-1.48","","<img src=""img/grey-n.png"" border=""10"">","null","trial","null","","0.2,0.8","2:nogo_b","0",""
"null","","html-keyboard-response","185","349326","0.0-4.0-2.48","","<div style=""font-size:60px;"">+</div>","null","","","","","","",""
"null","","image-keyboard-response","186","350828","0.0-4.0-0.49","","img/blue.png","null","trial","32","false","0.8,0.2","1:go_a","",""
"null","","html-keyboard-response","187","351830","0.0-4.0-1.49","","<img src=""img/blue-n.png"">","null","trial","32","","0.8,0.2","1:go_a","0",""
"null","","html-keyboard-response","188","352831","0.0-4.0-2.49","","<div style=""font-size:60px;"">+</div>","null","","","","","","",""
"604.8449999652803","","image-keyboard-response","189","353437","0.0-4.0-0.50","","img/grey.png","32","trial","null","false","0.2,0.8","2:nogo_b","",""
"null","","html-keyboard-response","190","354440","0.0-4.0-1.50","","<img src=""img/grey-n.png"" border=""10"">","null","trial","null","","0.2,0.8","2:nogo_b","0",""
"null","","html-keyboard-response","191","355441","0.0-4.0-2.50","","<div style=""font-size:60px;"">+</div>","null","","","","","","",""
"810.9450000338256","","image-keyboard-response","192","356253","0.0-4.0-0.51","","img/blue.png","32","trial","32","true","0.8,0.2","1:go_a","",""
"null","","html-keyboard-response","193","357255","0.0-4.0-1.51","","<img src=""img/blue-r.png"" border=""10"">","null","trial","32","","0.8,0.2","1:go_a","1",""
"null","","html-keyboard-response","194","358256","0.0-4.0-2.51","","<div style=""font-size:60px;"">+</div>","null","","","","","","",""
"790.8999999053776","","image-keyboard-response","195","359048","0.0-4.0-0.52","","img/blue.png","32","trial","32","true","0.8,0.2","1:go_a","",""
"null","","html-keyboard-response","196","360050","0.0-4.0-1.52","","<img src=""img/blue-n.png"" border=""10"">","null","trial","32","","0.8,0.2","1:go_a","0",""
"null","","html-keyboard-response","197","361051","0.0-4.0-2.52","","<div style=""font-size:60px;"">+</div>","null","","","","","","",""
"null","","image-keyboard-response","198","362553","0.0-4.0-0.53","","img/grey.png","null","trial","null","true","0.2,0.8","2:nogo_b","",""
"null","","html-keyboard-response","199","363555","0.0-4.0-1.53","","<img src=""img/grey-r.png"">","null","trial","null","","0.2,0.8","2:nogo_b","1",""
"null","","html-keyboard-response","200","364556","0.0-4.0-2.53","","<div style=""font-size:60px;"">+</div>","null","","","","","","",""
"994.0249999053776","","image-keyboard-response","201","365552","0.0-4.0-0.54","","img/blue.png","32","trial","32","true","0.8,0.2","1:go_a","",""
"null","","html-keyboard-response","202","366554","0.0-4.0-1.54","","<img src=""img/blue-r.png"" border=""10"">","null","trial","32","","0.8,0.2","1:go_a","1",""
"null","","html-keyboard-response","203","367555","0.0-4.0-2.54","","<div style=""font-size:60px;"">+</div>","null","","","","","","",""
"null","","image-keyboard-response","204","369057","0.0-4.0-0.55","","img/grey.png","null","trial","null","true","0.2,0.8","2:nogo_b","",""
"null","","html-keyboard-response","205","370058","0.0-4.0-1.55","","<img src=""img/grey-n.png"">","null","trial","null","","0.2,0.8","2:nogo_b","0",""
"null","","html-keyboard-response","206","371060","0.0-4.0-2.55","","<div style=""font-size:60px;"">+</div>","null","","","","","","",""
"725.8450002409518","","image-keyboard-response","207","371787","0.0-4.0-0.56","","img/grey.png","32","trial","null","false","0.2,0.8","2:nogo_b","",""
"null","","html-keyboard-response","208","372789","0.0-4.0-1.56","","<img src=""img/grey-r.png"" border=""10"">","null","trial","null","","0.2,0.8","2:nogo_b","1",""
"null","","html-keyboard-response","209","373790","0.0-4.0-2.56","","<div style=""font-size:60px;"">+</div>","null","","","","","","",""
"null","","image-keyboard-response","210","375293","0.0-4.0-0.57","","img/blue.png","null","trial","32","false","0.8,0.2","1:go_a","",""
"null","","html-keyboard-response","211","376295","0.0-4.0-1.57","","<img src=""img/blue-r.png"">","null","trial","32","","0.8,0.2","1:go_a","1",""
"null","","html-keyboard-response","212","377296","0.0-4.0-2.57","","<div style=""font-size:60px;"">+</div>","null","","","","","","",""
"null","","image-keyboard-response","213","378797","0.0-4.0-0.58","","img/grey.png","null","trial","null","true","0.2,0.8","2:nogo_b","",""
"null","","html-keyboard-response","214","379799","0.0-4.0-1.58","","<img src=""img/grey-r.png"">","null","trial","null","","0.2,0.8","2:nogo_b","1",""
"null","","html-keyboard-response","215","380800","0.0-4.0-2.58","","<div style=""font-size:60px;"">+</div>","null","","","","","","",""
"630.5550001561642","","image-keyboard-response","216","381432","0.0-4.0-0.59","","img/blue.png","32","trial","32","true","0.8,0.2","1:go_a","",""
"null","","html-keyboard-response","217","382434","0.0-4.0-1.59","","<img src=""img/blue-r.png"" border=""10"">","null","trial","32","","0.8,0.2","1:go_a","1",""
"null","","html-keyboard-response","218","383435","0.0-4.0-2.59","","<div style=""font-size:60px;"">+</div>","null","","","","","","",""
"56920.34499999136","","instructions","219","440356","0.0-5.0","[{""page_index"":0,""viewing_time"":56919.97499996796}]","","","","","","","","",""
"742.06000007689","","image-keyboard-response","220","441100","0.0-6.0-0.0","","img/orange.png","32","trial","null","false","0.4,0.6","4:nogo_d","",""
"null","","html-keyboard-response","221","442102","0.0-6.0-1.0","","<img src=""img/orange-n.png"" border=""10"">","null","trial","null","","0.4,0.6","4:nogo_d","0",""
"null","","html-keyboard-response","222","443103","0.0-6.0-2.0","","<div style=""font-size:60px;"">+</div>","null","","","","","","",""
"873.945000115782","","image-keyboard-response","223","443978","0.0-6.0-0.1","","img/green.png","32","trial","32","true","0.6,0.4","1:go_a","",""
"null","","html-keyboard-response","224","444981","0.0-6.0-1.1","","<img src=""img/green-r.png"" border=""10"">","null","trial","32","","0.6,0.4","1:go_a","1",""
"null","","html-keyboard-response","225","445982","0.0-6.0-2.1","","<div style=""font-size:60px;"">+</div>","null","","","","","","",""
"831.9600000977516","","image-keyboard-response","226","446815","0.0-6.0-0.2","","img/red.png","32","trial","32","true","0.6,0.4","3:go_c","",""
"null","","html-keyboard-response","227","447817","0.0-6.0-1.2","","<img src=""img/red-r.png"" border=""10"">","null","trial","32","","0.6,0.4","3:go_c","1",""
"null","","html-keyboard-response","228","448818","0.0-6.0-2.2","","<div style=""font-size:60px;"">+</div>","null","","","","","","",""
"null","","image-keyboard-response","229","450319","0.0-6.0-0.3","","img/yellow.png","null","trial","null","true","0.4,0.6","2:nogo_b","",""
"null","","html-keyboard-response","230","451321","0.0-6.0-1.3","","<img src=""img/yellow-n.png"">","null","trial","null","","0.4,0.6","2:nogo_b","0",""
"null","","html-keyboard-response","231","452322","0.0-6.0-2.3","","<div style=""font-size:60px;"">+</div>","null","","","","","","",""
"1102.3599999025464","","image-keyboard-response","232","453426","0.0-6.0-0.4","","img/yellow.png","32","trial","null","false","0.4,0.6","2:nogo_b","",""
"null","","html-keyboard-response","233","454427","0.0-6.0-1.4","","<img src=""img/yellow-n.png"" border=""10"">","null","trial","null","","0.4,0.6","2:nogo_b","0",""
"null","","html-keyboard-response","234","455429","0.0-6.0-2.4","","<div style=""font-size:60px;"">+</div>","null","","","","","","",""
"779.6499999240041","","image-keyboard-response","235","456210","0.0-6.0-0.5","","img/green.png","32","trial","32","true","0.6,0.4","1:go_a","",""
"null","","html-keyboard-response","236","457212","0.0-6.0-1.5","","<img src=""img/green-r.png"" border=""10"">","null","trial","32","","0.6,0.4","1:go_a","1",""
"null","","html-keyboard-response","237","458213","0.0-6.0-2.5","","<div style=""font-size:60px;"">+</div>","null","","","","","","",""
"882.0400000549853","","image-keyboard-response","238","459096","0.0-6.0-0.6","","img/red.png","32","trial","32","true","0.6,0.4","3:go_c","",""
"null","","html-keyboard-response","239","460099","0.0-6.0-1.6","","<img src=""img/red-n.png"" border=""10"">","null","trial","32","","0.6,0.4","3:go_c","0",""
"null","","html-keyboard-response","240","461101","0.0-6.0-2.6","","<div style=""font-size:60px;"">+</div>","null","","","","","","",""
"null","","image-keyboard-response","241","462603","0.0-6.0-0.7","","img/orange.png","null","trial","null","true","0.4,0.6","4:nogo_d","",""
"null","","html-keyboard-response","242","463604","0.0-6.0-1.7","","<img src=""img/orange-n.png"">","null","trial","null","","0.4,0.6","4:nogo_d","0",""
"null","","html-keyboard-response","243","464606","0.0-6.0-2.7","","<div style=""font-size:60px;"">+</div>","null","","","","","","",""
"null","","image-keyboard-response","244","466107","0.0-6.0-0.8","","img/orange.png","null","trial","null","true","0.4,0.6","4:nogo_d","",""
"null","","html-keyboard-response","245","467109","0.0-6.0-1.8","","<img src=""img/orange-r.png"">","null","trial","null","","0.4,0.6","4:nogo_d","1",""
"null","","html-keyboard-response","246","468110","0.0-6.0-2.8","","<div style=""font-size:60px;"">+</div>","null","","","","","","",""
"null","","image-keyboard-response","247","469611","0.0-6.0-0.9","","img/red.png","null","trial","32","false","0.6,0.4","3:go_c","",""
"null","","html-keyboard-response","248","470613","0.0-6.0-1.9","","<img src=""img/red-r.png"">","null","trial","32","","0.6,0.4","3:go_c","1",""
"null","","html-keyboard-response","249","471614","0.0-6.0-2.9","","<div style=""font-size:60px;"">+</div>","null","","","","","","",""
"726.4250000007451","","image-keyboard-response","250","472342","0.0-6.0-0.10","","img/green.png","32","trial","32","true","0.6,0.4","1:go_a","",""
"null","","html-keyboard-response","251","473345","0.0-6.0-1.10","","<img src=""img/green-r.png"" border=""10"">","null","trial","32","","0.6,0.4","1:go_a","1",""
"null","","html-keyboard-response","252","474346","0.0-6.0-2.10","","<div style=""font-size:60px;"">+</div>","null","","","","","","",""
"1190.8800001256168","","image-keyboard-response","253","475538","0.0-6.0-0.11","","img/yellow.png","32","trial","null","false","0.4,0.6","2:nogo_b","",""
"null","","html-keyboard-response","254","476540","0.0-6.0-1.11","","<img src=""img/yellow-n.png"" border=""10"">","null","trial","null","","0.4,0.6","2:nogo_b","0",""
"null","","html-keyboard-response","255","477541","0.0-6.0-2.11","","<div style=""font-size:60px;"">+</div>","null","","","","","","",""
"872.9249997995794","","image-keyboard-response","256","478415","0.0-6.0-0.12","","img/green.png","32","trial","32","true","0.6,0.4","1:go_a","",""
"null","","html-keyboard-response","257","479418","0.0-6.0-1.12","","<img src=""img/green-n.png"" border=""10"">","null","trial","32","","0.6,0.4","1:go_a","0",""
"null","","html-keyboard-response","258","480419","0.0-6.0-2.12","","<div style=""font-size:60px;"">+</div>","null","","","","","","",""
"null","","image-keyboard-response","259","481921","0.0-6.0-0.13","","img/red.png","null","trial","32","false","0.6,0.4","3:go_c","",""
"null","","html-keyboard-response","260","482923","0.0-6.0-1.13","","<img src=""img/red-n.png"">","null","trial","32","","0.6,0.4","3:go_c","0",""
"null","","html-keyboard-response","261","483924","0.0-6.0-2.13","","<div style=""font-size:60px;"">+</div>","null","","","","","","",""
"852.4750000797212","","image-keyboard-response","262","484778","0.0-6.0-0.14","","img/yellow.png","32","trial","null","false","0.4,0.6","2:nogo_b","",""
"null","","html-keyboard-response","263","485781","0.0-6.0-1.14","","<img src=""img/yellow-r.png"" border=""10"">","null","trial","null","","0.4,0.6","2:nogo_b","1",""
"null","","html-keyboard-response","264","486782","0.0-6.0-2.14","","<div style=""font-size:60px;"">+</div>","null","","","","","","",""
"null","","image-keyboard-response","265","488284","0.0-6.0-0.15","","img/orange.png","null","trial","null","true","0.4,0.6","4:nogo_d","",""
"null","","html-keyboard-response","266","489286","0.0-6.0-1.15","","<img src=""img/orange-n.png"">","null","trial","null","","0.4,0.6","4:nogo_d","0",""
"null","","html-keyboard-response","267","490287","0.0-6.0-2.15","","<div style=""font-size:60px;"">+</div>","null","","","","","","",""
"800.5950003862381","","image-keyboard-response","268","491089","0.0-6.0-0.16","","img/green.png","32","trial","32","true","0.6,0.4","1:go_a","",""
"null","","html-keyboard-response","269","492091","0.0-6.0-1.16","","<img src=""img/green-r.png"" border=""10"">","null","trial","32","","0.6,0.4","1:go_a","1",""
"null","","html-keyboard-response","270","493091","0.0-6.0-2.16","","<div style=""font-size:60px;"">+</div>","null","","","","","","",""
"910.135000012815","","image-keyboard-response","271","494003","0.0-6.0-0.17","","img/orange.png","32","trial","null","false","0.4,0.6","4:nogo_d","",""
"null","","html-keyboard-response","272","495005","0.0-6.0-1.17","","<img src=""img/orange-r.png"" border=""10"">","null","trial","null","","0.4,0.6","4:nogo_d","1",""
"null","","html-keyboard-response","273","496006","0.0-6.0-2.17","","<div style=""font-size:60px;"">+</div>","null","","","","","","",""
"902.5950003415346","","image-keyboard-response","274","496910","0.0-6.0-0.18","","img/red.png","32","trial","32","true","0.6,0.4","3:go_c","",""
"null","","html-keyboard-response","275","497912","0.0-6.0-1.18","","<img src=""img/red-r.png"" border=""10"">","null","trial","32","","0.6,0.4","3:go_c","1",""
"null","","html-keyboard-response","276","498913","0.0-6.0-2.18","","<div style=""font-size:60px;"">+</div>","null","","","","","","",""
"null","","image-keyboard-response","277","500414","0.0-6.0-0.19","","img/yellow.png","null","trial","null","true","0.4,0.6","2:nogo_b","",""
"null","","html-keyboard-response","278","501417","0.0-6.0-1.19","","<img src=""img/yellow-r.png"">","null","trial","null","","0.4,0.6","2:nogo_b","1",""
"null","","html-keyboard-response","279","502419","0.0-6.0-2.19","","<div style=""font-size:60px;"">+</div>","null","","","","","","",""
"null","","image-keyboard-response","280","503920","0.0-6.0-0.20","","img/green.png","null","trial","32","false","0.6,0.4","1:go_a","",""
"null","","html-keyboard-response","281","504922","0.0-6.0-1.20","","<img src=""img/green-n.png"">","null","trial","32","","0.6,0.4","1:go_a","0",""
"null","","html-keyboard-response","282","505923","0.0-6.0-2.20","","<div style=""font-size:60px;"">+</div>","null","","","","","","",""
"null","","image-keyboard-response","283","507424","0.0-6.0-0.21","","img/orange.png","null","trial","null","true","0.4,0.6","4:nogo_d","",""
"null","","html-keyboard-response","284","508427","0.0-6.0-1.21","","<img src=""img/orange-r.png"">","null","trial","null","","0.4,0.6","4:nogo_d","1",""
"null","","html-keyboard-response","285","509428","0.0-6.0-2.21","","<div style=""font-size:60px;"">+</div>","null","","","","","","",""
"796.2749996222556","","image-keyboard-response","286","510225","0.0-6.0-0.22","","img/yellow.png","32","trial","null","false","0.4,0.6","2:nogo_b","",""
"null","","html-keyboard-response","287","511228","0.0-6.0-1.22","","<img src=""img/yellow-n.png"" border=""10"">","null","trial","null","","0.4,0.6","2:nogo_b","0",""
"null","","html-keyboard-response","288","512229","0.0-6.0-2.22","","<div style=""font-size:60px;"">+</div>","null","","","","","","",""
"905.3099998272955","","image-keyboard-response","289","513136","0.0-6.0-0.23","","img/red.png","32","trial","32","true","0.6,0.4","3:go_c","",""
"null","","html-keyboard-response","290","514138","0.0-6.0-1.23","","<img src=""img/red-n.png"" border=""10"">","null","trial","32","","0.6,0.4","3:go_c","0",""
"null","","html-keyboard-response","291","515138","0.0-6.0-2.23","","<div style=""font-size:60px;"">+</div>","null","","","","","","",""
"910.9749998897314","","image-keyboard-response","292","516051","0.0-6.0-0.24","","img/red.png","32","trial","32","true","0.6,0.4","3:go_c","",""
"null","","html-keyboard-response","293","517052","0.0-6.0-1.24","","<img src=""img/red-n.png"" border=""10"">","null","trial","32","","0.6,0.4","3:go_c","0",""
"null","","html-keyboard-response","294","518053","0.0-6.0-2.24","","<div style=""font-size:60px;"">+</div>","null","","","","","","",""
"702.5199998170137","","image-keyboard-response","295","518757","0.0-6.0-0.25","","img/yellow.png","32","trial","null","false","0.4,0.6","2:nogo_b","",""
"null","","html-keyboard-response","296","519761","0.0-6.0-1.25","","<img src=""img/yellow-n.png"" border=""10"">","null","trial","null","","0.4,0.6","2:nogo_b","0",""
"null","","html-keyboard-response","297","520762","0.0-6.0-2.25","","<div style=""font-size:60px;"">+</div>","null","","","","","","",""
"null","","image-keyboard-response","298","522263","0.0-6.0-0.26","","img/green.png","null","trial","32","false","0.6,0.4","1:go_a","",""
"null","","html-keyboard-response","299","523266","0.0-6.0-1.26","","<img src=""img/green-n.png"">","null","trial","32","","0.6,0.4","1:go_a","0",""
"null","","html-keyboard-response","300","524267","0.0-6.0-2.26","","<div style=""font-size:60px;"">+</div>","null","","","","","","",""
"816.8150000274181","","image-keyboard-response","301","525085","0.0-6.0-0.27","","img/orange.png","32","trial","null","false","0.4,0.6","4:nogo_d","",""
"null","","html-keyboard-response","302","526087","0.0-6.0-1.27","","<img src=""img/orange-n.png"" border=""10"">","null","trial","null","","0.4,0.6","4:nogo_d","0",""
"null","","html-keyboard-response","303","527088","0.0-6.0-2.27","","<div style=""font-size:60px;"">+</div>","null","","","","","","",""
"null","","image-keyboard-response","304","528589","0.0-6.0-0.28","","img/red.png","null","trial","32","false","0.6,0.4","3:go_c","",""
"null","","html-keyboard-response","305","529592","0.0-6.0-1.28","","<img src=""img/red-r.png"">","null","trial","32","","0.6,0.4","3:go_c","1",""
"null","","html-keyboard-response","306","530593","0.0-6.0-2.28","","<div style=""font-size:60px;"">+</div>","null","","","","","","",""
"985.700000077486","","image-keyboard-response","307","531580","0.0-6.0-0.29","","img/yellow.png","32","trial","null","false","0.4,0.6","2:nogo_b","",""
"null","","html-keyboard-response","308","532582","0.0-6.0-1.29","","<img src=""img/yellow-n.png"" border=""10"">","null","trial","null","","0.4,0.6","2:nogo_b","0",""
"null","","html-keyboard-response","309","533583","0.0-6.0-2.29","","<div style=""font-size:60px;"">+</div>","null","","","","","","",""
"null","","image-keyboard-response","310","535085","0.0-6.0-0.30","","img/green.png","null","trial","32","false","0.6,0.4","1:go_a","",""
"null","","html-keyboard-response","311","536087","0.0-6.0-1.30","","<img src=""img/green-r.png"">","null","trial","32","","0.6,0.4","1:go_a","1",""
"null","","html-keyboard-response","312","537088","0.0-6.0-2.30","","<div style=""font-size:60px;"">+</div>","null","","","","","","",""
"710.5800001882017","","image-keyboard-response","313","537800","0.0-6.0-0.31","","img/orange.png","32","trial","null","false","0.4,0.6","4:nogo_d","",""
"null","","html-keyboard-response","314","538802","0.0-6.0-1.31","","<img src=""img/orange-n.png"" border=""10"">","null","trial","null","","0.4,0.6","4:nogo_d","0",""
"null","","html-keyboard-response","315","539803","0.0-6.0-2.31","","<div style=""font-size:60px;"">+</div>","null","","","","","","",""
"null","","image-keyboard-response","316","541305","0.0-6.0-0.32","","img/red.png","null","trial","32","false","0.6,0.4","3:go_c","",""
"null","","html-keyboard-response","317","542307","0.0-6.0-1.32","","<img src=""img/red-n.png"">","null","trial","32","","0.6,0.4","3:go_c","0",""
"null","","html-keyboard-response","318","543308","0.0-6.0-2.32","","<div style=""font-size:60px;"">+</div>","null","","","","","","",""
"817.9049999453127","","image-keyboard-response","319","544127","0.0-6.0-0.33","","img/green.png","32","trial","32","true","0.6,0.4","1:go_a","",""
"null","","html-keyboard-response","320","545130","0.0-6.0-1.33","","<img src=""img/green-r.png"" border=""10"">","null","trial","32","","0.6,0.4","1:go_a","1",""
"null","","html-keyboard-response","321","546130","0.0-6.0-2.33","","<div style=""font-size:60px;"">+</div>","null","","","","","","",""
"null","","image-keyboard-response","322","547632","0.0-6.0-0.34","","img/yellow.png","null","trial","null","true","0.4,0.6","2:nogo_b","",""
"null","","html-keyboard-response","323","548634","0.0-6.0-1.34","","<img src=""img/yellow-n.png"">","null","trial","null","","0.4,0.6","2:nogo_b","0",""
"null","","html-keyboard-response","324","549635","0.0-6.0-2.34","","<div style=""font-size:60px;"">+</div>","null","","","","","","",""
"null","","image-keyboard-response","325","551136","0.0-6.0-0.35","","img/orange.png","null","trial","null","true","0.4,0.6","4:nogo_d","",""
"null","","html-keyboard-response","326","552138","0.0-6.0-1.35","","<img src=""img/orange-n.png"">","null","trial","null","","0.4,0.6","4:nogo_d","0",""
"null","","html-keyboard-response","327","553140","0.0-6.0-2.35","","<div style=""font-size:60px;"">+</div>","null","","","","","","",""
"1254.2250002734363","","image-keyboard-response","328","554396","0.0-6.0-0.36","","img/orange.png","32","trial","null","false","0.4,0.6","4:nogo_d","",""
"null","","html-keyboard-response","329","555398","0.0-6.0-1.36","","<img src=""img/orange-n.png"" border=""10"">","null","trial","null","","0.4,0.6","4:nogo_d","0",""
"null","","html-keyboard-response","330","556399","0.0-6.0-2.36","","<div style=""font-size:60px;"">+</div>","null","","","","","","",""
"1154.8449997790158","","image-keyboard-response","331","557555","0.0-6.0-0.37","","img/green.png","32","trial","32","true","0.6,0.4","1:go_a","",""
"null","","html-keyboard-response","332","558557","0.0-6.0-1.37","","<img src=""img/green-n.png"" border=""10"">","null","trial","32","","0.6,0.4","1:go_a","0",""
"null","","html-keyboard-response","333","559558","0.0-6.0-2.37","","<div style=""font-size:60px;"">+</div>","null","","","","","","",""
"null","","image-keyboard-response","334","561060","0.0-6.0-0.38","","img/red.png","null","trial","32","false","0.6,0.4","3:go_c","",""
"null","","html-keyboard-response","335","562061","0.0-6.0-1.38","","<img src=""img/red-n.png"">","null","trial","32","","0.6,0.4","3:go_c","0",""
"null","","html-keyboard-response","336","563063","0.0-6.0-2.38","","<div style=""font-size:60px;"">+</div>","null","","","","","","",""
"null","","image-keyboard-response","337","564564","0.0-6.0-0.39","","img/yellow.png","null","trial","null","true","0.4,0.6","2:nogo_b","",""
"null","","html-keyboard-response","338","565566","0.0-6.0-1.39","","<img src=""img/yellow-n.png"">","null","trial","null","","0.4,0.6","2:nogo_b","0",""
"null","","html-keyboard-response","339","566568","0.0-6.0-2.39","","<div style=""font-size:60px;"">+</div>","null","","","","","","",""
"null","","image-keyboard-response","340","568069","0.0-6.0-0.40","","img/yellow.png","null","trial","null","true","0.4,0.6","2:nogo_b","",""
"null","","html-keyboard-response","341","569071","0.0-6.0-1.40","","<img src=""img/yellow-r.png"">","null","trial","null","","0.4,0.6","2:nogo_b","1",""
"null","","html-keyboard-response","342","570072","0.0-6.0-2.40","","<div style=""font-size:60px;"">+</div>","null","","","","","","",""
"1029.6800001524389","","image-keyboard-response","343","571103","0.0-6.0-0.41","","img/green.png","32","trial","32","true","0.6,0.4","1:go_a","",""
"null","","html-keyboard-response","344","572105","0.0-6.0-1.41","","<img src=""img/green-n.png"" border=""10"">","null","trial","32","","0.6,0.4","1:go_a","0",""
"null","","html-keyboard-response","345","573106","0.0-6.0-2.41","","<div style=""font-size:60px;"">+</div>","null","","","","","","",""
"null","","image-keyboard-response","346","574607","0.0-6.0-0.42","","img/red.png","null","trial","32","false","0.6,0.4","3:go_c","",""
"null","","html-keyboard-response","347","575609","0.0-6.0-1.42","","<img src=""img/red-n.png"">","null","trial","32","","0.6,0.4","3:go_c","0",""
"null","","html-keyboard-response","348","576611","0.0-6.0-2.42","","<div style=""font-size:60px;"">+</div>","null","","","","","","",""
"null","","image-keyboard-response","349","578112","0.0-6.0-0.43","","img/orange.png","null","trial","null","true","0.4,0.6","4:nogo_d","",""
"null","","html-keyboard-response","350","579114","0.0-6.0-1.43","","<img src=""img/orange-r.png"">","null","trial","null","","0.4,0.6","4:nogo_d","1",""
"null","","html-keyboard-response","351","580115","0.0-6.0-2.43","","<div style=""font-size:60px;"">+</div>","null","","","","","","",""
"885.2849998511374","","image-keyboard-response","352","581002","0.0-6.0-0.44","","img/green.png","32","trial","32","true","0.6,0.4","1:go_a","",""
"null","","html-keyboard-response","353","582004","0.0-6.0-1.44","","<img src=""img/green-n.png"" border=""10"">","null","trial","32","","0.6,0.4","1:go_a","0",""
"null","","html-keyboard-response","354","583005","0.0-6.0-2.44","","<div style=""font-size:60px;"">+</div>","null","","","","","","",""
"null","","image-keyboard-response","355","584506","0.0-6.0-0.45","","img/yellow.png","null","trial","null","true","0.4,0.6","2:nogo_b","",""
"null","","html-keyboard-response","356","585508","0.0-6.0-1.45","","<img src=""img/yellow-r.png"">","null","trial","null","","0.4,0.6","2:nogo_b","1",""
"null","","html-keyboard-response","357","586509","0.0-6.0-2.45","","<div style=""font-size:60px;"">+</div>","null","","","","","","",""
"743.5899996198714","","image-keyboard-response","358","587254","0.0-6.0-0.46","","img/red.png","32","trial","32","true","0.6,0.4","3:go_c","",""
"null","","html-keyboard-response","359","588257","0.0-6.0-1.46","","<img src=""img/red-n.png"" border=""10"">","null","trial","32","","0.6,0.4","3:go_c","0",""
"null","","html-keyboard-response","360","589258","0.0-6.0-2.46","","<div style=""font-size:60px;"">+</div>","null","","","","","","",""
"778.4599997103214","","image-keyboard-response","361","590038","0.0-6.0-0.47","","img/orange.png","32","trial","null","false","0.4,0.6","4:nogo_d","",""
"null","","html-keyboard-response","362","591041","0.0-6.0-1.47","","<img src=""img/orange-r.png"" border=""10"">","null","trial","null","","0.4,0.6","4:nogo_d","1",""
"null","","html-keyboard-response","363","592042","0.0-6.0-2.47","","<div style=""font-size:60px;"">+</div>","null","","","","","","",""
"806.0250002890825","","image-keyboard-response","364","592855","0.0-6.0-0.48","","img/green.png","32","trial","32","true","0.6,0.4","1:go_a","",""
"null","","html-keyboard-response","365","593857","0.0-6.0-1.48","","<img src=""img/green-r.png"" border=""10"">","null","trial","32","","0.6,0.4","1:go_a","1",""
"null","","html-keyboard-response","366","594857","0.0-6.0-2.48","","<div style=""font-size:60px;"">+</div>","null","","","","","","",""
"null","","image-keyboard-response","367","596359","0.0-6.0-0.49","","img/orange.png","null","trial","null","true","0.4,0.6","4:nogo_d","",""
"null","","html-keyboard-response","368","597361","0.0-6.0-1.49","","<img src=""img/orange-r.png"">","null","trial","null","","0.4,0.6","4:nogo_d","1",""
"null","","html-keyboard-response","369","598363","0.0-6.0-2.49","","<div style=""font-size:60px;"">+</div>","null","","","","","","",""
"null","","image-keyboard-response","370","599864","0.0-6.0-0.50","","img/yellow.png","null","trial","null","true","0.4,0.6","2:nogo_b","",""
"null","","html-keyboard-response","371","600866","0.0-6.0-1.50","","<img src=""img/yellow-r.png"">","null","trial","null","","0.4,0.6","2:nogo_b","1",""
"null","","html-keyboard-response","372","601867","0.0-6.0-2.50","","<div style=""font-size:60px;"">+</div>","null","","","","","","",""
"null","","image-keyboard-response","373","603370","0.0-6.0-0.51","","img/red.png","null","trial","32","false","0.6,0.4","3:go_c","",""
"null","","html-keyboard-response","374","604373","0.0-6.0-1.51","","<img src=""img/red-r.png"">","null","trial","32","","0.6,0.4","3:go_c","1",""
"null","","html-keyboard-response","375","605373","0.0-6.0-2.51","","<div style=""font-size:60px;"">+</div>","null","","","","","","",""
"906.8749998696148","","image-keyboard-response","376","606281","0.0-6.0-0.52","","img/green.png","32","trial","32","true","0.6,0.4","1:go_a","",""
"null","","html-keyboard-response","377","607283","0.0-6.0-1.52","","<img src=""img/green-n.png"" border=""10"">","null","trial","32","","0.6,0.4","1:go_a","0",""
"null","","html-keyboard-response","378","608284","0.0-6.0-2.52","","<div style=""font-size:60px;"">+</div>","null","","","","","","",""
"668.6550001613796","","image-keyboard-response","379","608954","0.0-6.0-0.53","","img/red.png","32","trial","32","true","0.6,0.4","3:go_c","",""
"null","","html-keyboard-response","380","609956","0.0-6.0-1.53","","<img src=""img/red-r.png"" border=""10"">","null","trial","32","","0.6,0.4","3:go_c","1",""
"null","","html-keyboard-response","381","610958","0.0-6.0-2.53","","<div style=""font-size:60px;"">+</div>","null","","","","","","",""
"null","","image-keyboard-response","382","612459","0.0-6.0-0.54","","img/yellow.png","null","trial","null","true","0.4,0.6","2:nogo_b","",""
"null","","html-keyboard-response","383","613461","0.0-6.0-1.54","","<img src=""img/yellow-r.png"">","null","trial","null","","0.4,0.6","2:nogo_b","1",""
"null","","html-keyboard-response","384","614462","0.0-6.0-2.54","","<div style=""font-size:60px;"">+</div>","null","","","","","","",""
"null","","image-keyboard-response","385","615967","0.0-6.0-0.55","","img/orange.png","null","trial","null","true","0.4,0.6","4:nogo_d","",""
"null","","html-keyboard-response","386","616969","0.0-6.0-1.55","","<img src=""img/orange-n.png"">","null","trial","null","","0.4,0.6","4:nogo_d","0",""
"null","","html-keyboard-response","387","617970","0.0-6.0-2.55","","<div style=""font-size:60px;"">+</div>","null","","","","","","",""
"null","","image-keyboard-response","388","619471","0.0-6.0-0.56","","img/red.png","null","trial","32","false","0.6,0.4","3:go_c","",""
"null","","html-keyboard-response","389","620474","0.0-6.0-1.56","","<img src=""img/red-n.png"">","null","trial","32","","0.6,0.4","3:go_c","0",""
"null","","html-keyboard-response","390","621475","0.0-6.0-2.56","","<div style=""font-size:60px;"">+</div>","null","","","","","","",""
"825.6899998523295","","image-keyboard-response","391","622303","0.0-6.0-0.57","","img/yellow.png","32","trial","null","false","0.4,0.6","2:nogo_b","",""
"null","","html-keyboard-response","392","623305","0.0-6.0-1.57","","<img src=""img/yellow-r.png"" border=""10"">","null","trial","null","","0.4,0.6","2:nogo_b","1",""
"null","","html-keyboard-response","393","624306","0.0-6.0-2.57","","<div style=""font-size:60px;"">+</div>","null","","","","","","",""
"663.4299997240305","","image-keyboard-response","394","624970","0.0-6.0-0.58","","img/green.png","32","trial","32","true","0.6,0.4","1:go_a","",""
"null","","html-keyboard-response","395","625974","0.0-6.0-1.58","","<img src=""img/green-r.png"" border=""10"">","null","trial","32","","0.6,0.4","1:go_a","1",""
"null","","html-keyboard-response","396","626975","0.0-6.0-2.58","","<div style=""font-size:60px;"">+</div>","null","","","","","","",""
"null","","image-keyboard-response","397","628476","0.0-6.0-0.59","","img/orange.png","null","trial","null","true","0.4,0.6","4:nogo_d","",""
"null","","html-keyboard-response","398","629478","0.0-6.0-1.59","","<img src=""img/orange-n.png"">","null","trial","null","","0.4,0.6","4:nogo_d","0",""
"null","","html-keyboard-response","399","630480","0.0-6.0-2.59","","<div style=""font-size:60px;"">+</div>","null","","","","","","",""
"null","","image-keyboard-response","400","631981","0.0-6.0-0.60","","img/yellow.png","null","trial","null","true","0.4,0.6","2:nogo_b","",""
"null","","html-keyboard-response","401","632983","0.0-6.0-1.60","","<img src=""img/yellow-r.png"">","null","trial","null","","0.4,0.6","2:nogo_b","1",""
"null","","html-keyboard-response","402","633984","0.0-6.0-2.60","","<div style=""font-size:60px;"">+</div>","null","","","","","","",""
"null","","image-keyboard-response","403","635485","0.0-6.0-0.61","","img/red.png","null","trial","32","false","0.6,0.4","3:go_c","",""
"null","","html-keyboard-response","404","636487","0.0-6.0-1.61","","<img src=""img/red-n.png"">","null","trial","32","","0.6,0.4","3:go_c","0",""
"null","","html-keyboard-response","405","637489","0.0-6.0-2.61","","<div style=""font-size:60px;"">+</div>","null","","","","","","",""
"694.8500000871718","","image-keyboard-response","406","638185","0.0-6.0-0.62","","img/green.png","32","trial","32","true","0.6,0.4","1:go_a","",""
"null","","html-keyboard-response","407","639186","0.0-6.0-1.62","","<img src=""img/green-r.png"" border=""10"">","null","trial","32","","0.6,0.4","1:go_a","1",""
"null","","html-keyboard-response","408","640188","0.0-6.0-2.62","","<div style=""font-size:60px;"">+</div>","null","","","","","","",""
"null","","image-keyboard-response","409","641689","0.0-6.0-0.63","","img/orange.png","null","trial","null","true","0.4,0.6","4:nogo_d","",""
"null","","html-keyboard-response","410","642693","0.0-6.0-1.63","","<img src=""img/orange-r.png"">","null","trial","null","","0.4,0.6","4:nogo_d","1",""
"null","","html-keyboard-response","411","643694","0.0-6.0-2.63","","<div style=""font-size:60px;"">+</div>","null","","","","","","",""
"null","","image-keyboard-response","412","645195","0.0-6.0-0.64","","img/red.png","null","trial","32","false","0.6,0.4","3:go_c","",""
"null","","html-keyboard-response","413","646197","0.0-6.0-1.64","","<img src=""img/red-n.png"">","null","trial","32","","0.6,0.4","3:go_c","0",""
"null","","html-keyboard-response","414","647198","0.0-6.0-2.64","","<div style=""font-size:60px;"">+</div>","null","","","","","","",""
"561.2650001421571","","image-keyboard-response","415","647760","0.0-6.0-0.65","","img/orange.png","32","trial","null","false","0.4,0.6","4:nogo_d","",""
"null","","html-keyboard-response","416","648762","0.0-6.0-1.65","","<img src=""img/orange-n.png"" border=""10"">","null","trial","null","","0.4,0.6","4:nogo_d","0",""
"null","","html-keyboard-response","417","649763","0.0-6.0-2.65","","<div style=""font-size:60px;"">+</div>","null","","","","","","",""
"959.0300000272691","","image-keyboard-response","418","650723","0.0-6.0-0.66","","img/yellow.png","32","trial","null","false","0.4,0.6","2:nogo_b","",""
"null","","html-keyboard-response","419","651725","0.0-6.0-1.66","","<img src=""img/yellow-n.png"" border=""10"">","null","trial","null","","0.4,0.6","2:nogo_b","0",""
"null","","html-keyboard-response","420","652733","0.0-6.0-2.66","","<div style=""font-size:60px;"">+</div>","null","","","","","","",""
"427.5449998676777","","image-keyboard-response","421","653162","0.0-6.0-0.67","","img/green.png","32","trial","32","true","0.6,0.4","1:go_a","",""
"null","","html-keyboard-response","422","654164","0.0-6.0-1.67","","<img src=""img/green-r.png"" border=""10"">","null","trial","32","","0.6,0.4","1:go_a","1",""
"null","","html-keyboard-response","423","655165","0.0-6.0-2.67","","<div style=""font-size:60px;"">+</div>","null","","","","","","",""
"null","","image-keyboard-response","424","656666","0.0-6.0-0.68","","img/red.png","null","trial","32","false","0.6,0.4","3:go_c","",""
"null","","html-keyboard-response","425","657668","0.0-6.0-1.68","","<img src=""img/red-r.png"">","null","trial","32","","0.6,0.4","3:go_c","1",""
"null","","html-keyboard-response","426","658670","0.0-6.0-2.68","","<div style=""font-size:60px;"">+</div>","null","","","","","","",""
"null","","image-keyboard-response","427","660171","0.0-6.0-0.69","","img/orange.png","null","trial","null","true","0.4,0.6","4:nogo_d","",""
"null","","html-keyboard-response","428","661173","0.0-6.0-1.69","","<img src=""img/orange-r.png"">","null","trial","null","","0.4,0.6","4:nogo_d","1",""
"null","","html-keyboard-response","429","662175","0.0-6.0-2.69","","<div style=""font-size:60px;"">+</div>","null","","","","","","",""
"746.1049999110401","","image-keyboard-response","430","662922","0.0-6.0-0.70","","img/green.png","32","trial","32","true","0.6,0.4","1:go_a","",""
"null","","html-keyboard-response","431","663925","0.0-6.0-1.70","","<img src=""img/green-n.png"" border=""10"">","null","trial","32","","0.6,0.4","1:go_a","0",""
"null","","html-keyboard-response","432","664925","0.0-6.0-2.70","","<div style=""font-size:60px;"">+</div>","null","","","","","","",""
"null","","image-keyboard-response","433","666427","0.0-6.0-0.71","","img/yellow.png","null","trial","null","true","0.4,0.6","2:nogo_b","",""
"null","","html-keyboard-response","434","667430","0.0-6.0-1.71","","<img src=""img/yellow-r.png"">","null","trial","null","","0.4,0.6","2:nogo_b","1",""
"null","","html-keyboard-response","435","668432","0.0-6.0-2.71","","<div style=""font-size:60px;"">+</div>","null","","","","","","",""
"null","","image-keyboard-response","436","669933","0.0-6.0-0.72","","img/red.png","null","trial","32","false","0.6,0.4","3:go_c","",""
"null","","html-keyboard-response","437","670936","0.0-6.0-1.72","","<img src=""img/red-r.png"">","null","trial","32","","0.6,0.4","3:go_c","1",""
"null","","html-keyboard-response","438","671937","0.0-6.0-2.72","","<div style=""font-size:60px;"">+</div>","null","","","","","","",""
"null","","image-keyboard-response","439","673438","0.0-6.0-0.73","","img/yellow.png","null","trial","null","true","0.4,0.6","2:nogo_b","",""
"null","","html-keyboard-response","440","674440","0.0-6.0-1.73","","<img src=""img/yellow-r.png"">","null","trial","null","","0.4,0.6","2:nogo_b","1",""
"null","","html-keyboard-response","441","675441","0.0-6.0-2.73","","<div style=""font-size:60px;"">+</div>","null","","","","","","",""
"564.3299999646842","","image-keyboard-response","442","676006","0.0-6.0-0.74","","img/green.png","32","trial","32","true","0.6,0.4","1:go_a","",""
"null","","html-keyboard-response","443","677008","0.0-6.0-1.74","","<img src=""img/green-r.png"" border=""10"">","null","trial","32","","0.6,0.4","1:go_a","1",""
"null","","html-keyboard-response","444","678009","0.0-6.0-2.74","","<div style=""font-size:60px;"">+</div>","null","","","","","","",""
"null","","image-keyboard-response","445","679511","0.0-6.0-0.75","","img/orange.png","null","trial","null","true","0.4,0.6","4:nogo_d","",""
"null","","html-keyboard-response","446","680513","0.0-6.0-1.75","","<img src=""img/orange-r.png"">","null","trial","null","","0.4,0.6","4:nogo_d","1",""
"null","","html-keyboard-response","447","681514","0.0-6.0-2.75","","<div style=""font-size:60px;"">+</div>","null","","","","","","",""
"534.4549999572337","","image-keyboard-response","448","682050","0.0-6.0-0.76","","img/red.png","32","trial","32","true","0.6,0.4","3:go_c","",""
"null","","html-keyboard-response","449","683052","0.0-6.0-1.76","","<img src=""img/red-n.png"" border=""10"">","null","trial","32","","0.6,0.4","3:go_c","0",""
"null","","html-keyboard-response","450","684053","0.0-6.0-2.76","","<div style=""font-size:60px;"">+</div>","null","","","","","","",""
"695.7450001500547","","image-keyboard-response","451","684750","0.0-6.0-0.77","","img/green.png","32","trial","32","true","0.6,0.4","1:go_a","",""
"null","","html-keyboard-response","452","685752","0.0-6.0-1.77","","<img src=""img/green-r.png"" border=""10"">","null","trial","32","","0.6,0.4","1:go_a","1",""
"null","","html-keyboard-response","453","686753","0.0-6.0-2.77","","<div style=""font-size:60px;"">+</div>","null","","","","","","",""
"625.9400001727045","","image-keyboard-response","454","687381","0.0-6.0-0.78","","img/orange.png","32","trial","null","false","0.4,0.6","4:nogo_d","",""
"null","","html-keyboard-response","455","688383","0.0-6.0-1.78","","<img src=""img/orange-n.png"" border=""10"">","null","trial","null","","0.4,0.6","4:nogo_d","0",""
"null","","html-keyboard-response","456","689384","0.0-6.0-2.78","","<div style=""font-size:60px;"">+</div>","null","","","","","","",""
"null","","image-keyboard-response","457","690885","0.0-6.0-0.79","","img/yellow.png","null","trial","null","true","0.4,0.6","2:nogo_b","",""
"null","","html-keyboard-response","458","691888","0.0-6.0-1.79","","<img src=""img/yellow-n.png"">","null","trial","null","","0.4,0.6","2:nogo_b","0",""
"null","","html-keyboard-response","459","692889","0.0-6.0-2.79","","<div style=""font-size:60px;"">+</div>","null","","","","","","",""
"582.0800000801682","","image-keyboard-response","460","693472","0.0-6.0-0.80","","img/orange.png","32","trial","null","false","0.4,0.6","4:nogo_d","",""
"null","","html-keyboard-response","461","694474","0.0-6.0-1.80","","<img src=""img/orange-n.png"" border=""10"">","null","trial","null","","0.4,0.6","4:nogo_d","0",""
"null","","html-keyboard-response","462","695475","0.0-6.0-2.80","","<div style=""font-size:60px;"">+</div>","null","","","","","","",""
"593.0750002153218","","image-keyboard-response","463","696069","0.0-6.0-0.81","","img/yellow.png","32","trial","null","false","0.4,0.6","2:nogo_b","",""
"null","","html-keyboard-response","464","697071","0.0-6.0-1.81","","<img src=""img/yellow-n.png"" border=""10"">","null","trial","null","","0.4,0.6","2:nogo_b","0",""
"null","","html-keyboard-response","465","698073","0.0-6.0-2.81","","<div style=""font-size:60px;"">+</div>","null","","","","","","",""
"634.6749998629093","","image-keyboard-response","466","698708","0.0-6.0-0.82","","img/red.png","32","trial","32","true","0.6,0.4","3:go_c","",""
"null","","html-keyboard-response","467","699710","0.0-6.0-1.82","","<img src=""img/red-r.png"" border=""10"">","null","trial","32","","0.6,0.4","3:go_c","1",""
"null","","html-keyboard-response","468","700711","0.0-6.0-2.82","","<div style=""font-size:60px;"">+</div>","null","","","","","","",""
"840.5100000090897","","image-keyboard-response","469","701553","0.0-6.0-0.83","","img/green.png","32","trial","32","true","0.6,0.4","1:go_a","",""
"null","","html-keyboard-response","470","702555","0.0-6.0-1.83","","<img src=""img/green-r.png"" border=""10"">","null","trial","32","","0.6,0.4","1:go_a","1",""
"null","","html-keyboard-response","471","703556","0.0-6.0-2.83","","<div style=""font-size:60px;"">+</div>","null","","","","","","",""
"null","","image-keyboard-response","472","705057","0.0-6.0-0.84","","img/green.png","null","trial","32","false","0.6,0.4","1:go_a","",""
"null","","html-keyboard-response","473","706059","0.0-6.0-1.84","","<img src=""img/green-n.png"">","null","trial","32","","0.6,0.4","1:go_a","0",""
"null","","html-keyboard-response","474","707061","0.0-6.0-2.84","","<div style=""font-size:60px;"">+</div>","null","","","","","","",""
"779.0049999020994","","image-keyboard-response","475","707841","0.0-6.0-0.85","","img/yellow.png","32","trial","null","false","0.4,0.6","2:nogo_b","",""
"null","","html-keyboard-response","476","708843","0.0-6.0-1.85","","<img src=""img/yellow-r.png"" border=""10"">","null","trial","null","","0.4,0.6","2:nogo_b","1",""
"null","","html-keyboard-response","477","709844","0.0-6.0-2.85","","<div style=""font-size:60px;"">+</div>","null","","","","","","",""
"801.6099999658763","","image-keyboard-response","478","710647","0.0-6.0-0.86","","img/red.png","32","trial","32","true","0.6,0.4","3:go_c","",""
"null","","html-keyboard-response","479","711649","0.0-6.0-1.86","","<img src=""img/red-r.png"" border=""10"">","null","trial","32","","0.6,0.4","3:go_c","1",""
"null","","html-keyboard-response","480","712650","0.0-6.0-2.86","","<div style=""font-size:60px;"">+</div>","null","","","","","","",""
"1456.899999640882","","image-keyboard-response","481","714108","0.0-6.0-0.87","","img/orange.png","32","trial","null","false","0.4,0.6","4:nogo_d","",""
"null","","html-keyboard-response","482","715111","0.0-6.0-1.87","","<img src=""img/orange-n.png"" border=""10"">","null","trial","null","","0.4,0.6","4:nogo_d","0",""
"null","","html-keyboard-response","483","716112","0.0-6.0-2.87","","<div style=""font-size:60px;"">+</div>","null","","","","","","",""
"623.6700001172721","","image-keyboard-response","484","716737","0.0-6.0-0.88","","img/green.png","32","trial","32","true","0.6,0.4","1:go_a","",""
"null","","html-keyboard-response","485","717739","0.0-6.0-1.88","","<img src=""img/green-n.png"" border=""10"">","null","trial","32","","0.6,0.4","1:go_a","0",""
"null","","html-keyboard-response","486","718739","0.0-6.0-2.88","","<div style=""font-size:60px;"">+</div>","null","","","","","","",""
"null","","image-keyboard-response","487","720241","0.0-6.0-0.89","","img/yellow.png","null","trial","null","true","0.4,0.6","2:nogo_b","",""
"null","","html-keyboard-response","488","721243","0.0-6.0-1.89","","<img src=""img/yellow-n.png"">","null","trial","null","","0.4,0.6","2:nogo_b","0",""
"null","","html-keyboard-response","489","722244","0.0-6.0-2.89","","<div style=""font-size:60px;"">+</div>","null","","","","","","",""
"634.0499999932945","","image-keyboard-response","490","722880","0.0-6.0-0.90","","img/red.png","32","trial","32","true","0.6,0.4","3:go_c","",""
"null","","html-keyboard-response","491","723882","0.0-6.0-1.90","","<img src=""img/red-r.png"" border=""10"">","null","trial","32","","0.6,0.4","3:go_c","1",""
"null","","html-keyboard-response","492","724883","0.0-6.0-2.90","","<div style=""font-size:60px;"">+</div>","null","","","","","","",""
"894.8050001636147","","image-keyboard-response","493","725780","0.0-6.0-0.91","","img/orange.png","32","trial","null","false","0.4,0.6","4:nogo_d","",""
"null","","html-keyboard-response","494","726782","0.0-6.0-1.91","","<img src=""img/orange-n.png"" border=""10"">","null","trial","null","","0.4,0.6","4:nogo_d","0",""
"null","","html-keyboard-response","495","727784","0.0-6.0-2.91","","<div style=""font-size:60px;"">+</div>","null","","","","","","",""
"736.314999870956","","image-keyboard-response","496","728521","0.0-6.0-0.92","","img/green.png","32","trial","32","true","0.6,0.4","1:go_a","",""
"null","","html-keyboard-response","497","729523","0.0-6.0-1.92","","<img src=""img/green-r.png"" border=""10"">","null","trial","32","","0.6,0.4","1:go_a","1",""
"null","","html-keyboard-response","498","730525","0.0-6.0-2.92","","<div style=""font-size:60px;"">+</div>","null","","","","","","",""
"805.1849999465048","","image-keyboard-response","499","731332","0.0-6.0-0.93","","img/yellow.png","32","trial","null","false","0.4,0.6","2:nogo_b","",""
"null","","html-keyboard-response","500","732335","0.0-6.0-1.93","","<img src=""img/yellow-n.png"" border=""10"">","null","trial","null","","0.4,0.6","2:nogo_b","0",""
"null","","html-keyboard-response","501","733336","0.0-6.0-2.93","","<div style=""font-size:60px;"">+</div>","null","","","","","","",""
"667.5699995830655","","image-keyboard-response","502","734005","0.0-6.0-0.94","","img/red.png","32","trial","32","true","0.6,0.4","3:go_c","",""
"null","","html-keyboard-response","503","735008","0.0-6.0-1.94","","<img src=""img/red-n.png"" border=""10"">","null","trial","32","","0.6,0.4","3:go_c","0",""
"null","","html-keyboard-response","504","736008","0.0-6.0-2.94","","<div style=""font-size:60px;"">+</div>","null","","","","","","",""
"null","","image-keyboard-response","505","737510","0.0-6.0-0.95","","img/orange.png","null","trial","null","true","0.4,0.6","4:nogo_d","",""
"null","","html-keyboard-response","506","738512","0.0-6.0-1.95","","<img src=""img/orange-r.png"">","null","trial","null","","0.4,0.6","4:nogo_d","1",""
"null","","html-keyboard-response","507","739513","0.0-6.0-2.95","","<div style=""font-size:60px;"">+</div>","null","","","","","","",""
"null","","image-keyboard-response","508","741015","0.0-6.0-0.96","","img/orange.png","null","trial","null","true","0.4,0.6","4:nogo_d","",""
"null","","html-keyboard-response","509","742017","0.0-6.0-1.96","","<img src=""img/orange-r.png"">","null","trial","null","","0.4,0.6","4:nogo_d","1",""
"null","","html-keyboard-response","510","743018","0.0-6.0-2.96","","<div style=""font-size:60px;"">+</div>","null","","","","","","",""
"null","","image-keyboard-response","511","744520","0.0-6.0-0.97","","img/yellow.png","null","trial","null","true","0.4,0.6","2:nogo_b","",""
"null","","html-keyboard-response","512","745522","0.0-6.0-1.97","","<img src=""img/yellow-n.png"">","null","trial","null","","0.4,0.6","2:nogo_b","0",""
"null","","html-keyboard-response","513","746523","0.0-6.0-2.97","","<div style=""font-size:60px;"">+</div>","null","","","","","","",""
"864.7349998354912","","image-keyboard-response","514","747389","0.0-6.0-0.98","","img/green.png","32","trial","32","true","0.6,0.4","1:go_a","",""
"null","","html-keyboard-response","515","748391","0.0-6.0-1.98","","<img src=""img/green-n.png"" border=""10"">","null","trial","32","","0.6,0.4","1:go_a","0",""
"null","","html-keyboard-response","516","749392","0.0-6.0-2.98","","<div style=""font-size:60px;"">+</div>","null","","","","","","",""
"null","","image-keyboard-response","517","750893","0.0-6.0-0.99","","img/red.png","null","trial","32","false","0.6,0.4","3:go_c","",""
"null","","html-keyboard-response","518","751896","0.0-6.0-1.99","","<img src=""img/red-r.png"">","null","trial","32","","0.6,0.4","3:go_c","1",""
"null","","html-keyboard-response","519","752898","0.0-6.0-2.99","","<div style=""font-size:60px;"">+</div>","null","","","","","","",""
"976.9850000739098","","image-keyboard-response","520","753876","0.0-6.0-0.100","","img/green.png","32","trial","32","true","0.6,0.4","1:go_a","",""
"null","","html-keyboard-response","521","754880","0.0-6.0-1.100","","<img src=""img/green-r.png"" border=""10"">","null","trial","32","","0.6,0.4","1:go_a","1",""
"null","","html-keyboard-response","522","755881","0.0-6.0-2.100","","<div style=""font-size:60px;"">+</div>","null","","","","","","",""
"null","","image-keyboard-response","523","757382","0.0-6.0-0.101","","img/yellow.png","null","trial","null","true","0.4,0.6","2:nogo_b","",""
"null","","html-keyboard-response","524","758384","0.0-6.0-1.101","","<img src=""img/yellow-r.png"">","null","trial","null","","0.4,0.6","2:nogo_b","1",""
"null","","html-keyboard-response","525","759385","0.0-6.0-2.101","","<div style=""font-size:60px;"">+</div>","null","","","","","","",""
"868.0750001221895","","image-keyboard-response","526","760255","0.0-6.0-0.102","","img/red.png","32","trial","32","true","0.6,0.4","3:go_c","",""
"null","","html-keyboard-response","527","761257","0.0-6.0-1.102","","<img src=""img/red-r.png"" border=""10"">","null","trial","32","","0.6,0.4","3:go_c","1",""
"null","","html-keyboard-response","528","762258","0.0-6.0-2.102","","<div style=""font-size:60px;"">+</div>","null","","","","","","",""
"1025.0250003300607","","image-keyboard-response","529","763285","0.0-6.0-0.103","","img/orange.png","32","trial","null","false","0.4,0.6","4:nogo_d","",""
"null","","html-keyboard-response","530","764287","0.0-6.0-1.103","","<img src=""img/orange-n.png"" border=""10"">","null","trial","null","","0.4,0.6","4:nogo_d","0",""
"null","","html-keyboard-response","531","765288","0.0-6.0-2.103","","<div style=""font-size:60px;"">+</div>","null","","","","","","",""
"929.1349998675287","","image-keyboard-response","532","766218","0.0-6.0-0.104","","img/red.png","32","trial","32","true","0.6,0.4","3:go_c","",""
"null","","html-keyboard-response","533","767220","0.0-6.0-1.104","","<img src=""img/red-r.png"" border=""10"">","null","trial","32","","0.6,0.4","3:go_c","1",""
"null","","html-keyboard-response","534","768222","0.0-6.0-2.104","","<div style=""font-size:60px;"">+</div>","null","","","","","","",""
"null","","image-keyboard-response","535","769724","0.0-6.0-0.105","","img/orange.png","null","trial","null","true","0.4,0.6","4:nogo_d","",""
"null","","html-keyboard-response","536","770726","0.0-6.0-1.105","","<img src=""img/orange-n.png"">","null","trial","null","","0.4,0.6","4:nogo_d","0",""
"null","","html-keyboard-response","537","771727","0.0-6.0-2.105","","<div style=""font-size:60px;"">+</div>","null","","","","","","",""
"null","","image-keyboard-response","538","773229","0.0-6.0-0.106","","img/green.png","null","trial","32","false","0.6,0.4","1:go_a","",""
"null","","html-keyboard-response","539","774231","0.0-6.0-1.106","","<img src=""img/green-n.png"">","null","trial","32","","0.6,0.4","1:go_a","0",""
"null","","html-keyboard-response","540","775232","0.0-6.0-2.106","","<div style=""font-size:60px;"">+</div>","null","","","","","","",""
"684.320000000298","","image-keyboard-response","541","775918","0.0-6.0-0.107","","img/yellow.png","32","trial","null","false","0.4,0.6","2:nogo_b","",""
"null","","html-keyboard-response","542","776920","0.0-6.0-1.107","","<img src=""img/yellow-n.png"" border=""10"">","null","trial","null","","0.4,0.6","2:nogo_b","0",""
"null","","html-keyboard-response","543","777921","0.0-6.0-2.107","","<div style=""font-size:60px;"">+</div>","null","","","","","","",""
"null","","image-keyboard-response","544","779423","0.0-6.0-0.108","","img/yellow.png","null","trial","null","true","0.4,0.6","2:nogo_b","",""
"null","","html-keyboard-response","545","780425","0.0-6.0-1.108","","<img src=""img/yellow-r.png"">","null","trial","null","","0.4,0.6","2:nogo_b","1",""
"null","","html-keyboard-response","546","781426","0.0-6.0-2.108","","<div style=""font-size:60px;"">+</div>","null","","","","","","",""
"543.3600000105798","","image-keyboard-response","547","781971","0.0-6.0-0.109","","img/red.png","32","trial","32","true","0.6,0.4","3:go_c","",""
"null","","html-keyboard-response","548","782973","0.0-6.0-1.109","","<img src=""img/red-r.png"" border=""10"">","null","trial","32","","0.6,0.4","3:go_c","1",""
"null","","html-keyboard-response","549","783974","0.0-6.0-2.109","","<div style=""font-size:60px;"">+</div>","null","","","","","","",""
"658.9499996043742","","image-keyboard-response","550","784634","0.0-6.0-0.110","","img/green.png","32","trial","32","true","0.6,0.4","1:go_a","",""
"null","","html-keyboard-response","551","785637","0.0-6.0-1.110","","<img src=""img/green-n.png"" border=""10"">","null","trial","32","","0.6,0.4","1:go_a","0",""
"null","","html-keyboard-response","552","786638","0.0-6.0-2.110","","<div style=""font-size:60px;"">+</div>","null","","","","","","",""
"null","","image-keyboard-response","553","788140","0.0-6.0-0.111","","img/orange.png","null","trial","null","true","0.4,0.6","4:nogo_d","",""
"null","","html-keyboard-response","554","789143","0.0-6.0-1.111","","<img src=""img/orange-n.png"">","null","trial","null","","0.4,0.6","4:nogo_d","0",""
"null","","html-keyboard-response","555","790145","0.0-6.0-2.111","","<div style=""font-size:60px;"">+</div>","null","","","","","","",""
"null","","image-keyboard-response","556","791646","0.0-6.0-0.112","","img/orange.png","null","trial","null","true","0.4,0.6","4:nogo_d","",""
"null","","html-keyboard-response","557","792648","0.0-6.0-1.112","","<img src=""img/orange-n.png"">","null","trial","null","","0.4,0.6","4:nogo_d","0",""
"null","","html-keyboard-response","558","793650","0.0-6.0-2.112","","<div style=""font-size:60px;"">+</div>","null","","","","","","",""
"517.5550002604723","","image-keyboard-response","559","794169","0.0-6.0-0.113","","img/green.png","32","trial","32","true","0.6,0.4","1:go_a","",""
"null","","html-keyboard-response","560","795171","0.0-6.0-1.113","","<img src=""img/green-n.png"" border=""10"">","null","trial","32","","0.6,0.4","1:go_a","0",""
"null","","html-keyboard-response","561","796172","0.0-6.0-2.113","","<div style=""font-size:60px;"">+</div>","null","","","","","","",""
"null","","image-keyboard-response","562","797674","0.0-6.0-0.114","","img/yellow.png","null","trial","null","true","0.4,0.6","2:nogo_b","",""
"null","","html-keyboard-response","563","798677","0.0-6.0-1.114","","<img src=""img/yellow-r.png"">","null","trial","null","","0.4,0.6","2:nogo_b","1",""
"null","","html-keyboard-response","564","799678","0.0-6.0-2.114","","<div style=""font-size:60px;"">+</div>","null","","","","","","",""
"null","","image-keyboard-response","565","801179","0.0-6.0-0.115","","img/red.png","null","trial","32","false","0.6,0.4","3:go_c","",""
"null","","html-keyboard-response","566","802182","0.0-6.0-1.115","","<img src=""img/red-n.png"">","null","trial","32","","0.6,0.4","3:go_c","0",""
"null","","html-keyboard-response","567","803183","0.0-6.0-2.115","","<div style=""font-size:60px;"">+</div>","null","","","","","","",""
"null","","image-keyboard-response","568","804690","0.0-6.0-0.116","","img/yellow.png","null","trial","null","true","0.4,0.6","2:nogo_b","",""
"null","","html-keyboard-response","569","805693","0.0-6.0-1.116","","<img src=""img/yellow-n.png"">","null","trial","null","","0.4,0.6","2:nogo_b","0",""
"null","","html-keyboard-response","570","806695","0.0-6.0-2.116","","<div style=""font-size:60px;"">+</div>","null","","","","","","",""
"null","","image-keyboard-response","571","808197","0.0-6.0-0.117","","img/green.png","null","trial","32","false","0.6,0.4","1:go_a","",""
"null","","html-keyboard-response","572","809198","0.0-6.0-1.117","","<img src=""img/green-r.png"">","null","trial","32","","0.6,0.4","1:go_a","1",""
"null","","html-keyboard-response","573","810200","0.0-6.0-2.117","","<div style=""font-size:60px;"">+</div>","null","","","","","","",""
"699.8550002463162","","image-keyboard-response","574","810902","0.0-6.0-0.118","","img/orange.png","32","trial","null","false","0.4,0.6","4:nogo_d","",""
"null","","html-keyboard-response","575","811905","0.0-6.0-1.118","","<img src=""img/orange-n.png"" border=""10"">","null","trial","null","","0.4,0.6","4:nogo_d","0",""
"null","","html-keyboard-response","576","812906","0.0-6.0-2.118","","<div style=""font-size:60px;"">+</div>","null","","","","","","",""
"1262.5800003297627","","image-keyboard-response","577","814170","0.0-6.0-0.119","","img/red.png","32","trial","32","true","0.6,0.4","3:go_c","",""
"null","","html-keyboard-response","578","815172","0.0-6.0-1.119","","<img src=""img/red-r.png"" border=""10"">","null","trial","32","","0.6,0.4","3:go_c","1",""
"null","","html-keyboard-response","579","816173","0.0-6.0-2.119","","<div style=""font-size:60px;"">+</div>","null","","","","","","",""
"4977664.845000021","","instructions","580","5793839","0.0-7.0","[{""page_index"":0,""viewing_time"":4977663.77499979}]","","","","","","","","",""
"1321.6400002129376","","image-keyboard-response","581","5795165","0.0-8.0-0.0","","img/pink.png","32","trial","null","false","0.2,0.8","2:nogo_b","",""
"null","","html-keyboard-response","582","5796174","0.0-8.0-1.0","","<img src=""img/pink-n.png"" border=""10"">","null","trial","null","","0.2,0.8","2:nogo_b","0",""
"null","","html-keyboard-response","583","5797176","0.0-8.0-2.0","","<div style=""font-size:60px;"">+</div>","null","","","","","","",""
"null","","image-keyboard-response","584","5798677","0.0-8.0-0.1","","img/yellow.png","null","trial","32","false","0.6,0.4","3:go_c","",""
"null","","html-keyboard-response","585","5799684","0.0-8.0-1.1","","<img src=""img/yellow-n.png"">","null","trial","32","","0.6,0.4","3:go_c","0",""
"null","","html-keyboard-response","586","5800687","0.0-8.0-2.1","","<div style=""font-size:60px;"">+</div>","null","","","","","","",""
"662.4699998646975","","image-keyboard-response","587","5801352","0.0-8.0-0.2","","img/blue.png","32","trial","32","true","0.8,0.2","1:go_a","",""
"null","","html-keyboard-response","588","5802358","0.0-8.0-1.2","","<img src=""img/blue-r.png"" border=""10"">","null","trial","32","","0.8,0.2","1:go_a","1",""
"null","","html-keyboard-response","589","5803359","0.0-8.0-2.2","","<div style=""font-size:60px;"">+</div>","null","","","","","","",""
"546.8399999663234","","image-keyboard-response","590","5803907","0.0-8.0-0.3","","img/green.png","32","trial","null","false","0.4,0.6","4:nogo_d","",""
"null","","html-keyboard-response","591","5804909","0.0-8.0-1.3","","<img src=""img/green-n.png"" border=""10"">","null","trial","null","","0.4,0.6","4:nogo_d","0",""
"null","","html-keyboard-response","592","5805910","0.0-8.0-2.3","","<div style=""font-size:60px;"">+</div>","null","","","","","","",""
"null","","image-keyboard-response","593","5807412","0.0-8.0-0.4","","img/pink.png","null","trial","null","true","0.2,0.8","2:nogo_b","",""
"null","","html-keyboard-response","594","5808415","0.0-8.0-1.4","","<img src=""img/pink-n.png"">","null","trial","null","","0.2,0.8","2:nogo_b","0",""
"null","","html-keyboard-response","595","5809417","0.0-8.0-2.4","","<div style=""font-size:60px;"">+</div>","null","","","","","","",""
"610.4549998417497","","image-keyboard-response","596","5810029","0.0-8.0-0.5","","img/green.png","32","trial","null","false","0.4,0.6","4:nogo_d","",""
"null","","html-keyboard-response","597","5811031","0.0-8.0-1.5","","<img src=""img/green-r.png"" border=""10"">","null","trial","null","","0.4,0.6","4:nogo_d","1",""
"null","","html-keyboard-response","598","5812034","0.0-8.0-2.5","","<div style=""font-size:60px;"">+</div>","null","","","","","","",""
"703.1649998389184","","image-keyboard-response","599","5812738","0.0-8.0-0.6","","img/yellow.png","32","trial","32","true","0.6,0.4","3:go_c","",""
"null","","html-keyboard-response","600","5813741","0.0-8.0-1.6","","<img src=""img/yellow-r.png"" border=""10"">","null","trial","32","","0.6,0.4","3:go_c","1",""
"null","","html-keyboard-response","601","5814742","0.0-8.0-2.6","","<div style=""font-size:60px;"">+</div>","null","","","","","","",""
"677.4599999189377","","image-keyboard-response","602","5815421","0.0-8.0-0.7","","img/blue.png","32","trial","32","true","0.8,0.2","1:go_a","",""
"null","","html-keyboard-response","603","5816423","0.0-8.0-1.7","","<img src=""img/blue-r.png"" border=""10"">","null","trial","32","","0.8,0.2","1:go_a","1",""
"null","","html-keyboard-response","604","5817427","0.0-8.0-2.7","","<div style=""font-size:60px;"">+</div>","null","","","","","","",""
"1352.4949997663498","","image-keyboard-response","605","5818780","0.0-8.0-0.8","","img/pink.png","32","trial","null","false","0.2,0.8","2:nogo_b","",""
"null","","html-keyboard-response","606","5819785","0.0-8.0-1.8","","<img src=""img/pink-n.png"" border=""10"">","null","trial","null","","0.2,0.8","2:nogo_b","0",""
"null","","html-keyboard-response","607","5820786","0.0-8.0-2.8","","<div style=""font-size:60px;"">+</div>","null","","","","","","",""
"564.8650000803173","","image-keyboard-response","608","5821352","0.0-8.0-0.9","","img/green.png","32","trial","null","false","0.4,0.6","4:nogo_d","",""
"null","","html-keyboard-response","609","5822355","0.0-8.0-1.9","","<img src=""img/green-n.png"" border=""10"">","null","trial","null","","0.4,0.6","4:nogo_d","0",""
"null","","html-keyboard-response","610","5823356","0.0-8.0-2.9","","<div style=""font-size:60px;"">+</div>","null","","","","","","",""
"null","","image-keyboard-response","611","5824857","0.0-8.0-0.10","","img/blue.png","null","trial","32","false","0.8,0.2","1:go_a","",""
"null","","html-keyboard-response","612","5825860","0.0-8.0-1.10","","<img src=""img/blue-n.png"">","null","trial","32","","0.8,0.2","1:go_a","0",""
"null","","html-keyboard-response","613","5826861","0.0-8.0-2.10","","<div style=""font-size:60px;"">+</div>","null","","","","","","",""
"778.3699999563396","","image-keyboard-response","614","5827641","0.0-8.0-0.11","","img/yellow.png","32","trial","32","true","0.6,0.4","3:go_c","",""
"null","","html-keyboard-response","615","5828644","0.0-8.0-1.11","","<img src=""img/yellow-r.png"" border=""10"">","null","trial","32","","0.6,0.4","3:go_c","1",""
"null","","html-keyboard-response","616","5829645","0.0-8.0-2.11","","<div style=""font-size:60px;"">+</div>","null","","","","","","",""
"588.4949997998774","","image-keyboard-response","617","5830235","0.0-8.0-0.12","","img/blue.png","32","trial","32","true","0.8,0.2","1:go_a","",""
"null","","html-keyboard-response","618","5831238","0.0-8.0-1.12","","<img src=""img/blue-r.png"" border=""10"">","null","trial","32","","0.8,0.2","1:go_a","1",""
"null","","html-keyboard-response","619","5832239","0.0-8.0-2.12","","<div style=""font-size:60px;"">+</div>","null","","","","","","",""
"745.409999974072","","image-keyboard-response","620","5832985","0.0-8.0-0.13","","img/pink.png","32","trial","null","false","0.2,0.8","2:nogo_b","",""
"null","","html-keyboard-response","621","5833988","0.0-8.0-1.13","","<img src=""img/pink-n.png"" border=""10"">","null","trial","null","","0.2,0.8","2:nogo_b","0",""
"null","","html-keyboard-response","622","5834992","0.0-8.0-2.13","","<div style=""font-size:60px;"">+</div>","null","","","","","","",""
"null","","image-keyboard-response","623","5836493","0.0-8.0-0.14","","img/yellow.png","null","trial","32","false","0.6,0.4","3:go_c","",""
"null","","html-keyboard-response","624","5837495","0.0-8.0-1.14","","<img src=""img/yellow-n.png"">","null","trial","32","","0.6,0.4","3:go_c","0",""
"null","","html-keyboard-response","625","5838496","0.0-8.0-2.14","","<div style=""font-size:60px;"">+</div>","null","","","","","","",""
"null","","image-keyboard-response","626","5839997","0.0-8.0-0.15","","img/green.png","null","trial","null","true","0.4,0.6","4:nogo_d","",""
"null","","html-keyboard-response","627","5841001","0.0-8.0-1.15","","<img src=""img/green-r.png"">","null","trial","null","","0.4,0.6","4:nogo_d","1",""
"null","","html-keyboard-response","628","5842002","0.0-8.0-2.15","","<div style=""font-size:60px;"">+</div>","null","","","","","","",""
"null","","image-keyboard-response","629","5843504","0.0-8.0-0.16","","img/yellow.png","null","trial","32","false","0.6,0.4","3:go_c","",""
"null","","html-keyboard-response","630","5844506","0.0-8.0-1.16","","<img src=""img/yellow-r.png"">","null","trial","32","","0.6,0.4","3:go_c","1",""
"null","","html-keyboard-response","631","5845507","0.0-8.0-2.16","","<div style=""font-size:60px;"">+</div>","null","","","","","","",""
"512.7750001847744","","image-keyboard-response","632","5846021","0.0-8.0-0.17","","img/pink.png","32","trial","null","false","0.2,0.8","2:nogo_b","",""
"null","","html-keyboard-response","633","5847027","0.0-8.0-1.17","","<img src=""img/pink-r.png"" border=""10"">","null","trial","null","","0.2,0.8","2:nogo_b","1",""
"null","","html-keyboard-response","634","5848028","0.0-8.0-2.17","","<div style=""font-size:60px;"">+</div>","null","","","","","","",""
"922.3299999721348","","image-keyboard-response","635","5848954","0.0-8.0-0.18","","img/green.png","32","trial","null","false","0.4,0.6","4:nogo_d","",""
"null","","html-keyboard-response","636","5849958","0.0-8.0-1.18","","<img src=""img/green-r.png"" border=""10"">","null","trial","null","","0.4,0.6","4:nogo_d","1",""
"null","","html-keyboard-response","637","5850959","0.0-8.0-2.18","","<div style=""font-size:60px;"">+</div>","null","","","","","","",""
"839.7699999623001","","image-keyboard-response","638","5851800","0.0-8.0-0.19","","img/blue.png","32","trial","32","true","0.8,0.2","1:go_a","",""
"null","","html-keyboard-response","639","5852803","0.0-8.0-1.19","","<img src=""img/blue-r.png"" border=""10"">","null","trial","32","","0.8,0.2","1:go_a","1",""
"null","","html-keyboard-response","640","5853804","0.0-8.0-2.19","","<div style=""font-size:60px;"">+</div>","null","","","","","","",""
"1101.26500017941","","image-keyboard-response","641","5854908","0.0-8.0-0.20","","img/yellow.png","32","trial","32","true","0.6,0.4","3:go_c","",""
"null","","html-keyboard-response","642","5855912","0.0-8.0-1.20","","<img src=""img/yellow-r.png"" border=""10"">","null","trial","32","","0.6,0.4","3:go_c","1",""
"null","","html-keyboard-response","643","5856914","0.0-8.0-2.20","","<div style=""font-size:60px;"">+</div>","null","","","","","","",""
"null","","image-keyboard-response","644","5858417","0.0-8.0-0.21","","img/pink.png","null","trial","null","true","0.2,0.8","2:nogo_b","",""
"null","","html-keyboard-response","645","5859420","0.0-8.0-1.21","","<img src=""img/pink-r.png"">","null","trial","null","","0.2,0.8","2:nogo_b","1",""
"null","","html-keyboard-response","646","5860421","0.0-8.0-2.21","","<div style=""font-size:60px;"">+</div>","null","","","","","","",""
"null","","image-keyboard-response","647","5861923","0.0-8.0-0.22","","img/green.png","null","trial","null","true","0.4,0.6","4:nogo_d","",""
"null","","html-keyboard-response","648","5862925","0.0-8.0-1.22","","<img src=""img/green-n.png"">","null","trial","null","","0.4,0.6","4:nogo_d","0",""
"null","","html-keyboard-response","649","5863926","0.0-8.0-2.22","","<div style=""font-size:60px;"">+</div>","null","","","","","","",""
"null","","image-keyboard-response","650","5865428","0.0-8.0-0.23","","img/blue.png","null","trial","32","false","0.8,0.2","1:go_a","",""
"null","","html-keyboard-response","651","5866430","0.0-8.0-1.23","","<img src=""img/blue-n.png"">","null","trial","32","","0.8,0.2","1:go_a","0",""
"null","","html-keyboard-response","652","5867431","0.0-8.0-2.23","","<div style=""font-size:60px;"">+</div>","null","","","","","","",""
"null","","image-keyboard-response","653","5868933","0.0-8.0-0.24","","img/yellow.png","null","trial","32","false","0.6,0.4","3:go_c","",""
"null","","html-keyboard-response","654","5869935","0.0-8.0-1.24","","<img src=""img/yellow-n.png"">","null","trial","32","","0.6,0.4","3:go_c","0",""
"null","","html-keyboard-response","655","5870938","0.0-8.0-2.24","","<div style=""font-size:60px;"">+</div>","null","","","","","","",""
"null","","image-keyboard-response","656","5872439","0.0-8.0-0.25","","img/green.png","null","trial","null","true","0.4,0.6","4:nogo_d","",""
"null","","html-keyboard-response","657","5873442","0.0-8.0-1.25","","<img src=""img/green-r.png"">","null","trial","null","","0.4,0.6","4:nogo_d","1",""
"null","","html-keyboard-response","658","5874444","0.0-8.0-2.25","","<div style=""font-size:60px;"">+</div>","null","","","","","","",""
"877.295000012964","","image-keyboard-response","659","5875322","0.0-8.0-0.26","","img/blue.png","32","trial","32","true","0.8,0.2","1:go_a","",""
"null","","html-keyboard-response","660","5876325","0.0-8.0-1.26","","<img src=""img/blue-r.png"" border=""10"">","null","trial","32","","0.8,0.2","1:go_a","1",""
"null","","html-keyboard-response","661","5877326","0.0-8.0-2.26","","<div style=""font-size:60px;"">+</div>","null","","","","","","",""
"null","","image-keyboard-response","662","5878828","0.0-8.0-0.27","","img/pink.png","null","trial","null","true","0.2,0.8","2:nogo_b","",""
"null","","html-keyboard-response","663","5879830","0.0-8.0-1.27","","<img src=""img/pink-r.png"">","null","trial","null","","0.2,0.8","2:nogo_b","1",""
"null","","html-keyboard-response","664","5880831","0.0-8.0-2.27","","<div style=""font-size:60px;"">+</div>","null","","","","","","",""
"null","","image-keyboard-response","665","5882333","0.0-8.0-0.28","","img/pink.png","null","trial","null","true","0.2,0.8","2:nogo_b","",""
"null","","html-keyboard-response","666","5883335","0.0-8.0-1.28","","<img src=""img/pink-r.png"">","null","trial","null","","0.2,0.8","2:nogo_b","1",""
"null","","html-keyboard-response","667","5884336","0.0-8.0-2.28","","<div style=""font-size:60px;"">+</div>","null","","","","","","",""
"1169.5099999196827","","image-keyboard-response","668","5885507","0.0-8.0-0.29","","img/green.png","32","trial","null","false","0.4,0.6","4:nogo_d","",""
"null","","html-keyboard-response","669","5886509","0.0-8.0-1.29","","<img src=""img/green-n.png"" border=""10"">","null","trial","null","","0.4,0.6","4:nogo_d","0",""
"null","","html-keyboard-response","670","5887510","0.0-8.0-2.29","","<div style=""font-size:60px;"">+</div>","null","","","","","","",""
"null","","image-keyboard-response","671","5889012","0.0-8.0-0.30","","img/yellow.png","null","trial","32","false","0.6,0.4","3:go_c","",""
"null","","html-keyboard-response","672","5890015","0.0-8.0-1.30","","<img src=""img/yellow-r.png"">","null","trial","32","","0.6,0.4","3:go_c","1",""
"null","","html-keyboard-response","673","5891017","0.0-8.0-2.30","","<div style=""font-size:60px;"">+</div>","null","","","","","","",""
"1028.3200000412762","","image-keyboard-response","674","5892046","0.0-8.0-0.31","","img/blue.png","32","trial","32","true","0.8,0.2","1:go_a","",""
"null","","html-keyboard-response","675","5893049","0.0-8.0-1.31","","<img src=""img/blue-r.png"" border=""10"">","null","trial","32","","0.8,0.2","1:go_a","1",""
"null","","html-keyboard-response","676","5894050","0.0-8.0-2.31","","<div style=""font-size:60px;"">+</div>","null","","","","","","",""
"null","","image-keyboard-response","677","5895551","0.0-8.0-0.32","","img/blue.png","null","trial","32","false","0.8,0.2","1:go_a","",""
"null","","html-keyboard-response","678","5896554","0.0-8.0-1.32","","<img src=""img/blue-n.png"">","null","trial","32","","0.8,0.2","1:go_a","0",""
