"rt","url","trial_type","trial_index","time_elapsed","internal_node_id","view_history","stimulus","key_press","test_part","correct_response","correct","use_rew","which_stim","reward","responses"
"72264.54500015825","consent.html","external-html","0","72358","0.0-0.0","","","","","","","","","",""
"54544.469999847934","","instructions","1","126903","0.0-1.0","[{""page_index"":0,""viewing_time"":2974.0649999585003},{""page_index"":1,""viewing_time"":12156.179999932647},{""page_index"":2,""viewing_time"":4594.689999939874},{""page_index"":3,""viewing_time"":17992.860000114888},{""page_index"":4,""viewing_time"":7500.840000109747},{""page_index"":5,""viewing_time"":4556.679999921471},{""page_index"":6,""viewing_time"":4768.449999857694}]","","","","","","","","",""
"847.6249999366701","","image-keyboard-response","2","127752","0.0-2.0-0.0","","img/test2.PNG","32","practice","null","false","","","",""
"null","","html-keyboard-response","3","128759","0.0-2.0-1.0","","<img src=""img/test2-neutral.PNG"" border=""10px; grey"">","null","","","","","","",""
"null","","html-keyboard-response","4","129764","0.0-2.0-2.0","","<div style=""font-size:60px;"">+</div>","null","","","","","","",""
"1074.849999975413","","image-keyboard-response","5","130840","0.0-2.0-0.1","","img/test3.PNG","32","practice","null","false","","","",""
"null","","html-keyboard-response","6","131852","0.0-2.0-1.1","","<img src=""img/test3-neutral.PNG"" border=""10px; grey"">","null","","","","","","",""
"null","","html-keyboard-response","7","132859","0.0-2.0-2.1","","<div style=""font-size:60px;"">+</div>","null","","","","","","",""
"940.9449999220669","","image-keyboard-response","8","133801","0.0-2.0-0.2","","img/test1.PNG","32","practice","32","true","","","",""
"null","","html-keyboard-response","9","134812","0.0-2.0-1.2","","<img src=""img/test1-reward.PNG"" border=""10px; grey"">","null","","","","","","",""
"null","","html-keyboard-response","10","135818","0.0-2.0-2.2","","<div style=""font-size:60px;"">+</div>","null","","","","","","",""
"820.9400000050664","","image-keyboard-response","11","136640","0.0-2.0-0.3","","img/test2.PNG","32","practice","null","false","","","",""
"null","","html-keyboard-response","12","137647","0.0-2.0-1.3","","<img src=""img/test2-neutral.PNG"" border=""10px; grey"">","null","","","","","","",""
"null","","html-keyboard-response","13","138653","0.0-2.0-2.3","","<div style=""font-size:60px;"">+</div>","null","","","","","","",""
"1266.8399999383837","","image-keyboard-response","14","139921","0.0-2.0-0.4","","img/test3.PNG","32","practice","null","false","","","",""
"null","","html-keyboard-response","15","140928","0.0-2.0-1.4","","<img src=""img/test3-neutral.PNG"" border=""10px; grey"">","null","","","","","","",""
"null","","html-keyboard-response","16","141935","0.0-2.0-2.4","","<div style=""font-size:60px;"">+</div>","null","","","","","","",""
"617.2700000461191","","image-keyboard-response","17","142553","0.0-2.0-0.5","","img/test1.PNG","32","practice","32","true","","","",""
"null","","html-keyboard-response","18","143561","0.0-2.0-1.5","","<img src=""img/test1-reward.PNG"" border=""10px; grey"">","null","","","","","","",""
"null","","html-keyboard-response","19","144569","0.0-2.0-2.5","","<div style=""font-size:60px;"">+</div>","null","","","","","","",""
"688.0049998871982","","image-keyboard-response","20","145258","0.0-2.0-0.6","","img/test1.PNG","32","practice","32","true","","","",""
"null","","html-keyboard-response","21","146270","0.0-2.0-1.6","","<img src=""img/test1-reward.PNG"" border=""10px; grey"">","null","","","","","","",""
"null","","html-keyboard-response","22","147276","0.0-2.0-2.6","","<div style=""font-size:60px;"">+</div>","null","","","","","","",""
"null","","image-keyboard-response","23","148792","0.0-2.0-0.7","","img/test3.PNG","null","practice","null","true","","","",""
"null","","html-keyboard-response","24","149799","0.0-2.0-1.7","","<img src=""img/test3-reward.PNG"">","null","","","","","","",""
"null","","html-keyboard-response","25","150806","0.0-2.0-2.7","","<div style=""font-size:60px;"">+</div>","null","","","","","","",""
"1059.3799999915063","","image-keyboard-response","26","151866","0.0-2.0-0.8","","img/test2.PNG","32","practice","null","false","","","",""
"null","","html-keyboard-response","27","152883","0.0-2.0-1.8","","<img src=""img/test2-neutral.PNG"" border=""10px; grey"">","null","","","","","","",""
"null","","html-keyboard-response","28","153889","0.0-2.0-2.8","","<div style=""font-size:60px;"">+</div>","null","","","","","","",""
"null","","image-keyboard-response","29","155403","0.0-2.0-0.9","","img/test3.PNG","null","practice","null","true","","","",""
"null","","html-keyboard-response","30","156408","0.0-2.0-1.9","","<img src=""img/test3-reward.PNG"">","null","","","","","","",""
"null","","html-keyboard-response","31","157415","0.0-2.0-2.9","","<div style=""font-size:60px;"">+</div>","null","","","","","","",""
"770.5800000112504","","image-keyboard-response","32","158187","0.0-2.0-0.10","","img/test1.PNG","32","practice","32","true","","","",""
"null","","html-keyboard-response","33","159196","0.0-2.0-1.10","","<img src=""img/test1-reward.PNG"" border=""10px; grey"">","null","","","","","","",""
"null","","html-keyboard-response","34","160203","0.0-2.0-2.10","","<div style=""font-size:60px;"">+</div>","null","","","","","","",""
"null","","image-keyboard-response","35","161704","0.0-2.0-0.11","","img/test2.PNG","null","practice","null","true","","","",""
"null","","html-keyboard-response","36","162705","0.0-2.0-1.11","","<img src=""img/test2-reward.PNG"">","null","","","","","","",""
"null","","html-keyboard-response","37","163716","0.0-2.0-2.11","","<div style=""font-size:60px;"">+</div>","null","","","","","","",""
"2500.8850002195686","","instructions","38","166217","0.0-3.0","[{""page_index"":0,""viewing_time"":2500.675000017509}]","","","","","","","","",""
"785.9050000552088","","image-keyboard-response","39","167004","0.0-4.0-0.0","","img/pink.png","32","trial","null","false","0.2,0.8","nogo_b","",""
"null","","html-keyboard-response","40","168017","0.0-4.0-1.0","","<img src=""img/pink-n.png"" border=""10"">","null","trial","null","","0.2,0.8","nogo_b","0",""
"null","","html-keyboard-response","41","169024","0.0-4.0-2.0","","<div style=""font-size:60px;"">+</div>","null","","","","","","",""
"708.464999916032","","image-keyboard-response","42","169733","0.0-4.0-0.1","","img/orange.png","32","trial","32","true","0.8,0.2","go_a","",""
"null","","html-keyboard-response","43","170741","0.0-4.0-1.1","","<img src=""img/orange-r.png"" border=""10"">","null","trial","32","","0.8,0.2","go_a","1",""
"null","","html-keyboard-response","44","171747","0.0-4.0-2.1","","<div style=""font-size:60px;"">+</div>","null","","","","","","",""
"null","","image-keyboard-response","45","173262","0.0-4.0-0.2","","img/pink.png","null","trial","null","true","0.2,0.8","nogo_b","",""
"null","","html-keyboard-response","46","174264","0.0-4.0-1.2","","<img src=""img/pink-r.png"">","null","trial","null","","0.2,0.8","nogo_b","1",""
"null","","html-keyboard-response","47","175275","0.0-4.0-2.2","","<div style=""font-size:60px;"">+</div>","null","","","","","","",""
"729.4199999887496","","image-keyboard-response","48","176005","0.0-4.0-0.3","","img/orange.png","32","trial","32","true","0.8,0.2","go_a","",""
"null","","html-keyboard-response","49","177008","0.0-4.0-1.3","","<img src=""img/orange-r.png"" border=""10"">","null","trial","32","","0.8,0.2","go_a","1",""
"null","","html-keyboard-response","50","178014","0.0-4.0-2.3","","<div style=""font-size:60px;"">+</div>","null","","","","","","",""
"670.3099999576807","","image-keyboard-response","51","178686","0.0-4.0-0.4","","img/orange.png","32","trial","32","true","0.8,0.2","go_a","",""
"null","","html-keyboard-response","52","179701","0.0-4.0-1.4","","<img src=""img/orange-n.png"" border=""10"">","null","trial","32","","0.8,0.2","go_a","0",""
"null","","html-keyboard-response","53","180705","0.0-4.0-2.4","","<div style=""font-size:60px;"">+</div>","null","","","","","","",""
"null","","image-keyboard-response","54","182221","0.0-4.0-0.5","","img/pink.png","null","trial","null","true","0.2,0.8","nogo_b","",""
"null","","html-keyboard-response","55","183228","0.0-4.0-1.5","","<img src=""img/pink-n.png"">","null","trial","null","","0.2,0.8","nogo_b","0",""
"null","","html-keyboard-response","56","184235","0.0-4.0-2.5","","<div style=""font-size:60px;"">+</div>","null","","","","","","",""
"682.5149999931455","","image-keyboard-response","57","184918","0.0-4.0-0.6","","img/orange.png","32","trial","32","true","0.8,0.2","go_a","",""
"null","","html-keyboard-response","58","185922","0.0-4.0-1.6","","<img src=""img/orange-r.png"" border=""10"">","null","trial","32","","0.8,0.2","go_a","1",""
"null","","html-keyboard-response","59","186929","0.0-4.0-2.6","","<div style=""font-size:60px;"">+</div>","null","","","","","","",""
"null","","image-keyboard-response","60","188433","0.0-4.0-0.7","","img/pink.png","null","trial","null","true","0.2,0.8","nogo_b","",""
"null","","html-keyboard-response","61","189437","0.0-4.0-1.7","","<img src=""img/pink-n.png"">","null","trial","null","","0.2,0.8","nogo_b","0",""
"null","","html-keyboard-response","62","190438","0.0-4.0-2.7","","<div style=""font-size:60px;"">+</div>","null","","","","","","",""
"504.2449999600649","","image-keyboard-response","63","190943","0.0-4.0-0.8","","img/orange.png","32","trial","32","true","0.8,0.2","go_a","",""
"null","","html-keyboard-response","64","191945","0.0-4.0-1.8","","<img src=""img/orange-n.png"" border=""10"">","null","trial","32","","0.8,0.2","go_a","0",""
"null","","html-keyboard-response","65","192949","0.0-4.0-2.8","","<div style=""font-size:60px;"">+</div>","null","","","","","","",""
"null","","image-keyboard-response","66","194464","0.0-4.0-0.9","","img/pink.png","null","trial","null","true","0.2,0.8","nogo_b","",""
"null","","html-keyboard-response","67","195469","0.0-4.0-1.9","","<img src=""img/pink-r.png"">","null","trial","null","","0.2,0.8","nogo_b","1",""
"null","","html-keyboard-response","68","196475","0.0-4.0-2.9","","<div style=""font-size:60px;"">+</div>","null","","","","","","",""
"null","","image-keyboard-response","69","197990","0.0-4.0-0.10","","img/pink.png","null","trial","null","true","0.2,0.8","nogo_b","",""
"null","","html-keyboard-response","70","198995","0.0-4.0-1.10","","<img src=""img/pink-r.png"">","null","trial","null","","0.2,0.8","nogo_b","1",""
"null","","html-keyboard-response","71","200002","0.0-4.0-2.10","","<div style=""font-size:60px;"">+</div>","null","","","","","","",""
"590.0099999271333","","image-keyboard-response","72","200592","0.0-4.0-0.11","","img/orange.png","32","trial","32","true","0.8,0.2","go_a","",""
"null","","html-keyboard-response","73","201598","0.0-4.0-1.11","","<img src=""img/orange-r.png"" border=""10"">","null","trial","32","","0.8,0.2","go_a","1",""
"null","","html-keyboard-response","74","202603","0.0-4.0-2.11","","<div style=""font-size:60px;"">+</div>","null","","","","","","",""
"588.2200000341982","","image-keyboard-response","75","203192","0.0-4.0-0.12","","img/orange.png","32","trial","32","true","0.8,0.2","go_a","",""
"null","","html-keyboard-response","76","204198","0.0-4.0-1.12","","<img src=""img/orange-r.png"" border=""10"">","null","trial","32","","0.8,0.2","go_a","1",""
"null","","html-keyboard-response","77","205204","0.0-4.0-2.12","","<div style=""font-size:60px;"">+</div>","null","","","","","","",""
"null","","image-keyboard-response","78","206719","0.0-4.0-0.13","","img/pink.png","null","trial","null","true","0.2,0.8","nogo_b","",""
"null","","html-keyboard-response","79","207725","0.0-4.0-1.13","","<img src=""img/pink-r.png"">","null","trial","null","","0.2,0.8","nogo_b","1",""
"null","","html-keyboard-response","80","208732","0.0-4.0-2.13","","<div style=""font-size:60px;"">+</div>","null","","","","","","",""
"null","","image-keyboard-response","81","210235","0.0-4.0-0.14","","img/pink.png","null","trial","null","true","0.2,0.8","nogo_b","",""
"null","","html-keyboard-response","82","211242","0.0-4.0-1.14","","<img src=""img/pink-r.png"">","null","trial","null","","0.2,0.8","nogo_b","1",""
"null","","html-keyboard-response","83","212249","0.0-4.0-2.14","","<div style=""font-size:60px;"">+</div>","null","","","","","","",""
"607.6050000265241","","image-keyboard-response","84","212857","0.0-4.0-0.15","","img/orange.png","32","trial","32","true","0.8,0.2","go_a","",""
"null","","html-keyboard-response","85","213859","0.0-4.0-1.15","","<img src=""img/orange-r.png"" border=""10"">","null","trial","32","","0.8,0.2","go_a","1",""
"null","","html-keyboard-response","86","214865","0.0-4.0-2.15","","<div style=""font-size:60px;"">+</div>","null","","","","","","",""
"584.3599999789149","","image-keyboard-response","87","215450","0.0-4.0-0.16","","img/orange.png","32","trial","32","true","0.8,0.2","go_a","",""
"null","","html-keyboard-response","88","216458","0.0-4.0-1.16","","<img src=""img/orange-n.png"" border=""10"">","null","trial","32","","0.8,0.2","go_a","0",""
"null","","html-keyboard-response","89","217464","0.0-4.0-2.16","","<div style=""font-size:60px;"">+</div>","null","","","","","","",""
"null","","image-keyboard-response","90","218965","0.0-4.0-0.17","","img/pink.png","null","trial","null","true","0.2,0.8","nogo_b","",""
"null","","html-keyboard-response","91","219972","0.0-4.0-1.17","","<img src=""img/pink-n.png"">","null","trial","null","","0.2,0.8","nogo_b","0",""
"null","","html-keyboard-response","92","220973","0.0-4.0-2.17","","<div style=""font-size:60px;"">+</div>","null","","","","","","",""
"null","","image-keyboard-response","93","222481","0.0-4.0-0.18","","img/pink.png","null","trial","null","true","0.2,0.8","nogo_b","",""
"null","","html-keyboard-response","94","223488","0.0-4.0-1.18","","<img src=""img/pink-r.png"">","null","trial","null","","0.2,0.8","nogo_b","1",""
"null","","html-keyboard-response","95","224493","0.0-4.0-2.18","","<div style=""font-size:60px;"">+</div>","null","","","","","","",""
"653.8300001993775","","image-keyboard-response","96","225148","0.0-4.0-0.19","","img/orange.png","32","trial","32","true","0.8,0.2","go_a","",""
"null","","html-keyboard-response","97","226150","0.0-4.0-1.19","","<img src=""img/orange-r.png"" border=""10"">","null","trial","32","","0.8,0.2","go_a","1",""
"null","","html-keyboard-response","98","227157","0.0-4.0-2.19","","<div style=""font-size:60px;"">+</div>","null","","","","","","",""
"null","","image-keyboard-response","99","228673","0.0-4.0-0.20","","img/pink.png","null","trial","null","true","0.2,0.8","nogo_b","",""
"null","","html-keyboard-response","100","229680","0.0-4.0-1.20","","<img src=""img/pink-r.png"">","null","trial","null","","0.2,0.8","nogo_b","1",""
"null","","html-keyboard-response","101","230685","0.0-4.0-2.20","","<div style=""font-size:60px;"">+</div>","null","","","","","","",""
"734.1450001113117","","image-keyboard-response","102","231419","0.0-4.0-0.21","","img/orange.png","32","trial","32","true","0.8,0.2","go_a","",""
"null","","html-keyboard-response","103","232431","0.0-4.0-1.21","","<img src=""img/orange-r.png"" border=""10"">","null","trial","32","","0.8,0.2","go_a","1",""
"null","","html-keyboard-response","104","233436","0.0-4.0-2.21","","<div style=""font-size:60px;"">+</div>","null","","","","","","",""
"null","","image-keyboard-response","105","234938","0.0-4.0-0.22","","img/orange.png","null","trial","32","false","0.8,0.2","go_a","",""
"null","","html-keyboard-response","106","235945","0.0-4.0-1.22","","<img src=""img/orange-n.png"">","null","trial","32","","0.8,0.2","go_a","0",""
"null","","html-keyboard-response","107","236950","0.0-4.0-2.22","","<div style=""font-size:60px;"">+</div>","null","","","","","","",""
"null","","image-keyboard-response","108","238453","0.0-4.0-0.23","","img/pink.png","null","trial","null","true","0.2,0.8","nogo_b","",""
"null","","html-keyboard-response","109","239460","0.0-4.0-1.23","","<img src=""img/pink-r.png"">","null","trial","null","","0.2,0.8","nogo_b","1",""
"null","","html-keyboard-response","110","240467","0.0-4.0-2.23","","<div style=""font-size:60px;"">+</div>","null","","","","","","",""
"null","","image-keyboard-response","111","241982","0.0-4.0-0.24","","img/pink.png","null","trial","null","true","0.2,0.8","nogo_b","",""
"null","","html-keyboard-response","112","242988","0.0-4.0-1.24","","<img src=""img/pink-r.png"">","null","trial","null","","0.2,0.8","nogo_b","1",""
"null","","html-keyboard-response","113","243995","0.0-4.0-2.24","","<div style=""font-size:60px;"">+</div>","null","","","","","","",""
"529.310000129044","","image-keyboard-response","114","244525","0.0-4.0-0.25","","img/orange.png","32","trial","32","true","0.8,0.2","go_a","",""
"null","","html-keyboard-response","115","245528","0.0-4.0-1.25","","<img src=""img/orange-r.png"" border=""10"">","null","trial","32","","0.8,0.2","go_a","1",""
"null","","html-keyboard-response","116","246535","0.0-4.0-2.25","","<div style=""font-size:60px;"">+</div>","null","","","","","","",""
"null","","image-keyboard-response","117","248037","0.0-4.0-0.26","","img/pink.png","null","trial","null","true","0.2,0.8","nogo_b","",""
"null","","html-keyboard-response","118","249042","0.0-4.0-1.26","","<img src=""img/pink-r.png"">","null","trial","null","","0.2,0.8","nogo_b","1",""
"null","","html-keyboard-response","119","250048","0.0-4.0-2.26","","<div style=""font-size:60px;"">+</div>","null","","","","","","",""
"437.15999997220933","","image-keyboard-response","120","250486","0.0-4.0-0.27","","img/orange.png","32","trial","32","true","0.8,0.2","go_a","",""
"null","","html-keyboard-response","121","251501","0.0-4.0-1.27","","<img src=""img/orange-r.png"" border=""10"">","null","trial","32","","0.8,0.2","go_a","1",""
"null","","html-keyboard-response","122","252508","0.0-4.0-2.27","","<div style=""font-size:60px;"">+</div>","null","","","","","","",""
"433.68500005453825","","image-keyboard-response","123","252943","0.0-4.0-0.28","","img/orange.png","32","trial","32","true","0.8,0.2","go_a","",""
"null","","html-keyboard-response","124","253947","0.0-4.0-1.28","","<img src=""img/orange-n.png"" border=""10"">","null","trial","32","","0.8,0.2","go_a","0",""
"null","","html-keyboard-response","125","254955","0.0-4.0-2.28","","<div style=""font-size:60px;"">+</div>","null","","","","","","",""
"null","","image-keyboard-response","126","256457","0.0-4.0-0.29","","img/pink.png","null","trial","null","true","0.2,0.8","nogo_b","",""
"null","","html-keyboard-response","127","257464","0.0-4.0-1.29","","<img src=""img/pink-r.png"">","null","trial","null","","0.2,0.8","nogo_b","1",""
"null","","html-keyboard-response","128","258468","0.0-4.0-2.29","","<div style=""font-size:60px;"">+</div>","null","","","","","","",""
"553.7349998485297","","image-keyboard-response","129","259023","0.0-4.0-0.30","","img/orange.png","32","trial","32","true","0.8,0.2","go_a","",""
"null","","html-keyboard-response","130","260033","0.0-4.0-1.30","","<img src=""img/orange-r.png"" border=""10"">","null","trial","32","","0.8,0.2","go_a","1",""
"null","","html-keyboard-response","131","261039","0.0-4.0-2.30","","<div style=""font-size:60px;"">+</div>","null","","","","","","",""
"null","","image-keyboard-response","132","262541","0.0-4.0-0.31","","img/pink.png","null","trial","null","true","0.2,0.8","nogo_b","",""
"null","","html-keyboard-response","133","263547","0.0-4.0-1.31","","<img src=""img/pink-r.png"">","null","trial","null","","0.2,0.8","nogo_b","1",""
"null","","html-keyboard-response","134","264548","0.0-4.0-2.31","","<div style=""font-size:60px;"">+</div>","null","","","","","","",""
"378.3050000201911","","image-keyboard-response","135","264927","0.0-4.0-0.32","","img/orange.png","32","trial","32","true","0.8,0.2","go_a","",""
"null","","html-keyboard-response","136","265931","0.0-4.0-1.32","","<img src=""img/orange-r.png"" border=""10"">","null","trial","32","","0.8,0.2","go_a","1",""
"null","","html-keyboard-response","137","266936","0.0-4.0-2.32","","<div style=""font-size:60px;"">+</div>","null","","","","","","",""
"null","","image-keyboard-response","138","268438","0.0-4.0-0.33","","img/pink.png","null","trial","null","true","0.2,0.8","nogo_b","",""
"null","","html-keyboard-response","139","269446","0.0-4.0-1.33","","<img src=""img/pink-r.png"">","null","trial","null","","0.2,0.8","nogo_b","1",""
"null","","html-keyboard-response","140","270451","0.0-4.0-2.33","","<div style=""font-size:60px;"">+</div>","null","","","","","","",""
"null","","image-keyboard-response","141","271968","0.0-4.0-0.34","","img/pink.png","null","trial","null","true","0.2,0.8","nogo_b","",""
"null","","html-keyboard-response","142","272969","0.0-4.0-1.34","","<img src=""img/pink-r.png"">","null","trial","null","","0.2,0.8","nogo_b","1",""
"null","","html-keyboard-response","143","273982","0.0-4.0-2.34","","<div style=""font-size:60px;"">+</div>","null","","","","","","",""
"393.65499978885055","","image-keyboard-response","144","274377","0.0-4.0-0.35","","img/orange.png","32","trial","32","true","0.8,0.2","go_a","",""
"null","","html-keyboard-response","145","275390","0.0-4.0-1.35","","<img src=""img/orange-r.png"" border=""10"">","null","trial","32","","0.8,0.2","go_a","1",""
"null","","html-keyboard-response","146","276395","0.0-4.0-2.35","","<div style=""font-size:60px;"">+</div>","null","","","","","","",""
"389.2699999269098","","image-keyboard-response","147","276785","0.0-4.0-0.36","","img/orange.png","32","trial","32","true","0.8,0.2","go_a","",""
"null","","html-keyboard-response","148","277789","0.0-4.0-1.36","","<img src=""img/orange-r.png"" border=""10"">","null","trial","32","","0.8,0.2","go_a","1",""
"null","","html-keyboard-response","149","278796","0.0-4.0-2.36","","<div style=""font-size:60px;"">+</div>","null","","","","","","",""
"null","","image-keyboard-response","150","280313","0.0-4.0-0.37","","img/pink.png","null","trial","null","true","0.2,0.8","nogo_b","",""
"null","","html-keyboard-response","151","281314","0.0-4.0-1.37","","<img src=""img/pink-r.png"">","null","trial","null","","0.2,0.8","nogo_b","1",""
"null","","html-keyboard-response","152","282326","0.0-4.0-2.37","","<div style=""font-size:60px;"">+</div>","null","","","","","","",""
"354.99000013805926","","image-keyboard-response","153","282682","0.0-4.0-0.38","","img/orange.png","32","trial","32","true","0.8,0.2","go_a","",""
"null","","html-keyboard-response","154","283689","0.0-4.0-1.38","","<img src=""img/orange-r.png"" border=""10"">","null","trial","32","","0.8,0.2","go_a","1",""
"null","","html-keyboard-response","155","284691","0.0-4.0-2.38","","<div style=""font-size:60px;"">+</div>","null","","","","","","",""
"null","","image-keyboard-response","156","286193","0.0-4.0-0.39","","img/pink.png","null","trial","null","true","0.2,0.8","nogo_b","",""
"null","","html-keyboard-response","157","287200","0.0-4.0-1.39","","<img src=""img/pink-r.png"">","null","trial","null","","0.2,0.8","nogo_b","1",""
"null","","html-keyboard-response","158","288206","0.0-4.0-2.39","","<div style=""font-size:60px;"">+</div>","null","","","","","","",""
"419.8650000616908","","image-keyboard-response","159","288626","0.0-4.0-0.40","","img/orange.png","32","trial","32","true","0.8,0.2","go_a","",""
"null","","html-keyboard-response","160","289630","0.0-4.0-1.40","","<img src=""img/orange-n.png"" border=""10"">","null","trial","32","","0.8,0.2","go_a","0",""
"null","","html-keyboard-response","161","290637","0.0-4.0-2.40","","<div style=""font-size:60px;"">+</div>","null","","","","","","",""
"null","","image-keyboard-response","162","292139","0.0-4.0-0.41","","img/pink.png","null","trial","null","true","0.2,0.8","nogo_b","",""
"null","","html-keyboard-response","163","293142","0.0-4.0-1.41","","<img src=""img/pink-r.png"">","null","trial","null","","0.2,0.8","nogo_b","1",""
"null","","html-keyboard-response","164","294147","0.0-4.0-2.41","","<div style=""font-size:60px;"">+</div>","null","","","","","","",""
"null","","image-keyboard-response","165","295649","0.0-4.0-0.42","","img/pink.png","null","trial","null","true","0.2,0.8","nogo_b","",""
"null","","html-keyboard-response","166","296650","0.0-4.0-1.42","","<img src=""img/pink-r.png"">","null","trial","null","","0.2,0.8","nogo_b","1",""
"null","","html-keyboard-response","167","297660","0.0-4.0-2.42","","<div style=""font-size:60px;"">+</div>","null","","","","","","",""
"351.0199999436736","","image-keyboard-response","168","298012","0.0-4.0-0.43","","img/orange.png","32","trial","32","true","0.8,0.2","go_a","",""
"null","","html-keyboard-response","169","299023","0.0-4.0-1.43","","<img src=""img/orange-r.png"" border=""10"">","null","trial","32","","0.8,0.2","go_a","1",""
"null","","html-keyboard-response","170","300028","0.0-4.0-2.43","","<div style=""font-size:60px;"">+</div>","null","","","","","","",""
"502.3700001183897","","image-keyboard-response","171","300532","0.0-4.0-0.44","","img/orange.png","32","trial","32","true","0.8,0.2","go_a","",""
"null","","html-keyboard-response","172","301545","0.0-4.0-1.44","","<img src=""img/orange-r.png"" border=""10"">","null","trial","32","","0.8,0.2","go_a","1",""
"null","","html-keyboard-response","173","302551","0.0-4.0-2.44","","<div style=""font-size:60px;"">+</div>","null","","","","","","",""
"null","","image-keyboard-response","174","304067","0.0-4.0-0.45","","img/pink.png","null","trial","null","true","0.2,0.8","nogo_b","",""
"null","","html-keyboard-response","175","305072","0.0-4.0-1.45","","<img src=""img/pink-r.png"">","null","trial","null","","0.2,0.8","nogo_b","1",""
"null","","html-keyboard-response","176","306078","0.0-4.0-2.45","","<div style=""font-size:60px;"">+</div>","null","","","","","","",""
"653.0750000383705","","image-keyboard-response","177","306732","0.0-4.0-0.46","","img/orange.png","32","trial","32","true","0.8,0.2","go_a","",""
"null","","html-keyboard-response","178","307735","0.0-4.0-1.46","","<img src=""img/orange-r.png"" border=""10"">","null","trial","32","","0.8,0.2","go_a","1",""
"null","","html-keyboard-response","179","308742","0.0-4.0-2.46","","<div style=""font-size:60px;"">+</div>","null","","","","","","",""
"null","","image-keyboard-response","180","310254","0.0-4.0-0.47","","img/pink.png","null","trial","null","true","0.2,0.8","nogo_b","",""
"null","","html-keyboard-response","181","311255","0.0-4.0-1.47","","<img src=""img/pink-n.png"">","null","trial","null","","0.2,0.8","nogo_b","0",""
"null","","html-keyboard-response","182","312267","0.0-4.0-2.47","","<div style=""font-size:60px;"">+</div>","null","","","","","","",""
"null","","image-keyboard-response","183","313782","0.0-4.0-0.48","","img/pink.png","null","trial","null","true","0.2,0.8","nogo_b","",""
"null","","html-keyboard-response","184","314788","0.0-4.0-1.48","","<img src=""img/pink-r.png"">","null","trial","null","","0.2,0.8","nogo_b","1",""
"null","","html-keyboard-response","185","315795","0.0-4.0-2.48","","<div style=""font-size:60px;"">+</div>","null","","","","","","",""
"577.6850001420826","","image-keyboard-response","186","316373","0.0-4.0-0.49","","img/orange.png","32","trial","32","true","0.8,0.2","go_a","",""
"null","","html-keyboard-response","187","317375","0.0-4.0-1.49","","<img src=""img/orange-r.png"" border=""10"">","null","trial","32","","0.8,0.2","go_a","1",""
"null","","html-keyboard-response","188","318380","0.0-4.0-2.49","","<div style=""font-size:60px;"">+</div>","null","","","","","","",""
"null","","image-keyboard-response","189","319892","0.0-4.0-0.50","","img/pink.png","null","trial","null","true","0.2,0.8","nogo_b","",""
"null","","html-keyboard-response","190","320899","0.0-4.0-1.50","","<img src=""img/pink-r.png"">","null","trial","null","","0.2,0.8","nogo_b","1",""
"null","","html-keyboard-response","191","321904","0.0-4.0-2.50","","<div style=""font-size:60px;"">+</div>","null","","","","","","",""
"413.61499996855855","","image-keyboard-response","192","322318","0.0-4.0-0.51","","img/orange.png","32","trial","32","true","0.8,0.2","go_a","",""
"null","","html-keyboard-response","193","323329","0.0-4.0-1.51","","<img src=""img/orange-r.png"" border=""10"">","null","trial","32","","0.8,0.2","go_a","1",""
"null","","html-keyboard-response","194","324336","0.0-4.0-2.51","","<div style=""font-size:60px;"">+</div>","null","","","","","","",""
"null","","image-keyboard-response","195","325838","0.0-4.0-0.52","","img/pink.png","null","trial","null","true","0.2,0.8","nogo_b","",""
"null","","html-keyboard-response","196","326844","0.0-4.0-1.52","","<img src=""img/pink-r.png"">","null","trial","null","","0.2,0.8","nogo_b","1",""
"null","","html-keyboard-response","197","327849","0.0-4.0-2.52","","<div style=""font-size:60px;"">+</div>","null","","","","","","",""
"461.9550001807511","","image-keyboard-response","198","328311","0.0-4.0-0.53","","img/orange.png","32","trial","32","true","0.8,0.2","go_a","",""
"null","","html-keyboard-response","199","329319","0.0-4.0-1.53","","<img src=""img/orange-r.png"" border=""10"">","null","trial","32","","0.8,0.2","go_a","1",""
"null","","html-keyboard-response","200","330326","0.0-4.0-2.53","","<div style=""font-size:60px;"">+</div>","null","","","","","","",""
"null","","image-keyboard-response","201","331843","0.0-4.0-0.54","","img/pink.png","null","trial","null","true","0.2,0.8","nogo_b","",""
"null","","html-keyboard-response","202","332850","0.0-4.0-1.54","","<img src=""img/pink-r.png"">","null","trial","null","","0.2,0.8","nogo_b","1",""
"null","","html-keyboard-response","203","333856","0.0-4.0-2.54","","<div style=""font-size:60px;"">+</div>","null","","","","","","",""
"398.6899999435991","","image-keyboard-response","204","334256","0.0-4.0-0.55","","img/orange.png","32","trial","32","true","0.8,0.2","go_a","",""
"null","","html-keyboard-response","205","335265","0.0-4.0-1.55","","<img src=""img/orange-r.png"" border=""10"">","null","trial","32","","0.8,0.2","go_a","1",""
"null","","html-keyboard-response","206","336272","0.0-4.0-2.55","","<div style=""font-size:60px;"">+</div>","null","","","","","","",""
"471.95999999530613","","image-keyboard-response","207","336744","0.0-4.0-0.56","","img/orange.png","32","trial","32","true","0.8,0.2","go_a","",""
"null","","html-keyboard-response","208","337758","0.0-4.0-1.56","","<img src=""img/orange-r.png"" border=""10"">","null","trial","32","","0.8,0.2","go_a","1",""
"null","","html-keyboard-response","209","338764","0.0-4.0-2.56","","<div style=""font-size:60px;"">+</div>","null","","","","","","",""
"null","","image-keyboard-response","210","340265","0.0-4.0-0.57","","img/pink.png","null","trial","null","true","0.2,0.8","nogo_b","",""
"null","","html-keyboard-response","211","341273","0.0-4.0-1.57","","<img src=""img/pink-r.png"">","null","trial","null","","0.2,0.8","nogo_b","1",""
"null","","html-keyboard-response","212","342280","0.0-4.0-2.57","","<div style=""font-size:60px;"">+</div>","null","","","","","","",""
"336.0899998806417","","image-keyboard-response","213","342617","0.0-4.0-0.58","","img/orange.png","32","trial","32","true","0.8,0.2","go_a","",""
"null","","html-keyboard-response","214","343625","0.0-4.0-1.58","","<img src=""img/orange-r.png"" border=""10"">","null","trial","32","","0.8,0.2","go_a","1",""
"null","","html-keyboard-response","215","344631","0.0-4.0-2.58","","<div style=""font-size:60px;"">+</div>","null","","","","","","",""
"null","","image-keyboard-response","216","346147","0.0-4.0-0.59","","img/pink.png","null","trial","null","true","0.2,0.8","nogo_b","",""
"null","","html-keyboard-response","217","347151","0.0-4.0-1.59","","<img src=""img/pink-r.png"">","null","trial","null","","0.2,0.8","nogo_b","1",""
"null","","html-keyboard-response","218","348156","0.0-4.0-2.59","","<div style=""font-size:60px;"">+</div>","null","","","","","","",""
"4487.88999998942","","instructions","219","352644","0.0-5.0","[{""page_index"":0,""viewing_time"":4487.6350001432}]","","","","","","","","",""
"1100.584999890998","","image-keyboard-response","220","353746","0.0-6.0-0.0","","img/red.png","32","trial","null","false","0.4,0.6","nogo_b","",""
"null","","html-keyboard-response","221","354753","0.0-6.0-1.0","","<img src=""img/red-r.png"" border=""10"">","null","trial","null","","0.4,0.6","nogo_b","1",""
"null","","html-keyboard-response","222","355759","0.0-6.0-2.0","","<div style=""font-size:60px;"">+</div>","null","","","","","","",""
"665.6150000635535","","image-keyboard-response","223","356426","0.0-6.0-0.1","","img/yellow.png","32","trial","null","false","0.4,0.6","nogo_d","",""
"null","","html-keyboard-response","224","357429","0.0-6.0-1.1","","<img src=""img/yellow-r.png"" border=""10"">","null","trial","null","","0.4,0.6","nogo_d","1",""
"null","","html-keyboard-response","225","358436","0.0-6.0-2.1","","<div style=""font-size:60px;"">+</div>","null","","","","","","",""
"1110.0550000555813","","image-keyboard-response","226","359546","0.0-6.0-0.2","","img/green.png","32","trial","32","true","0.6,0.4","go_a","",""
"null","","html-keyboard-response","227","360558","0.0-6.0-1.2","","<img src=""img/green-r.png"" border=""10"">","null","trial","32","","0.6,0.4","go_a","1",""
"null","","html-keyboard-response","228","361561","0.0-6.0-2.2","","<div style=""font-size:60px;"">+</div>","null","","","","","","",""
"null","","image-keyboard-response","229","363076","0.0-6.0-0.3","","img/pink.png","null","trial","32","false","0.6,0.4","go_c","",""
"null","","html-keyboard-response","230","364084","0.0-6.0-1.3","","<img src=""img/pink-n.png"">","null","trial","32","","0.6,0.4","go_c","0",""
"null","","html-keyboard-response","231","365085","0.0-6.0-2.3","","<div style=""font-size:60px;"">+</div>","null","","","","","","",""
"null","","image-keyboard-response","232","366592","0.0-6.0-0.4","","img/red.png","null","trial","null","true","0.4,0.6","nogo_b","",""
"null","","html-keyboard-response","233","367597","0.0-6.0-1.4","","<img src=""img/red-r.png"">","null","trial","null","","0.4,0.6","nogo_b","1",""
"null","","html-keyboard-response","234","368604","0.0-6.0-2.4","","<div style=""font-size:60px;"">+</div>","null","","","","","","",""
"null","","image-keyboard-response","235","370115","0.0-6.0-0.5","","img/green.png","null","trial","32","false","0.6,0.4","go_a","",""
"null","","html-keyboard-response","236","371116","0.0-6.0-1.5","","<img src=""img/green-n.png"">","null","trial","32","","0.6,0.4","go_a","0",""
"null","","html-keyboard-response","237","372127","0.0-6.0-2.5","","<div style=""font-size:60px;"">+</div>","null","","","","","","",""
"null","","image-keyboard-response","238","373643","0.0-6.0-0.6","","img/pink.png","null","trial","32","false","0.6,0.4","go_c","",""
"null","","html-keyboard-response","239","374649","0.0-6.0-1.6","","<img src=""img/pink-n.png"">","null","trial","32","","0.6,0.4","go_c","0",""
"null","","html-keyboard-response","240","375655","0.0-6.0-2.6","","<div style=""font-size:60px;"">+</div>","null","","","","","","",""
"null","","image-keyboard-response","241","377156","0.0-6.0-0.7","","img/yellow.png","null","trial","null","true","0.4,0.6","nogo_d","",""
"null","","html-keyboard-response","242","378161","0.0-6.0-1.7","","<img src=""img/yellow-n.png"">","null","trial","null","","0.4,0.6","nogo_d","0",""
"null","","html-keyboard-response","243","379167","0.0-6.0-2.7","","<div style=""font-size:60px;"">+</div>","null","","","","","","",""
"null","","image-keyboard-response","244","380681","0.0-6.0-0.8","","img/red.png","null","trial","null","true","0.4,0.6","nogo_b","",""
"null","","html-keyboard-response","245","381686","0.0-6.0-1.8","","<img src=""img/red-n.png"">","null","trial","null","","0.4,0.6","nogo_b","0",""
"null","","html-keyboard-response","246","382691","0.0-6.0-2.8","","<div style=""font-size:60px;"">+</div>","null","","","","","","",""
"681.055000051856","","image-keyboard-response","247","383373","0.0-6.0-0.9","","img/green.png","32","trial","32","true","0.6,0.4","go_a","",""
"null","","html-keyboard-response","248","384378","0.0-6.0-1.9","","<img src=""img/green-n.png"" border=""10"">","null","trial","32","","0.6,0.4","go_a","0",""
"null","","html-keyboard-response","249","385385","0.0-6.0-2.9","","<div style=""font-size:60px;"">+</div>","null","","","","","","",""
"692.8199999965727","","image-keyboard-response","250","386078","0.0-6.0-0.10","","img/yellow.png","32","trial","null","false","0.4,0.6","nogo_d","",""
"null","","html-keyboard-response","251","387086","0.0-6.0-1.10","","<img src=""img/yellow-n.png"" border=""10"">","null","trial","null","","0.4,0.6","nogo_d","0",""
"null","","html-keyboard-response","252","388089","0.0-6.0-2.10","","<div style=""font-size:60px;"">+</div>","null","","","","","","",""
"612.3900001402944","","image-keyboard-response","253","388702","0.0-6.0-0.11","","img/pink.png","32","trial","32","true","0.6,0.4","go_c","",""
"null","","html-keyboard-response","254","389714","0.0-6.0-1.11","","<img src=""img/pink-r.png"" border=""10"">","null","trial","32","","0.6,0.4","go_c","1",""
"null","","html-keyboard-response","255","390720","0.0-6.0-2.11","","<div style=""font-size:60px;"">+</div>","null","","","","","","",""
"1038.1050000432879","","image-keyboard-response","256","391758","0.0-6.0-0.12","","img/green.png","32","trial","32","true","0.6,0.4","go_a","",""
"null","","html-keyboard-response","257","392763","0.0-6.0-1.12","","<img src=""img/green-r.png"" border=""10"">","null","trial","32","","0.6,0.4","go_a","1",""
"null","","html-keyboard-response","258","393768","0.0-6.0-2.12","","<div style=""font-size:60px;"">+</div>","null","","","","","","",""
"null","","image-keyboard-response","259","395283","0.0-6.0-0.13","","img/yellow.png","null","trial","null","true","0.4,0.6","nogo_d","",""
"null","","html-keyboard-response","260","396288","0.0-6.0-1.13","","<img src=""img/yellow-r.png"">","null","trial","null","","0.4,0.6","nogo_d","1",""
"null","","html-keyboard-response","261","397292","0.0-6.0-2.13","","<div style=""font-size:60px;"">+</div>","null","","","","","","",""
"953.8600000087172","","image-keyboard-response","262","398247","0.0-6.0-0.14","","img/red.png","32","trial","null","false","0.4,0.6","nogo_b","",""
"null","","html-keyboard-response","263","399259","0.0-6.0-1.14","","<img src=""img/red-n.png"" border=""10"">","null","trial","null","","0.4,0.6","nogo_b","0",""
"null","","html-keyboard-response","264","400266","0.0-6.0-2.14","","<div style=""font-size:60px;"">+</div>","null","","","","","","",""
"820.43999992311","","image-keyboard-response","265","401087","0.0-6.0-0.15","","img/pink.png","32","trial","32","true","0.6,0.4","go_c","",""
"null","","html-keyboard-response","266","402092","0.0-6.0-1.15","","<img src=""img/pink-r.png"" border=""10"">","null","trial","32","","0.6,0.4","go_c","1",""
"null","","html-keyboard-response","267","403096","0.0-6.0-2.15","","<div style=""font-size:60px;"">+</div>","null","","","","","","",""
"790.6699997838587","","image-keyboard-response","268","403888","0.0-6.0-0.16","","img/yellow.png","32","trial","null","false","0.4,0.6","nogo_d","",""
"null","","html-keyboard-response","269","404891","0.0-6.0-1.16","","<img src=""img/yellow-n.png"" border=""10"">","null","trial","null","","0.4,0.6","nogo_d","0",""
"null","","html-keyboard-response","270","405898","0.0-6.0-2.16","","<div style=""font-size:60px;"">+</div>","null","","","","","","",""
"725.5100000184029","","image-keyboard-response","271","406624","0.0-6.0-0.17","","img/green.png","32","trial","32","true","0.6,0.4","go_a","",""
"null","","html-keyboard-response","272","407633","0.0-6.0-1.17","","<img src=""img/green-r.png"" border=""10"">","null","trial","32","","0.6,0.4","go_a","1",""
"null","","html-keyboard-response","273","408638","0.0-6.0-2.17","","<div style=""font-size:60px;"">+</div>","null","","","","","","",""
"706.209999974817","","image-keyboard-response","274","409345","0.0-6.0-0.18","","img/pink.png","32","trial","32","true","0.6,0.4","go_c","",""
"null","","html-keyboard-response","275","410358","0.0-6.0-1.18","","<img src=""img/pink-r.png"" border=""10"">","null","trial","32","","0.6,0.4","go_c","1",""
"null","","html-keyboard-response","276","411364","0.0-6.0-2.18","","<div style=""font-size:60px;"">+</div>","null","","","","","","",""
"null","","image-keyboard-response","277","412880","0.0-6.0-0.19","","img/red.png","null","trial","null","true","0.4,0.6","nogo_b","",""
"null","","html-keyboard-response","278","413885","0.0-6.0-1.19","","<img src=""img/red-r.png"">","null","trial","null","","0.4,0.6","nogo_b","1",""
"null","","html-keyboard-response","279","414892","0.0-6.0-2.19","","<div style=""font-size:60px;"">+</div>","null","","","","","","",""
"null","","image-keyboard-response","280","416394","0.0-6.0-0.20","","img/red.png","null","trial","null","true","0.4,0.6","nogo_b","",""
"null","","html-keyboard-response","281","417396","0.0-6.0-1.20","","<img src=""img/red-n.png"">","null","trial","null","","0.4,0.6","nogo_b","0",""
"null","","html-keyboard-response","282","418408","0.0-6.0-2.20","","<div style=""font-size:60px;"">+</div>","null","","","","","","",""
"672.6699999999255","","image-keyboard-response","283","419081","0.0-6.0-0.21","","img/pink.png","32","trial","32","true","0.6,0.4","go_c","",""
"null","","html-keyboard-response","284","420094","0.0-6.0-1.21","","<img src=""img/pink-r.png"" border=""10"">","null","trial","32","","0.6,0.4","go_c","1",""
"null","","html-keyboard-response","285","421099","0.0-6.0-2.21","","<div style=""font-size:60px;"">+</div>","null","","","","","","",""
"null","","image-keyboard-response","286","422600","0.0-6.0-0.22","","img/yellow.png","null","trial","null","true","0.4,0.6","nogo_d","",""
"null","","html-keyboard-response","287","423601","0.0-6.0-1.22","","<img src=""img/yellow-r.png"">","null","trial","null","","0.4,0.6","nogo_d","1",""
"null","","html-keyboard-response","288","424611","0.0-6.0-2.22","","<div style=""font-size:60px;"">+</div>","null","","","","","","",""
"990.205000154674","","image-keyboard-response","289","425602","0.0-6.0-0.23","","img/green.png","32","trial","32","true","0.6,0.4","go_a","",""
"null","","html-keyboard-response","290","426608","0.0-6.0-1.23","","<img src=""img/green-r.png"" border=""10"">","null","trial","32","","0.6,0.4","go_a","1",""
"null","","html-keyboard-response","291","427609","0.0-6.0-2.23","","<div style=""font-size:60px;"">+</div>","null","","","","","","",""
"576.2749998830259","","image-keyboard-response","292","428186","0.0-6.0-0.24","","img/green.png","32","trial","32","true","0.6,0.4","go_a","",""
"null","","html-keyboard-response","293","429224","0.0-6.0-1.24","","<img src=""img/green-r.png"" border=""10"">","null","trial","32","","0.6,0.4","go_a","1",""
"null","","html-keyboard-response","294","430230","0.0-6.0-2.24","","<div style=""font-size:60px;"">+</div>","null","","","","","","",""
"null","","image-keyboard-response","295","431746","0.0-6.0-0.25","","img/yellow.png","null","trial","null","true","0.4,0.6","nogo_d","",""
"null","","html-keyboard-response","296","432752","0.0-6.0-1.25","","<img src=""img/yellow-r.png"">","null","trial","null","","0.4,0.6","nogo_d","1",""
"null","","html-keyboard-response","297","433754","0.0-6.0-2.25","","<div style=""font-size:60px;"">+</div>","null","","","","","","",""
"null","","image-keyboard-response","298","435262","0.0-6.0-0.26","","img/red.png","null","trial","null","true","0.4,0.6","nogo_b","",""
"null","","html-keyboard-response","299","436269","0.0-6.0-1.26","","<img src=""img/red-r.png"">","null","trial","null","","0.4,0.6","nogo_b","1",""
"null","","html-keyboard-response","300","437277","0.0-6.0-2.26","","<div style=""font-size:60px;"">+</div>","null","","","","","","",""
"534.4799999147654","","image-keyboard-response","301","437812","0.0-6.0-0.27","","img/pink.png","32","trial","32","true","0.6,0.4","go_c","",""
"null","","html-keyboard-response","302","438825","0.0-6.0-1.27","","<img src=""img/pink-n.png"" border=""10"">","null","trial","32","","0.6,0.4","go_c","0",""
"null","","html-keyboard-response","303","439829","0.0-6.0-2.27","","<div style=""font-size:60px;"">+</div>","null","","","","","","",""
"405.4899998009205","","image-keyboard-response","304","440236","0.0-6.0-0.28","","img/pink.png","32","trial","32","true","0.6,0.4","go_c","",""
"null","","html-keyboard-response","305","441239","0.0-6.0-1.28","","<img src=""img/pink-r.png"" border=""10"">","null","trial","32","","0.6,0.4","go_c","1",""
"null","","html-keyboard-response","306","442245","0.0-6.0-2.28","","<div style=""font-size:60px;"">+</div>","null","","","","","","",""
"606.7950001452118","","image-keyboard-response","307","442852","0.0-6.0-0.29","","img/green.png","32","trial","32","true","0.6,0.4","go_a","",""
"null","","html-keyboard-response","308","443856","0.0-6.0-1.29","","<img src=""img/green-r.png"" border=""10"">","null","trial","32","","0.6,0.4","go_a","1",""
"null","","html-keyboard-response","309","444863","0.0-6.0-2.29","","<div style=""font-size:60px;"">+</div>","null","","","","","","",""
"null","","image-keyboard-response","310","446365","0.0-6.0-0.30","","img/red.png","null","trial","null","true","0.4,0.6","nogo_b","",""
"null","","html-keyboard-response","311","447369","0.0-6.0-1.30","","<img src=""img/red-n.png"">","null","trial","null","","0.4,0.6","nogo_b","0",""
"null","","html-keyboard-response","312","448373","0.0-6.0-2.30","","<div style=""font-size:60px;"">+</div>","null","","","","","","",""
"735.1150000467896","","image-keyboard-response","313","449109","0.0-6.0-0.31","","img/yellow.png","32","trial","null","false","0.4,0.6","nogo_d","",""
"null","","html-keyboard-response","314","450123","0.0-6.0-1.31","","<img src=""img/yellow-n.png"" border=""10"">","null","trial","null","","0.4,0.6","nogo_d","0",""
"null","","html-keyboard-response","315","451128","0.0-6.0-2.31","","<div style=""font-size:60px;"">+</div>","null","","","","","","",""
"700.2750001847744","","image-keyboard-response","316","451829","0.0-6.0-0.32","","img/pink.png","32","trial","32","true","0.6,0.4","go_c","",""
"null","","html-keyboard-response","317","452846","0.0-6.0-1.32","","<img src=""img/pink-n.png"" border=""10"">","null","trial","32","","0.6,0.4","go_c","0",""
"null","","html-keyboard-response","318","453847","0.0-6.0-2.32","","<div style=""font-size:60px;"">+</div>","null","","","","","","",""
"null","","image-keyboard-response","319","455355","0.0-6.0-0.33","","img/yellow.png","null","trial","null","true","0.4,0.6","nogo_d","",""
"null","","html-keyboard-response","320","456359","0.0-6.0-1.33","","<img src=""img/yellow-n.png"">","null","trial","null","","0.4,0.6","nogo_d","0",""
"null","","html-keyboard-response","321","457365","0.0-6.0-2.33","","<div style=""font-size:60px;"">+</div>","null","","","","","","",""
"null","","image-keyboard-response","322","458866","0.0-6.0-0.34","","img/red.png","null","trial","null","true","0.4,0.6","nogo_b","",""
"null","","html-keyboard-response","323","459871","0.0-6.0-1.34","","<img src=""img/red-r.png"">","null","trial","null","","0.4,0.6","nogo_b","1",""
"null","","html-keyboard-response","324","460877","0.0-6.0-2.34","","<div style=""font-size:60px;"">+</div>","null","","","","","","",""
"714.6400001365691","","image-keyboard-response","325","461592","0.0-6.0-0.35","","img/green.png","32","trial","32","true","0.6,0.4","go_a","",""
"null","","html-keyboard-response","326","462595","0.0-6.0-1.35","","<img src=""img/green-n.png"" border=""10"">","null","trial","32","","0.6,0.4","go_a","0",""
"null","","html-keyboard-response","327","463600","0.0-6.0-2.35","","<div style=""font-size:60px;"">+</div>","null","","","","","","",""
"613.5700000450015","","image-keyboard-response","328","464215","0.0-6.0-0.36","","img/pink.png","32","trial","32","true","0.6,0.4","go_c","",""
"null","","html-keyboard-response","329","465224","0.0-6.0-1.36","","<img src=""img/pink-n.png"" border=""10"">","null","trial","32","","0.6,0.4","go_c","0",""
"null","","html-keyboard-response","330","466229","0.0-6.0-2.36","","<div style=""font-size:60px;"">+</div>","null","","","","","","",""
"809.0450000017881","","image-keyboard-response","331","467039","0.0-6.0-0.37","","img/green.png","32","trial","32","true","0.6,0.4","go_a","",""
"null","","html-keyboard-response","332","468056","0.0-6.0-1.37","","<img src=""img/green-n.png"" border=""10"">","null","trial","32","","0.6,0.4","go_a","0",""
"null","","html-keyboard-response","333","469062","0.0-6.0-2.37","","<div style=""font-size:60px;"">+</div>","null","","","","","","",""
"null","","image-keyboard-response","334","470565","0.0-6.0-0.38","","img/red.png","null","trial","null","true","0.4,0.6","nogo_b","",""
"null","","html-keyboard-response","335","471570","0.0-6.0-1.38","","<img src=""img/red-r.png"">","null","trial","null","","0.4,0.6","nogo_b","1",""
"null","","html-keyboard-response","336","472575","0.0-6.0-2.38","","<div style=""font-size:60px;"">+</div>","null","","","","","","",""
"null","","image-keyboard-response","337","474078","0.0-6.0-0.39","","img/yellow.png","null","trial","null","true","0.4,0.6","nogo_d","",""
"null","","html-keyboard-response","338","475085","0.0-6.0-1.39","","<img src=""img/yellow-r.png"">","null","trial","null","","0.4,0.6","nogo_d","1",""
"null","","html-keyboard-response","339","476086","0.0-6.0-2.39","","<div style=""font-size:60px;"">+</div>","null","","","","","","",""
"625.7750000804663","","image-keyboard-response","340","476712","0.0-6.0-0.40","","img/pink.png","32","trial","32","true","0.6,0.4","go_c","",""
"null","","html-keyboard-response","341","477717","0.0-6.0-1.40","","<img src=""img/pink-r.png"" border=""10"">","null","trial","32","","0.6,0.4","go_c","1",""
"null","","html-keyboard-response","342","478724","0.0-6.0-2.40","","<div style=""font-size:60px;"">+</div>","null","","","","","","",""
"395.57500020600855","","image-keyboard-response","343","479120","0.0-6.0-0.41","","img/green.png","32","trial","32","true","0.6,0.4","go_a","",""
"null","","html-keyboard-response","344","480133","0.0-6.0-1.41","","<img src=""img/green-n.png"" border=""10"">","null","trial","32","","0.6,0.4","go_a","0",""
"null","","html-keyboard-response","345","481136","0.0-6.0-2.41","","<div style=""font-size:60px;"">+</div>","null","","","","","","",""
"null","","image-keyboard-response","346","482651","0.0-6.0-0.42","","img/red.png","null","trial","null","true","0.4,0.6","nogo_b","",""
"null","","html-keyboard-response","347","483658","0.0-6.0-1.42","","<img src=""img/red-r.png"">","null","trial","null","","0.4,0.6","nogo_b","1",""
"null","","html-keyboard-response","348","484664","0.0-6.0-2.42","","<div style=""font-size:60px;"">+</div>","null","","","","","","",""
"null","","image-keyboard-response","349","486180","0.0-6.0-0.43","","img/yellow.png","null","trial","null","true","0.4,0.6","nogo_d","",""
"null","","html-keyboard-response","350","487186","0.0-6.0-1.43","","<img src=""img/yellow-n.png"">","null","trial","null","","0.4,0.6","nogo_d","0",""
"null","","html-keyboard-response","351","488192","0.0-6.0-2.43","","<div style=""font-size:60px;"">+</div>","null","","","","","","",""
"null","","image-keyboard-response","352","489707","0.0-6.0-0.44","","img/yellow.png","null","trial","null","true","0.4,0.6","nogo_d","",""
"null","","html-keyboard-response","353","490712","0.0-6.0-1.44","","<img src=""img/yellow-r.png"">","null","trial","null","","0.4,0.6","nogo_d","1",""
"null","","html-keyboard-response","354","491718","0.0-6.0-2.44","","<div style=""font-size:60px;"">+</div>","null","","","","","","",""
"556.1600001528859","","image-keyboard-response","355","492275","0.0-6.0-0.45","","img/pink.png","32","trial","32","true","0.6,0.4","go_c","",""
"null","","html-keyboard-response","356","493282","0.0-6.0-1.45","","<img src=""img/pink-r.png"" border=""10"">","null","trial","32","","0.6,0.4","go_c","1",""
"null","","html-keyboard-response","357","494288","0.0-6.0-2.45","","<div style=""font-size:60px;"">+</div>","null","","","","","","",""
"1129.6600000932813","","image-keyboard-response","358","495418","0.0-6.0-0.46","","img/green.png","32","trial","32","true","0.6,0.4","go_a","",""
"null","","html-keyboard-response","359","496426","0.0-6.0-1.46","","<img src=""img/green-n.png"" border=""10"">","null","trial","32","","0.6,0.4","go_a","0",""
"null","","html-keyboard-response","360","497431","0.0-6.0-2.46","","<div style=""font-size:60px;"">+</div>","null","","","","","","",""
"null","","image-keyboard-response","361","498932","0.0-6.0-0.47","","img/red.png","null","trial","null","true","0.4,0.6","nogo_b","",""
"null","","html-keyboard-response","362","499937","0.0-6.0-1.47","","<img src=""img/red-r.png"">","null","trial","null","","0.4,0.6","nogo_b","1",""
"null","","html-keyboard-response","363","500944","0.0-6.0-2.47","","<div style=""font-size:60px;"">+</div>","null","","","","","","",""
"null","","image-keyboard-response","364","502460","0.0-6.0-0.48","","img/yellow.png","null","trial","null","true","0.4,0.6","nogo_d","",""
"null","","html-keyboard-response","365","503462","0.0-6.0-1.48","","<img src=""img/yellow-n.png"">","null","trial","null","","0.4,0.6","nogo_d","0",""
"null","","html-keyboard-response","366","504473","0.0-6.0-2.48","","<div style=""font-size:60px;"">+</div>","null","","","","","","",""
"null","","image-keyboard-response","367","505990","0.0-6.0-0.49","","img/red.png","null","trial","null","true","0.4,0.6","nogo_b","",""
"null","","html-keyboard-response","368","506995","0.0-6.0-1.49","","<img src=""img/red-r.png"">","null","trial","null","","0.4,0.6","nogo_b","1",""
"null","","html-keyboard-response","369","508000","0.0-6.0-2.49","","<div style=""font-size:60px;"">+</div>","null","","","","","","",""
"579.0200000628829","","image-keyboard-response","370","508580","0.0-6.0-0.50","","img/pink.png","32","trial","32","true","0.6,0.4","go_c","",""
"null","","html-keyboard-response","371","509595","0.0-6.0-1.50","","<img src=""img/pink-n.png"" border=""10"">","null","trial","32","","0.6,0.4","go_c","0",""
"null","","html-keyboard-response","372","510602","0.0-6.0-2.50","","<div style=""font-size:60px;"">+</div>","null","","","","","","",""
"1239.7100001107901","","image-keyboard-response","373","511844","0.0-6.0-0.51","","img/green.png","32","trial","32","true","0.6,0.4","go_a","",""
"null","","html-keyboard-response","374","512847","0.0-6.0-1.51","","<img src=""img/green-n.png"" border=""10"">","null","trial","32","","0.6,0.4","go_a","0",""
"null","","html-keyboard-response","375","513854","0.0-6.0-2.51","","<div style=""font-size:60px;"">+</div>","null","","","","","","",""
"598.1300000566989","","image-keyboard-response","376","514453","0.0-6.0-0.52","","img/pink.png","32","trial","32","true","0.6,0.4","go_c","",""
"null","","html-keyboard-response","377","515461","0.0-6.0-1.52","","<img src=""img/pink-n.png"" border=""10"">","null","trial","32","","0.6,0.4","go_c","0",""
"null","","html-keyboard-response","378","516467","0.0-6.0-2.52","","<div style=""font-size:60px;"">+</div>","null","","","","","","",""
"792.64000011608","","image-keyboard-response","379","517261","0.0-6.0-0.53","","img/green.png","32","trial","32","true","0.6,0.4","go_a","",""
"null","","html-keyboard-response","380","518277","0.0-6.0-1.53","","<img src=""img/green-n.png"" border=""10"">","null","trial","32","","0.6,0.4","go_a","0",""
"null","","html-keyboard-response","381","519284","0.0-6.0-2.53","","<div style=""font-size:60px;"">+</div>","null","","","","","","",""
"481.33000009693205","","image-keyboard-response","382","519766","0.0-6.0-0.54","","img/yellow.png","32","trial","null","false","0.4,0.6","nogo_d","",""
"null","","html-keyboard-response","383","520770","0.0-6.0-1.54","","<img src=""img/yellow-n.png"" border=""10"">","null","trial","null","","0.4,0.6","nogo_d","0",""
"null","","html-keyboard-response","384","521776","0.0-6.0-2.54","","<div style=""font-size:60px;"">+</div>","null","","","","","","",""
"null","","image-keyboard-response","385","523292","0.0-6.0-0.55","","img/red.png","null","trial","null","true","0.4,0.6","nogo_b","",""
"null","","html-keyboard-response","386","524296","0.0-6.0-1.55","","<img src=""img/red-r.png"">","null","trial","null","","0.4,0.6","nogo_b","1",""
"null","","html-keyboard-response","387","525301","0.0-6.0-2.55","","<div style=""font-size:60px;"">+</div>","null","","","","","","",""
"null","","image-keyboard-response","388","526802","0.0-6.0-0.56","","img/red.png","null","trial","null","true","0.4,0.6","nogo_b","",""
"null","","html-keyboard-response","389","527808","0.0-6.0-1.56","","<img src=""img/red-r.png"">","null","trial","null","","0.4,0.6","nogo_b","1",""
"null","","html-keyboard-response","390","528814","0.0-6.0-2.56","","<div style=""font-size:60px;"">+</div>","null","","","","","","",""
"1183.3300001453608","","image-keyboard-response","391","529998","0.0-6.0-0.57","","img/green.png","32","trial","32","true","0.6,0.4","go_a","",""
"null","","html-keyboard-response","392","531015","0.0-6.0-1.57","","<img src=""img/green-n.png"" border=""10"">","null","trial","32","","0.6,0.4","go_a","0",""
"null","","html-keyboard-response","393","532021","0.0-6.0-2.57","","<div style=""font-size:60px;"">+</div>","null","","","","","","",""
"625.264999922365","","image-keyboard-response","394","532647","0.0-6.0-0.58","","img/pink.png","32","trial","32","true","0.6,0.4","go_c","",""
"null","","html-keyboard-response","395","533660","0.0-6.0-1.58","","<img src=""img/pink-n.png"" border=""10"">","null","trial","32","","0.6,0.4","go_c","0",""
"null","","html-keyboard-response","396","534664","0.0-6.0-2.58","","<div style=""font-size:60px;"">+</div>","null","","","","","","",""
"null","","image-keyboard-response","397","536165","0.0-6.0-0.59","","img/yellow.png","null","trial","null","true","0.4,0.6","nogo_d","",""
"null","","html-keyboard-response","398","537170","0.0-6.0-1.59","","<img src=""img/yellow-n.png"">","null","trial","null","","0.4,0.6","nogo_d","0",""
"null","","html-keyboard-response","399","538171","0.0-6.0-2.59","","<div style=""font-size:60px;"">+</div>","null","","","","","","",""
"null","","image-keyboard-response","400","539678","0.0-6.0-0.60","","img/red.png","null","trial","null","true","0.4,0.6","nogo_b","",""
"null","","html-keyboard-response","401","540683","0.0-6.0-1.60","","<img src=""img/red-n.png"">","null","trial","null","","0.4,0.6","nogo_b","0",""
"null","","html-keyboard-response","402","541687","0.0-6.0-2.60","","<div style=""font-size:60px;"">+</div>","null","","","","","","",""
"639.8650000337511","","image-keyboard-response","403","542328","0.0-6.0-0.61","","img/pink.png","32","trial","32","true","0.6,0.4","go_c","",""
"null","","html-keyboard-response","404","543343","0.0-6.0-1.61","","<img src=""img/pink-n.png"" border=""10"">","null","trial","32","","0.6,0.4","go_c","0",""
"null","","html-keyboard-response","405","544349","0.0-6.0-2.61","","<div style=""font-size:60px;"">+</div>","null","","","","","","",""
"834.0600000228733","","image-keyboard-response","406","545184","0.0-6.0-0.62","","img/green.png","32","trial","32","true","0.6,0.4","go_a","",""
"null","","html-keyboard-response","407","546190","0.0-6.0-1.62","","<img src=""img/green-n.png"" border=""10"">","null","trial","32","","0.6,0.4","go_a","0",""
"null","","html-keyboard-response","408","547197","0.0-6.0-2.62","","<div style=""font-size:60px;"">+</div>","null","","","","","","",""
"null","","image-keyboard-response","409","548713","0.0-6.0-0.63","","img/yellow.png","null","trial","null","true","0.4,0.6","nogo_d","",""
"null","","html-keyboard-response","410","549714","0.0-6.0-1.63","","<img src=""img/yellow-r.png"">","null","trial","null","","0.4,0.6","nogo_d","1",""
"null","","html-keyboard-response","411","550721","0.0-6.0-2.63","","<div style=""font-size:60px;"">+</div>","null","","","","","","",""
"null","","image-keyboard-response","412","552237","0.0-6.0-0.64","","img/red.png","null","trial","null","true","0.4,0.6","nogo_b","",""
"null","","html-keyboard-response","413","553244","0.0-6.0-1.64","","<img src=""img/red-r.png"">","null","trial","null","","0.4,0.6","nogo_b","1",""
"null","","html-keyboard-response","414","554248","0.0-6.0-2.64","","<div style=""font-size:60px;"">+</div>","null","","","","","","",""
"null","","image-keyboard-response","415","555751","0.0-6.0-0.65","","img/yellow.png","null","trial","null","true","0.4,0.6","nogo_d","",""
"null","","html-keyboard-response","416","556758","0.0-6.0-1.65","","<img src=""img/yellow-r.png"">","null","trial","null","","0.4,0.6","nogo_d","1",""
"null","","html-keyboard-response","417","557764","0.0-6.0-2.65","","<div style=""font-size:60px;"">+</div>","null","","","","","","",""
"460.57499991729856","","image-keyboard-response","418","558225","0.0-6.0-0.66","","img/pink.png","32","trial","32","true","0.6,0.4","go_c","",""
"null","","html-keyboard-response","419","559232","0.0-6.0-1.66","","<img src=""img/pink-r.png"" border=""10"">","null","trial","32","","0.6,0.4","go_c","1",""
"null","","html-keyboard-response","420","560239","0.0-6.0-2.66","","<div style=""font-size:60px;"">+</div>","null","","","","","","",""
"658.0850000027567","","image-keyboard-response","421","560898","0.0-6.0-0.67","","img/green.png","32","trial","32","true","0.6,0.4","go_a","",""
"null","","html-keyboard-response","422","561911","0.0-6.0-1.67","","<img src=""img/green-r.png"" border=""10"">","null","trial","32","","0.6,0.4","go_a","1",""
"null","","html-keyboard-response","423","562916","0.0-6.0-2.67","","<div style=""font-size:60px;"">+</div>","null","","","","","","",""
"null","","image-keyboard-response","424","564418","0.0-6.0-0.68","","img/yellow.png","null","trial","null","true","0.4,0.6","nogo_d","",""
"null","","html-keyboard-response","425","565425","0.0-6.0-1.68","","<img src=""img/yellow-n.png"">","null","trial","null","","0.4,0.6","nogo_d","0",""
"null","","html-keyboard-response","426","566431","0.0-6.0-2.68","","<div style=""font-size:60px;"">+</div>","null","","","","","","",""
"null","","image-keyboard-response","427","567944","0.0-6.0-0.69","","img/red.png","null","trial","null","true","0.4,0.6","nogo_b","",""
"null","","html-keyboard-response","428","568951","0.0-6.0-1.69","","<img src=""img/red-r.png"">","null","trial","null","","0.4,0.6","nogo_b","1",""
"null","","html-keyboard-response","429","569958","0.0-6.0-2.69","","<div style=""font-size:60px;"">+</div>","null","","","","","","",""
"716.5200000163168","","image-keyboard-response","430","570675","0.0-6.0-0.70","","img/green.png","32","trial","32","true","0.6,0.4","go_a","",""
"null","","html-keyboard-response","431","571691","0.0-6.0-1.70","","<img src=""img/green-r.png"" border=""10"">","null","trial","32","","0.6,0.4","go_a","1",""
"null","","html-keyboard-response","432","572697","0.0-6.0-2.70","","<div style=""font-size:60px;"">+</div>","null","","","","","","",""
"641.8199997860938","","image-keyboard-response","433","573339","0.0-6.0-0.71","","img/pink.png","32","trial","32","true","0.6,0.4","go_c","",""
"null","","html-keyboard-response","434","574354","0.0-6.0-1.71","","<img src=""img/pink-r.png"" border=""10"">","null","trial","32","","0.6,0.4","go_c","1",""
"null","","html-keyboard-response","435","575359","0.0-6.0-2.71","","<div style=""font-size:60px;"">+</div>","null","","","","","","",""
"null","","image-keyboard-response","436","576875","0.0-6.0-0.72","","img/yellow.png","null","trial","null","true","0.4,0.6","nogo_d","",""
"null","","html-keyboard-response","437","577882","0.0-6.0-1.72","","<img src=""img/yellow-r.png"">","null","trial","null","","0.4,0.6","nogo_d","1",""
"null","","html-keyboard-response","438","578889","0.0-6.0-2.72","","<div style=""font-size:60px;"">+</div>","null","","","","","","",""
"690.059999935329","","image-keyboard-response","439","579580","0.0-6.0-0.73","","img/pink.png","32","trial","32","true","0.6,0.4","go_c","",""
"null","","html-keyboard-response","440","580593","0.0-6.0-1.73","","<img src=""img/pink-r.png"" border=""10"">","null","trial","32","","0.6,0.4","go_c","1",""
"null","","html-keyboard-response","441","581600","0.0-6.0-2.73","","<div style=""font-size:60px;"">+</div>","null","","","","","","",""
"null","","image-keyboard-response","442","583102","0.0-6.0-0.74","","img/red.png","null","trial","null","true","0.4,0.6","nogo_b","",""
"null","","html-keyboard-response","443","584104","0.0-6.0-1.74","","<img src=""img/red-r.png"">","null","trial","null","","0.4,0.6","nogo_b","1",""
"null","","html-keyboard-response","444","585112","0.0-6.0-2.74","","<div style=""font-size:60px;"">+</div>","null","","","","","","",""
"587.80000009574","","image-keyboard-response","445","585701","0.0-6.0-0.75","","img/green.png","32","trial","32","true","0.6,0.4","go_a","",""
"null","","html-keyboard-response","446","586707","0.0-6.0-1.75","","<img src=""img/green-r.png"" border=""10"">","null","trial","32","","0.6,0.4","go_a","1",""
"null","","html-keyboard-response","447","587713","0.0-6.0-2.75","","<div style=""font-size:60px;"">+</div>","null","","","","","","",""
"483.08999999426305","","image-keyboard-response","448","588197","0.0-6.0-0.76","","img/green.png","32","trial","32","true","0.6,0.4","go_a","",""
"null","","html-keyboard-response","449","589199","0.0-6.0-1.76","","<img src=""img/green-n.png"" border=""10"">","null","trial","32","","0.6,0.4","go_a","0",""
"null","","html-keyboard-response","450","590205","0.0-6.0-2.76","","<div style=""font-size:60px;"">+</div>","null","","","","","","",""
"null","","image-keyboard-response","451","591706","0.0-6.0-0.77","","img/red.png","null","trial","null","true","0.4,0.6","nogo_b","",""
"null","","html-keyboard-response","452","592711","0.0-6.0-1.77","","<img src=""img/red-n.png"">","null","trial","null","","0.4,0.6","nogo_b","0",""
"null","","html-keyboard-response","453","593718","0.0-6.0-2.77","","<div style=""font-size:60px;"">+</div>","null","","","","","","",""
"431.0200000181794","","image-keyboard-response","454","594149","0.0-6.0-0.78","","img/pink.png","32","trial","32","true","0.6,0.4","go_c","",""
"null","","html-keyboard-response","455","595158","0.0-6.0-1.78","","<img src=""img/pink-n.png"" border=""10"">","null","trial","32","","0.6,0.4","go_c","0",""
"null","","html-keyboard-response","456","596164","0.0-6.0-2.78","","<div style=""font-size:60px;"">+</div>","null","","","","","","",""
"null","","image-keyboard-response","457","597666","0.0-6.0-0.79","","img/yellow.png","null","trial","null","true","0.4,0.6","nogo_d","",""
"null","","html-keyboard-response","458","598673","0.0-6.0-1.79","","<img src=""img/yellow-r.png"">","null","trial","null","","0.4,0.6","nogo_d","1",""
"null","","html-keyboard-response","459","599680","0.0-6.0-2.79","","<div style=""font-size:60px;"">+</div>","null","","","","","","",""
"null","","image-keyboard-response","460","601194","0.0-6.0-0.80","","img/yellow.png","null","trial","null","true","0.4,0.6","nogo_d","",""
"null","","html-keyboard-response","461","602201","0.0-6.0-1.80","","<img src=""img/yellow-n.png"">","null","trial","null","","0.4,0.6","nogo_d","0",""
"null","","html-keyboard-response","462","603206","0.0-6.0-2.80","","<div style=""font-size:60px;"">+</div>","null","","","","","","",""
"504.25999984145164","","image-keyboard-response","463","603711","0.0-6.0-0.81","","img/green.png","32","trial","32","true","0.6,0.4","go_a","",""
"null","","html-keyboard-response","464","604723","0.0-6.0-1.81","","<img src=""img/green-r.png"" border=""10"">","null","trial","32","","0.6,0.4","go_a","1",""
"null","","html-keyboard-response","465","605730","0.0-6.0-2.81","","<div style=""font-size:60px;"">+</div>","null","","","","","","",""
"null","","image-keyboard-response","466","607233","0.0-6.0-0.82","","img/red.png","null","trial","null","true","0.4,0.6","nogo_b","",""
"null","","html-keyboard-response","467","608238","0.0-6.0-1.82","","<img src=""img/red-n.png"">","null","trial","null","","0.4,0.6","nogo_b","0",""
"null","","html-keyboard-response","468","609244","0.0-6.0-2.82","","<div style=""font-size:60px;"">+</div>","null","","","","","","",""
"530.6250001303852","","image-keyboard-response","469","609776","0.0-6.0-0.83","","img/pink.png","32","trial","32","true","0.6,0.4","go_c","",""
"null","","html-keyboard-response","470","610788","0.0-6.0-1.83","","<img src=""img/pink-r.png"" border=""10"">","null","trial","32","","0.6,0.4","go_c","1",""
"null","","html-keyboard-response","471","611793","0.0-6.0-2.83","","<div style=""font-size:60px;"">+</div>","null","","","","","","",""
"null","","image-keyboard-response","472","613308","0.0-6.0-0.84","","img/red.png","null","trial","null","true","0.4,0.6","nogo_b","",""
"null","","html-keyboard-response","473","614310","0.0-6.0-1.84","","<img src=""img/red-r.png"">","null","trial","null","","0.4,0.6","nogo_b","1",""
"null","","html-keyboard-response","474","615322","0.0-6.0-2.84","","<div style=""font-size:60px;"">+</div>","null","","","","","","",""
"790.2400000020862","","image-keyboard-response","475","616113","0.0-6.0-0.85","","img/yellow.png","32","trial","null","false","0.4,0.6","nogo_d","",""
"null","","html-keyboard-response","476","617119","0.0-6.0-1.85","","<img src=""img/yellow-r.png"" border=""10"">","null","trial","null","","0.4,0.6","nogo_d","1",""
"null","","html-keyboard-response","477","618125","0.0-6.0-2.85","","<div style=""font-size:60px;"">+</div>","null","","","","","","",""
"915.1600000914186","","image-keyboard-response","478","619041","0.0-6.0-0.86","","img/pink.png","32","trial","32","true","0.6,0.4","go_c","",""
"null","","html-keyboard-response","479","620044","0.0-6.0-1.86","","<img src=""img/pink-n.png"" border=""10"">","null","trial","32","","0.6,0.4","go_c","0",""
"null","","html-keyboard-response","480","621051","0.0-6.0-2.86","","<div style=""font-size:60px;"">+</div>","null","","","","","","",""
"901.2149998452514","","image-keyboard-response","481","621953","0.0-6.0-0.87","","img/green.png","32","trial","32","true","0.6,0.4","go_a","",""
"null","","html-keyboard-response","482","622955","0.0-6.0-1.87","","<img src=""img/green-r.png"" border=""10"">","null","trial","32","","0.6,0.4","go_a","1",""
"null","","html-keyboard-response","483","623961","0.0-6.0-2.87","","<div style=""font-size:60px;"">+</div>","null","","","","","","",""
"623.325000051409","","image-keyboard-response","484","624585","0.0-6.0-0.88","","img/green.png","32","trial","32","true","0.6,0.4","go_a","",""
"null","","html-keyboard-response","485","625587","0.0-6.0-1.88","","<img src=""img/green-r.png"" border=""10"">","null","trial","32","","0.6,0.4","go_a","1",""
"null","","html-keyboard-response","486","626591","0.0-6.0-2.88","","<div style=""font-size:60px;"">+</div>","null","","","","","","",""
"730.0400000531226","","image-keyboard-response","487","627322","0.0-6.0-0.89","","img/pink.png","32","trial","32","true","0.6,0.4","go_c","",""
"null","","html-keyboard-response","488","628323","0.0-6.0-1.89","","<img src=""img/pink-r.png"" border=""10"">","null","trial","32","","0.6,0.4","go_c","1",""
"null","","html-keyboard-response","489","629329","0.0-6.0-2.89","","<div style=""font-size:60px;"">+</div>","null","","","","","","",""
"null","","image-keyboard-response","490","630845","0.0-6.0-0.90","","img/yellow.png","null","trial","null","true","0.4,0.6","nogo_d","",""
"null","","html-keyboard-response","491","631848","0.0-6.0-1.90","","<img src=""img/yellow-r.png"">","null","trial","null","","0.4,0.6","nogo_d","1",""
"null","","html-keyboard-response","492","632859","0.0-6.0-2.90","","<div style=""font-size:60px;"">+</div>","null","","","","","","",""
"null","","image-keyboard-response","493","634362","0.0-6.0-0.91","","img/red.png","null","trial","null","true","0.4,0.6","nogo_b","",""
"null","","html-keyboard-response","494","635367","0.0-6.0-1.91","","<img src=""img/red-r.png"">","null","trial","null","","0.4,0.6","nogo_b","1",""
"null","","html-keyboard-response","495","636372","0.0-6.0-2.91","","<div style=""font-size:60px;"">+</div>","null","","","","","","",""
"null","","image-keyboard-response","496","637874","0.0-6.0-0.92","","img/red.png","null","trial","null","true","0.4,0.6","nogo_b","",""
"null","","html-keyboard-response","497","638881","0.0-6.0-1.92","","<img src=""img/red-r.png"">","null","trial","null","","0.4,0.6","nogo_b","1",""
"null","","html-keyboard-response","498","639883","0.0-6.0-2.92","","<div style=""font-size:60px;"">+</div>","null","","","","","","",""
"583.8299999013543","","image-keyboard-response","499","640467","0.0-6.0-0.93","","img/pink.png","32","trial","32","true","0.6,0.4","go_c","",""
"null","","html-keyboard-response","500","641482","0.0-6.0-1.93","","<img src=""img/pink-r.png"" border=""10"">","null","trial","32","","0.6,0.4","go_c","1",""
"null","","html-keyboard-response","501","642487","0.0-6.0-2.93","","<div style=""font-size:60px;"">+</div>","null","","","","","","",""
"684.6100001130253","","image-keyboard-response","502","643172","0.0-6.0-0.94","","img/green.png","32","trial","32","true","0.6,0.4","go_a","",""
"null","","html-keyboard-response","503","644203","0.0-6.0-1.94","","<img src=""img/green-n.png"" border=""10"">","null","trial","32","","0.6,0.4","go_a","0",""
"null","","html-keyboard-response","504","645205","0.0-6.0-2.94","","<div style=""font-size:60px;"">+</div>","null","","","","","","",""
"877.9400000348687","","image-keyboard-response","505","646084","0.0-6.0-0.95","","img/yellow.png","32","trial","null","false","0.4,0.6","nogo_d","",""
"null","","html-keyboard-response","506","647094","0.0-6.0-1.95","","<img src=""img/yellow-n.png"" border=""10"">","null","trial","null","","0.4,0.6","nogo_d","0",""
"null","","html-keyboard-response","507","648101","0.0-6.0-2.95","","<div style=""font-size:60px;"">+</div>","null","","","","","","",""
"null","","image-keyboard-response","508","649618","0.0-6.0-0.96","","img/red.png","null","trial","null","true","0.4,0.6","nogo_b","",""
"null","","html-keyboard-response","509","650624","0.0-6.0-1.96","","<img src=""img/red-n.png"">","null","trial","null","","0.4,0.6","nogo_b","0",""
"null","","html-keyboard-response","510","651630","0.0-6.0-2.96","","<div style=""font-size:60px;"">+</div>","null","","","","","","",""
"573.850000044331","","image-keyboard-response","511","652205","0.0-6.0-0.97","","img/green.png","32","trial","32","true","0.6,0.4","go_a","",""
"null","","html-keyboard-response","512","653222","0.0-6.0-1.97","","<img src=""img/green-n.png"" border=""10"">","null","trial","32","","0.6,0.4","go_a","0",""
"null","","html-keyboard-response","513","654228","0.0-6.0-2.97","","<div style=""font-size:60px;"">+</div>","null","","","","","","",""
"null","","image-keyboard-response","514","655743","0.0-6.0-0.98","","img/yellow.png","null","trial","null","true","0.4,0.6","nogo_d","",""
"null","","html-keyboard-response","515","656750","0.0-6.0-1.98","","<img src=""img/yellow-r.png"">","null","trial","null","","0.4,0.6","nogo_d","1",""
"null","","html-keyboard-response","516","657755","0.0-6.0-2.98","","<div style=""font-size:60px;"">+</div>","null","","","","","","",""
"593.5600001830608","","image-keyboard-response","517","658349","0.0-6.0-0.99","","img/pink.png","32","trial","32","true","0.6,0.4","go_c","",""
"null","","html-keyboard-response","518","659367","0.0-6.0-1.99","","<img src=""img/pink-n.png"" border=""10"">","null","trial","32","","0.6,0.4","go_c","0",""
"null","","html-keyboard-response","519","660374","0.0-6.0-2.99","","<div style=""font-size:60px;"">+</div>","null","","","","","","",""
"null","","image-keyboard-response","520","661888","0.0-6.0-0.100","","img/yellow.png","null","trial","null","true","0.4,0.6","nogo_d","",""
"null","","html-keyboard-response","521","662892","0.0-6.0-1.100","","<img src=""img/yellow-n.png"">","null","trial","null","","0.4,0.6","nogo_d","0",""
"null","","html-keyboard-response","522","663899","0.0-6.0-2.100","","<div style=""font-size:60px;"">+</div>","null","","","","","","",""
"null","","image-keyboard-response","523","665416","0.0-6.0-0.101","","img/red.png","null","trial","null","true","0.4,0.6","nogo_b","",""
"null","","html-keyboard-response","524","666421","0.0-6.0-1.101","","<img src=""img/red-r.png"">","null","trial","null","","0.4,0.6","nogo_b","1",""
"null","","html-keyboard-response","525","667429","0.0-6.0-2.101","","<div style=""font-size:60px;"">+</div>","null","","","","","","",""
"657.0200000423938","","image-keyboard-response","526","668087","0.0-6.0-0.102","","img/pink.png","32","trial","32","true","0.6,0.4","go_c","",""
"null","","html-keyboard-response","527","669101","0.0-6.0-1.102","","<img src=""img/pink-n.png"" border=""10"">","null","trial","32","","0.6,0.4","go_c","0",""
"null","","html-keyboard-response","528","670107","0.0-6.0-2.102","","<div style=""font-size:60px;"">+</div>","null","","","","","","",""
"579.1400000452995","","image-keyboard-response","529","670687","0.0-6.0-0.103","","img/green.png","32","trial","32","true","0.6,0.4","go_a","",""
"null","","html-keyboard-response","530","671700","0.0-6.0-1.103","","<img src=""img/green-r.png"" border=""10"">","null","trial","32","","0.6,0.4","go_a","1",""
"null","","html-keyboard-response","531","672707","0.0-6.0-2.103","","<div style=""font-size:60px;"">+</div>","null","","","","","","",""
"null","","image-keyboard-response","532","674221","0.0-6.0-0.104","","img/red.png","null","trial","null","true","0.4,0.6","nogo_b","",""
"null","","html-keyboard-response","533","675225","0.0-6.0-1.104","","<img src=""img/red-r.png"">","null","trial","null","","0.4,0.6","nogo_b","1",""
"null","","html-keyboard-response","534","676229","0.0-6.0-2.104","","<div style=""font-size:60px;"">+</div>","null","","","","","","",""
"1001.3200000394136","","image-keyboard-response","535","677231","0.0-6.0-0.105","","img/pink.png","32","trial","32","true","0.6,0.4","go_c","",""
"null","","html-keyboard-response","536","678241","0.0-6.0-1.105","","<img src=""img/pink-n.png"" border=""10"">","null","trial","32","","0.6,0.4","go_c","0",""
"null","","html-keyboard-response","537","679245","0.0-6.0-2.105","","<div style=""font-size:60px;"">+</div>","null","","","","","","",""
"null","","image-keyboard-response","538","680760","0.0-6.0-0.106","","img/yellow.png","null","trial","null","true","0.4,0.6","nogo_d","",""
"null","","html-keyboard-response","539","681767","0.0-6.0-1.106","","<img src=""img/yellow-n.png"">","null","trial","null","","0.4,0.6","nogo_d","0",""
"null","","html-keyboard-response","540","682768","0.0-6.0-2.106","","<div style=""font-size:60px;"">+</div>","null","","","","","","",""
"511.2350000999868","","image-keyboard-response","541","683280","0.0-6.0-0.107","","img/green.png","32","trial","32","true","0.6,0.4","go_a","",""
"null","","html-keyboard-response","542","684289","0.0-6.0-1.107","","<img src=""img/green-n.png"" border=""10"">","null","trial","32","","0.6,0.4","go_a","0",""
"null","","html-keyboard-response","543","685295","0.0-6.0-2.107","","<div style=""font-size:60px;"">+</div>","null","","","","","","",""
"null","","image-keyboard-response","544","686797","0.0-6.0-0.108","","img/red.png","null","trial","null","true","0.4,0.6","nogo_b","",""
"null","","html-keyboard-response","545","687799","0.0-6.0-1.108","","<img src=""img/red-n.png"">","null","trial","null","","0.4,0.6","nogo_b","0",""
"null","","html-keyboard-response","546","688800","0.0-6.0-2.108","","<div style=""font-size:60px;"">+</div>","null","","","","","","",""
"759.895000141114","","image-keyboard-response","547","689561","0.0-6.0-0.109","","img/green.png","32","trial","32","true","0.6,0.4","go_a","",""
"null","","html-keyboard-response","548","690571","0.0-6.0-1.109","","<img src=""img/green-r.png"" border=""10"">","null","trial","32","","0.6,0.4","go_a","1",""
"null","","html-keyboard-response","549","691576","0.0-6.0-2.109","","<div style=""font-size:60px;"">+</div>","null","","","","","","",""
"null","","image-keyboard-response","550","693079","0.0-6.0-0.110","","img/yellow.png","null","trial","null","true","0.4,0.6","nogo_d","",""
"null","","html-keyboard-response","551","694084","0.0-6.0-1.110","","<img src=""img/yellow-r.png"">","null","trial","null","","0.4,0.6","nogo_d","1",""
"null","","html-keyboard-response","552","695090","0.0-6.0-2.110","","<div style=""font-size:60px;"">+</div>","null","","","","","","",""
"390.6400001142174","","image-keyboard-response","553","695482","0.0-6.0-0.111","","img/pink.png","32","trial","32","true","0.6,0.4","go_c","",""
"null","","html-keyboard-response","554","696497","0.0-6.0-1.111","","<img src=""img/pink-n.png"" border=""10"">","null","trial","32","","0.6,0.4","go_c","0",""
"null","","html-keyboard-response","555","697502","0.0-6.0-2.111","","<div style=""font-size:60px;"">+</div>","null","","","","","","",""
"770.5749999731779","","image-keyboard-response","556","698274","0.0-6.0-0.112","","img/green.png","32","trial","32","true","0.6,0.4","go_a","",""
"null","","html-keyboard-response","557","699283","0.0-6.0-1.112","","<img src=""img/green-r.png"" border=""10"">","null","trial","32","","0.6,0.4","go_a","1",""
"null","","html-keyboard-response","558","700289","0.0-6.0-2.112","","<div style=""font-size:60px;"">+</div>","null","","","","","","",""
"408.72000018134713","","image-keyboard-response","559","700698","0.0-6.0-0.113","","img/pink.png","32","trial","32","true","0.6,0.4","go_c","",""
"null","","html-keyboard-response","560","701714","0.0-6.0-1.113","","<img src=""img/pink-r.png"" border=""10"">","null","trial","32","","0.6,0.4","go_c","1",""
"null","","html-keyboard-response","561","702721","0.0-6.0-2.113","","<div style=""font-size:60px;"">+</div>","null","","","","","","",""
"null","","image-keyboard-response","562","704222","0.0-6.0-0.114","","img/yellow.png","null","trial","null","true","0.4,0.6","nogo_d","",""
"null","","html-keyboard-response","563","705226","0.0-6.0-1.114","","<img src=""img/yellow-n.png"">","null","trial","null","","0.4,0.6","nogo_d","0",""
"null","","html-keyboard-response","564","706229","0.0-6.0-2.114","","<div style=""font-size:60px;"">+</div>","null","","","","","","",""
"null","","image-keyboard-response","565","707746","0.0-6.0-0.115","","img/red.png","null","trial","null","true","0.4,0.6","nogo_b","",""
"null","","html-keyboard-response","566","708751","0.0-6.0-1.115","","<img src=""img/red-r.png"">","null","trial","null","","0.4,0.6","nogo_b","1",""
"null","","html-keyboard-response","567","709758","0.0-6.0-2.115","","<div style=""font-size:60px;"">+</div>","null","","","","","","",""
"476.27500002272427","","image-keyboard-response","568","710235","0.0-6.0-0.116","","img/pink.png","32","trial","32","true","0.6,0.4","go_c","",""
"null","","html-keyboard-response","569","711245","0.0-6.0-1.116","","<img src=""img/pink-n.png"" border=""10"">","null","trial","32","","0.6,0.4","go_c","0",""
"null","","html-keyboard-response","570","712246","0.0-6.0-2.116","","<div style=""font-size:60px;"">+</div>","null","","","","","","",""
"668.4900000691414","","image-keyboard-response","571","712915","0.0-6.0-0.117","","img/green.png","32","trial","32","true","0.6,0.4","go_a","",""
"null","","html-keyboard-response","572","713920","0.0-6.0-1.117","","<img src=""img/green-r.png"" border=""10"">","null","trial","32","","0.6,0.4","go_a","1",""
"null","","html-keyboard-response","573","714925","0.0-6.0-2.117","","<div style=""font-size:60px;"">+</div>","null","","","","","","",""
"null","","image-keyboard-response","574","716426","0.0-6.0-0.118","","img/red.png","null","trial","null","true","0.4,0.6","nogo_b","",""
"null","","html-keyboard-response","575","717430","0.0-6.0-1.118","","<img src=""img/red-r.png"">","null","trial","null","","0.4,0.6","nogo_b","1",""
"null","","html-keyboard-response","576","718436","0.0-6.0-2.118","","<div style=""font-size:60px;"">+</div>","null","","","","","","",""
"null","","image-keyboard-response","577","719953","0.0-6.0-0.119","","img/yellow.png","null","trial","null","true","0.4,0.6","nogo_d","",""
"null","","html-keyboard-response","578","720959","0.0-6.0-1.119","","<img src=""img/yellow-r.png"">","null","trial","null","","0.4,0.6","nogo_d","1",""
"null","","html-keyboard-response","579","721962","0.0-6.0-2.119","","<div style=""font-size:60px;"">+</div>","null","","","","","","",""
"3214.845000067726","","instructions","580","725177","0.0-7.0","[{""page_index"":0,""viewing_time"":3214.6799999754876}]","","","","","","","","",""
"763.150000013411","","image-keyboard-response","581","725941","0.0-8.0-0.0","","img/green.png","32","trial","32","true","0.8,0.2","go_c","",""
"null","","html-keyboard-response","582","726957","0.0-8.0-1.0","","<img src=""img/green-r.png"" border=""10"">","null","trial","32","","0.8,0.2","go_c","1",""
"null","","html-keyboard-response","583","727965","0.0-8.0-2.0","","<div style=""font-size:60px;"">+</div>","null","","","","","","",""
"568.8100000843406","","image-keyboard-response","584","728534","0.0-8.0-0.1","","img/orange.png","32","trial","null","false","0.2,0.8","nogo_d","",""
"null","","html-keyboard-response","585","729544","0.0-8.0-1.1","","<img src=""img/orange-n.png"" border=""10"">","null","trial","null","","0.2,0.8","nogo_d","0",""
"null","","html-keyboard-response","586","730550","0.0-8.0-2.1","","<div style=""font-size:60px;"">+</div>","null","","","","","","",""
"454.46999999694526","","image-keyboard-response","587","731005","0.0-8.0-0.2","","img/grey.png","32","trial","32","true","0.8,0.2","go_a","",""
"null","","html-keyboard-response","588","732019","0.0-8.0-1.2","","<img src=""img/grey-r.png"" border=""10"">","null","trial","32","","0.8,0.2","go_a","1",""
"null","","html-keyboard-response","589","733026","0.0-8.0-2.2","","<div style=""font-size:60px;"">+</div>","null","","","","","","",""
"475.7699999026954","","image-keyboard-response","590","733502","0.0-8.0-0.3","","img/red.png","32","trial","null","false","0.2,0.8","nogo_b","",""
"null","","html-keyboard-response","591","734512","0.0-8.0-1.3","","<img src=""img/red-n.png"" border=""10"">","null","trial","null","","0.2,0.8","nogo_b","0",""
"null","","html-keyboard-response","592","735519","0.0-8.0-2.3","","<div style=""font-size:60px;"">+</div>","null","","","","","","",""
"414.7900000680238","","image-keyboard-response","593","735935","0.0-8.0-0.4","","img/orange.png","32","trial","null","false","0.2,0.8","nogo_d","",""
"null","","html-keyboard-response","594","736945","0.0-8.0-1.4","","<img src=""img/orange-n.png"" border=""10"">","null","trial","null","","0.2,0.8","nogo_d","0",""
"null","","html-keyboard-response","595","737951","0.0-8.0-2.4","","<div style=""font-size:60px;"">+</div>","null","","","","","","",""
"734.8200001288205","","image-keyboard-response","596","738686","0.0-8.0-0.5","","img/red.png","32","trial","null","false","0.2,0.8","nogo_b","",""
"null","","html-keyboard-response","597","739696","0.0-8.0-1.5","","<img src=""img/red-n.png"" border=""10"">","null","trial","null","","0.2,0.8","nogo_b","0",""
"null","","html-keyboard-response","598","740701","0.0-8.0-2.5","","<div style=""font-size:60px;"">+</div>","null","","","","","","",""
"633.5150001104921","","image-keyboard-response","599","741335","0.0-8.0-0.6","","img/grey.png","32","trial","32","true","0.8,0.2","go_a","",""
"null","","html-keyboard-response","600","742342","0.0-8.0-1.6","","<img src=""img/grey-r.png"" border=""10"">","null","trial","32","","0.8,0.2","go_a","1",""
"null","","html-keyboard-response","601","743348","0.0-8.0-2.6","","<div style=""font-size:60px;"">+</div>","null","","","","","","",""
"null","","image-keyboard-response","602","744851","0.0-8.0-0.7","","img/green.png","null","trial","32","false","0.8,0.2","go_c","",""
"null","","html-keyboard-response","603","745857","0.0-8.0-1.7","","<img src=""img/green-n.png"">","null","trial","32","","0.8,0.2","go_c","0",""
"null","","html-keyboard-response","604","746858","0.0-8.0-2.7","","<div style=""font-size:60px;"">+</div>","null","","","","","","",""
"null","","image-keyboard-response","605","748364","0.0-8.0-0.8","","img/green.png","null","trial","32","false","0.8,0.2","go_c","",""
"null","","html-keyboard-response","606","749369","0.0-8.0-1.8","","<img src=""img/green-n.png"">","null","trial","32","","0.8,0.2","go_c","0",""
"null","","html-keyboard-response","607","750373","0.0-8.0-2.8","","<div style=""font-size:60px;"">+</div>","null","","","","","","",""
"null","","image-keyboard-response","608","751874","0.0-8.0-0.9","","img/grey.png","null","trial","32","false","0.8,0.2","go_a","",""
"null","","html-keyboard-response","609","752876","0.0-8.0-1.9","","<img src=""img/grey-r.png"">","null","trial","32","","0.8,0.2","go_a","1",""
"null","","html-keyboard-response","610","753887","0.0-8.0-2.9","","<div style=""font-size:60px;"">+</div>","null","","","","","","",""
"null","","image-keyboard-response","611","755389","0.0-8.0-0.10","","img/orange.png","null","trial","null","true","0.2,0.8","nogo_d","",""
"null","","html-keyboard-response","612","756393","0.0-8.0-1.10","","<img src=""img/orange-r.png"">","null","trial","null","","0.2,0.8","nogo_d","1",""
"null","","html-keyboard-response","613","757398","0.0-8.0-2.10","","<div style=""font-size:60px;"">+</div>","null","","","","","","",""
"null","","image-keyboard-response","614","758901","0.0-8.0-0.11","","img/red.png","null","trial","null","true","0.2,0.8","nogo_b","",""
"null","","html-keyboard-response","615","759908","0.0-8.0-1.11","","<img src=""img/red-r.png"">","null","trial","null","","0.2,0.8","nogo_b","1",""
"null","","html-keyboard-response","616","760913","0.0-8.0-2.11","","<div style=""font-size:60px;"">+</div>","null","","","","","","",""
"719.550000037998","","image-keyboard-response","617","761634","0.0-8.0-0.12","","img/orange.png","32","trial","null","false","0.2,0.8","nogo_d","",""
"null","","html-keyboard-response","618","762649","0.0-8.0-1.12","","<img src=""img/orange-n.png"" border=""10"">","null","trial","null","","0.2,0.8","nogo_d","0",""
"null","","html-keyboard-response","619","763655","0.0-8.0-2.12","","<div style=""font-size:60px;"">+</div>","null","","","","","","",""
"null","","image-keyboard-response","620","765156","0.0-8.0-0.13","","img/green.png","null","trial","32","false","0.8,0.2","go_c","",""
"null","","html-keyboard-response","621","766158","0.0-8.0-1.13","","<img src=""img/green-n.png"">","null","trial","32","","0.8,0.2","go_c","0",""
"null","","html-keyboard-response","622","767166","0.0-8.0-2.13","","<div style=""font-size:60px;"">+</div>","null","","","","","","",""
"null","","image-keyboard-response","623","768683","0.0-8.0-0.14","","img/red.png","null","trial","null","true","0.2,0.8","nogo_b","",""
"null","","html-keyboard-response","624","769690","0.0-8.0-1.14","","<img src=""img/red-r.png"">","null","trial","null","","0.2,0.8","nogo_b","1",""
"null","","html-keyboard-response","625","770698","0.0-8.0-2.14","","<div style=""font-size:60px;"">+</div>","null","","","","","","",""
"1311.9999999180436","","image-keyboard-response","626","772010","0.0-8.0-0.15","","img/grey.png","32","trial","32","true","0.8,0.2","go_a","",""
"null","","html-keyboard-response","627","773019","0.0-8.0-1.15","","<img src=""img/grey-r.png"" border=""10"">","null","trial","32","","0.8,0.2","go_a","1",""
"null","","html-keyboard-response","628","774023","0.0-8.0-2.15","","<div style=""font-size:60px;"">+</div>","null","","","","","","",""
"755.2799999248236","","image-keyboard-response","629","774779","0.0-8.0-0.16","","img/grey.png","32","trial","32","true","0.8,0.2","go_a","",""
"null","","html-keyboard-response","630","775787","0.0-8.0-1.16","","<img src=""img/grey-r.png"" border=""10"">","null","trial","32","","0.8,0.2","go_a","1",""
"null","","html-keyboard-response","631","776792","0.0-8.0-2.16","","<div style=""font-size:60px;"">+</div>","null","","","","","","",""
"890.8299999311566","","image-keyboard-response","632","777684","0.0-8.0-0.17","","img/orange.png","32","trial","null","false","0.2,0.8","nogo_d","",""
"null","","html-keyboard-response","633","778694","0.0-8.0-1.17","","<img src=""img/orange-n.png"" border=""10"">","null","trial","null","","0.2,0.8","nogo_d","0",""
"null","","html-keyboard-response","634","779701","0.0-8.0-2.17","","<div style=""font-size:60px;"">+</div>","null","","","","","","",""
"814.6600001491606","","image-keyboard-response","635","780517","0.0-8.0-0.18","","img/red.png","32","trial","null","false","0.2,0.8","nogo_b","",""
"null","","html-keyboard-response","636","781528","0.0-8.0-1.18","","<img src=""img/red-r.png"" border=""10"">","null","trial","null","","0.2,0.8","nogo_b","1",""
"null","","html-keyboard-response","637","782533","0.0-8.0-2.18","","<div style=""font-size:60px;"">+</div>","null","","","","","","",""
"null","","image-keyboard-response","638","784050","0.0-8.0-0.19","","img/green.png","null","trial","32","false","0.8,0.2","go_c","",""
"null","","html-keyboard-response","639","785055","0.0-8.0-1.19","","<img src=""img/green-n.png"">","null","trial","32","","0.8,0.2","go_c","0",""
"null","","html-keyboard-response","640","786062","0.0-8.0-2.19","","<div style=""font-size:60px;"">+</div>","null","","","","","","",""
"461.42999990843236","","image-keyboard-response","641","786524","0.0-8.0-0.20","","img/green.png","32","trial","32","true","0.8,0.2","go_c","",""
"null","","html-keyboard-response","642","787534","0.0-8.0-1.20","","<img src=""img/green-n.png"" border=""10"">","null","trial","32","","0.8,0.2","go_c","0",""
"null","","html-keyboard-response","643","788538","0.0-8.0-2.20","","<div style=""font-size:60px;"">+</div>","null","","","","","","",""
"778.0400000046939","","image-keyboard-response","644","789317","0.0-8.0-0.21","","img/orange.png","32","trial","null","false","0.2,0.8","nogo_d","",""
"null","","html-keyboard-response","645","790334","0.0-8.0-1.21","","<img src=""img/orange-n.png"" border=""10"">","null","trial","null","","0.2,0.8","nogo_d","0",""
"null","","html-keyboard-response","646","791339","0.0-8.0-2.21","","<div style=""font-size:60px;"">+</div>","null","","","","","","",""
"569.1949999891222","","image-keyboard-response","647","791908","0.0-8.0-0.22","","img/red.png","32","trial","null","false","0.2,0.8","nogo_b","",""
"null","","html-keyboard-response","648","792918","0.0-8.0-1.22","","<img src=""img/red-r.png"" border=""10"">","null","trial","null","","0.2,0.8","nogo_b","1",""
"null","","html-keyboard-response","649","793925","0.0-8.0-2.22","","<div style=""font-size:60px;"">+</div>","null","","","","","","",""
"767.130000051111","","image-keyboard-response","650","794693","0.0-8.0-0.23","","img/grey.png","32","trial","32","true","0.8,0.2","go_a","",""
"null","","html-keyboard-response","651","795704","0.0-8.0-1.23","","<img src=""img/grey-r.png"" border=""10"">","null","trial","32","","0.8,0.2","go_a","1",""
"null","","html-keyboard-response","652","796712","0.0-8.0-2.23","","<div style=""font-size:60px;"">+</div>","null","","","","","","",""
"548.9900000393391","","image-keyboard-response","653","797261","0.0-8.0-0.24","","img/grey.png","32","trial","32","true","0.8,0.2","go_a","",""
"null","","html-keyboard-response","654","798275","0.0-8.0-1.24","","<img src=""img/grey-n.png"" border=""10"">","null","trial","32","","0.8,0.2","go_a","0",""
"null","","html-keyboard-response","655","799279","0.0-8.0-2.24","","<div style=""font-size:60px;"">+</div>","null","","","","","","",""
"774.1600000299513","","image-keyboard-response","656","800053","0.0-8.0-0.25","","img/orange.png","32","trial","null","false","0.2,0.8","nogo_d","",""
"null","","html-keyboard-response","657","801057","0.0-8.0-1.25","","<img src=""img/orange-n.png"" border=""10"">","null","trial","null","","0.2,0.8","nogo_d","0",""
"null","","html-keyboard-response","658","802063","0.0-8.0-2.25","","<div style=""font-size:60px;"">+</div>","null","","","","","","",""
"725.7849997840822","","image-keyboard-response","659","802790","0.0-8.0-0.26","","img/red.png","32","trial","null","false","0.2,0.8","nogo_b","",""
"null","","html-keyboard-response","660","803797","0.0-8.0-1.26","","<img src=""img/red-n.png"" border=""10"">","null","trial","null","","0.2,0.8","nogo_b","0",""
"null","","html-keyboard-response","661","804804","0.0-8.0-2.26","","<div style=""font-size:60px;"">+</div>","null","","","","","","",""
"null","","image-keyboard-response","662","806319","0.0-8.0-0.27","","img/green.png","null","trial","32","false","0.8,0.2","go_c","",""
"null","","html-keyboard-response","663","807323","0.0-8.0-1.27","","<img src=""img/green-n.png"">","null","trial","32","","0.8,0.2","go_c","0",""
"null","","html-keyboard-response","664","808327","0.0-8.0-2.27","","<div style=""font-size:60px;"">+</div>","null","","","","","","",""
"631.1300001107156","","image-keyboard-response","665","808959","0.0-8.0-0.28","","img/grey.png","32","trial","32","true","0.8,0.2","go_a","",""
"null","","html-keyboard-response","666","809968","0.0-8.0-1.28","","<img src=""img/grey-r.png"" border=""10"">","null","trial","32","","0.8,0.2","go_a","1",""
"null","","html-keyboard-response","667","810973","0.0-8.0-2.28","","<div style=""font-size:60px;"">+</div>","null","","","","","","",""
"793.1749999988824","","image-keyboard-response","668","811767","0.0-8.0-0.29","","img/red.png","32","trial","null","false","0.2,0.8","nogo_b","",""
"null","","html-keyboard-response","669","812768","0.0-8.0-1.29","","<img src=""img/red-n.png"" border=""10"">","null","trial","null","","0.2,0.8","nogo_b","0",""
"null","","html-keyboard-response","670","813775","0.0-8.0-2.29","","<div style=""font-size:60px;"">+</div>","null","","","","","","",""
"null","","image-keyboard-response","671","815290","0.0-8.0-0.30","","img/orange.png","null","trial","null","true","0.2,0.8","nogo_d","",""
"null","","html-keyboard-response","672","816295","0.0-8.0-1.30","","<img src=""img/orange-r.png"">","null","trial","null","","0.2,0.8","nogo_d","1",""
"null","","html-keyboard-response","673","817300","0.0-8.0-2.30","","<div style=""font-size:60px;"">+</div>","null","","","","","","",""
"579.2400001082569","","image-keyboard-response","674","817880","0.0-8.0-0.31","","img/green.png","32","trial","32","true","0.8,0.2","go_c","",""
"null","","html-keyboard-response","675","818895","0.0-8.0-1.31","","<img src=""img/green-r.png"" border=""10"">","null","trial","32","","0.8,0.2","go_c","1",""
"null","","html-keyboard-response","676","819900","0.0-8.0-2.31","","<div style=""font-size:60px;"">+</div>","null","","","","","","",""
"507.5950000900775","","image-keyboard-response","677","820408","0.0-8.0-0.32","","img/green.png","32","trial","32","true","0.8,0.2","go_c","",""
"null","","html-keyboard-response","678","821417","0.0-8.0-1.32","","<img src=""img/green-r.png"" border=""10"">","null","trial","32","","0.8,0.2","go_c","1",""
"null","","html-keyboard-response","679","822424","0.0-8.0-2.32","","<div style=""font-size:60px;"">+</div>","null","","","","","","",""
"911.7999998852611","","image-keyboard-response","680","823336","0.0-8.0-0.33","","img/red.png","32","trial","null","false","0.2,0.8","nogo_b","",""
"null","","html-keyboard-response","681","824345","0.0-8.0-1.33","","<img src=""img/red-n.png"" border=""10"">","null","trial","null","","0.2,0.8","nogo_b","0",""
"null","","html-keyboard-response","682","825348","0.0-8.0-2.33","","<div style=""font-size:60px;"">+</div>","null","","","","","","",""
"571.7549999244511","","image-keyboard-response","683","825921","0.0-8.0-0.34","","img/grey.png","32","trial","32","true","0.8,0.2","go_a","",""
"null","","html-keyboard-response","684","826926","0.0-8.0-1.34","","<img src=""img/grey-r.png"" border=""10"">","null","trial","32","","0.8,0.2","go_a","1",""
"null","","html-keyboard-response","685","827932","0.0-8.0-2.34","","<div style=""font-size:60px;"">+</div>","null","","","","","","",""
