"rt","url","trial_type","trial_index","time_elapsed","internal_node_id","view_history","stimulus","key_press","test_part","correct_response","correct","use_rew","which_stim","reward","responses"
"4349.885000032373","consent.html","external-html","0","4401","0.0-0.0","","","","","","","","","",""
"417916.685000062","","instructions","1","422321","0.0-1.0","[{""page_index"":0,""viewing_time"":25519.48000001721},{""page_index"":1,""viewing_time"":224545.97500001546},{""page_index"":2,""viewing_time"":73024.04499996919},{""page_index"":3,""viewing_time"":59058.59000002965},{""page_index"":4,""viewing_time"":23497.719999984838},{""page_index"":5,""viewing_time"":10043.83500001859},{""page_index"":6,""viewing_time"":2226.2099999934435}]","","","","","","","","",""
"1143.9750000135973","","image-keyboard-response","2","423467","0.0-2.0-0.0","","img/test1.PNG","32","practice","32","true","","","",""
"null","","html-keyboard-response","3","424475","0.0-2.0-1.0","","<img src=""img/test1-reward.PNG"" border=""10px; grey"">","null","","","","","","",""
"null","","html-keyboard-response","4","425488","0.0-2.0-2.0","","<div style=""font-size:60px;"">+</div>","null","","","","","","",""
"null","","image-keyboard-response","5","426989","0.0-2.0-0.1","","img/test2.PNG","null","practice","null","true","","","",""
"null","","html-keyboard-response","6","428001","0.0-2.0-1.1","","<img src=""img/test2-reward.PNG"">","null","","","","","","",""
"null","","html-keyboard-response","7","429005","0.0-2.0-2.1","","<div style=""font-size:60px;"">+</div>","null","","","","","","",""
"1052.265000063926","","image-keyboard-response","8","430058","0.0-2.0-0.2","","img/test3.PNG","32","practice","null","false","","","",""
"null","","html-keyboard-response","9","431065","0.0-2.0-1.2","","<img src=""img/test3-neutral.PNG"" border=""10px; grey"">","null","","","","","","",""
"null","","html-keyboard-response","10","432077","0.0-2.0-2.2","","<div style=""font-size:60px;"">+</div>","null","","","","","","",""
"739.629999967292","","image-keyboard-response","11","432818","0.0-2.0-0.3","","img/test1.PNG","32","practice","32","true","","","",""
"null","","html-keyboard-response","12","433830","0.0-2.0-1.3","","<img src=""img/test1-reward.PNG"" border=""10px; grey"">","null","","","","","","",""
"null","","html-keyboard-response","13","434842","0.0-2.0-2.3","","<div style=""font-size:60px;"">+</div>","null","","","","","","",""
"1022.8949999436736","","image-keyboard-response","14","435866","0.0-2.0-0.4","","img/test3.PNG","32","practice","null","false","","","",""
"null","","html-keyboard-response","15","436878","0.0-2.0-1.4","","<img src=""img/test3-neutral.PNG"" border=""10px; grey"">","null","","","","","","",""
"null","","html-keyboard-response","16","437890","0.0-2.0-2.4","","<div style=""font-size:60px;"">+</div>","null","","","","","","",""
"null","","image-keyboard-response","17","439397","0.0-2.0-0.5","","img/test2.PNG","null","practice","null","true","","","",""
"null","","html-keyboard-response","18","440406","0.0-2.0-1.5","","<img src=""img/test2-reward.PNG"">","null","","","","","","",""
"null","","html-keyboard-response","19","441407","0.0-2.0-2.5","","<div style=""font-size:60px;"">+</div>","null","","","","","","",""
"978.1900000525638","","image-keyboard-response","20","442386","0.0-2.0-0.6","","img/test3.PNG","32","practice","null","false","","","",""
"null","","html-keyboard-response","21","443390","0.0-2.0-1.6","","<img src=""img/test3-neutral.PNG"" border=""10px; grey"">","null","","","","","","",""
"null","","html-keyboard-response","22","444397","0.0-2.0-2.6","","<div style=""font-size:60px;"">+</div>","null","","","","","","",""
"515.7649999018759","","image-keyboard-response","23","444914","0.0-2.0-0.7","","img/test1.PNG","32","practice","32","true","","","",""
"null","","html-keyboard-response","24","445927","0.0-2.0-1.7","","<img src=""img/test1-reward.PNG"" border=""10px; grey"">","null","","","","","","",""
"null","","html-keyboard-response","25","446933","0.0-2.0-2.7","","<div style=""font-size:60px;"">+</div>","null","","","","","","",""
"517.1700000064448","","image-keyboard-response","26","447450","0.0-2.0-0.8","","img/test2.PNG","32","practice","null","false","","","",""
"null","","html-keyboard-response","27","448456","0.0-2.0-1.8","","<img src=""img/test2-neutral.PNG"" border=""10px; grey"">","null","","","","","","",""
"null","","html-keyboard-response","28","449465","0.0-2.0-2.8","","<div style=""font-size:60px;"">+</div>","null","","","","","","",""
"976.714999997057","","image-keyboard-response","29","450442","0.0-2.0-0.9","","img/test1.PNG","32","practice","32","true","","","",""
"null","","html-keyboard-response","30","451458","0.0-2.0-1.9","","<img src=""img/test1-reward.PNG"" border=""10px; grey"">","null","","","","","","",""
"null","","html-keyboard-response","31","452465","0.0-2.0-2.9","","<div style=""font-size:60px;"">+</div>","null","","","","","","",""
"761.4299999549985","","image-keyboard-response","32","453227","0.0-2.0-0.10","","img/test3.PNG","32","practice","null","false","","","",""
"null","","html-keyboard-response","33","454238","0.0-2.0-1.10","","<img src=""img/test3-neutral.PNG"" border=""10px; grey"">","null","","","","","","",""
"null","","html-keyboard-response","34","455244","0.0-2.0-2.10","","<div style=""font-size:60px;"">+</div>","null","","","","","","",""
"null","","image-keyboard-response","35","456747","0.0-2.0-0.11","","img/test2.PNG","null","practice","null","true","","","",""
"null","","html-keyboard-response","36","457758","0.0-2.0-1.11","","<img src=""img/test2-reward.PNG"">","null","","","","","","",""
"null","","html-keyboard-response","37","458769","0.0-2.0-2.11","","<div style=""font-size:60px;"">+</div>","null","","","","","","",""
"1517.1550000086427","","instructions","38","460286","0.0-3.0","[{""page_index"":0,""viewing_time"":1516.840000054799}]","","","","","","","","",""
"995.3449999447912","","image-keyboard-response","39","461282","0.0-4.0-0.0","","img/blue.png","32","trial","32","true","0.8,0.2","1:go_a","",""
"null","","html-keyboard-response","40","462298","0.0-4.0-1.0","","<img src=""img/blue-r.png"" border=""10"">","null","trial","32","","0.8,0.2","1:go_a","1",""
"null","","html-keyboard-response","41","463310","0.0-4.0-2.0","","<div style=""font-size:60px;"">+</div>","null","","","","","","",""
"644.3549999967217","","image-keyboard-response","42","463954","0.0-4.0-0.1","","img/red.png","32","trial","null","false","0.2,0.8","2:nogo_b","",""
"null","","html-keyboard-response","43","464971","0.0-4.0-1.1","","<img src=""img/red-r.png"" border=""10"">","null","trial","null","","0.2,0.8","2:nogo_b","1",""
"null","","html-keyboard-response","44","465982","0.0-4.0-2.1","","<div style=""font-size:60px;"">+</div>","null","","","","","","",""
"556.2050000298768","","image-keyboard-response","45","466538","0.0-4.0-0.2","","img/blue.png","32","trial","32","true","0.8,0.2","1:go_a","",""
"null","","html-keyboard-response","46","467540","0.0-4.0-1.2","","<img src=""img/blue-r.png"" border=""10"">","null","trial","32","","0.8,0.2","1:go_a","1",""
"null","","html-keyboard-response","47","468549","0.0-4.0-2.2","","<div style=""font-size:60px;"">+</div>","null","","","","","","",""
"420.38000002503395","","image-keyboard-response","48","468970","0.0-4.0-0.3","","img/red.png","32","trial","null","false","0.2,0.8","2:nogo_b","",""
"null","","html-keyboard-response","49","469974","0.0-4.0-1.3","","<img src=""img/red-n.png"" border=""10"">","null","trial","null","","0.2,0.8","2:nogo_b","0",""
"null","","html-keyboard-response","50","470979","0.0-4.0-2.3","","<div style=""font-size:60px;"">+</div>","null","","","","","","",""
"359.79999997653067","","image-keyboard-response","51","471339","0.0-4.0-0.4","","img/blue.png","32","trial","32","true","0.8,0.2","1:go_a","",""
"null","","html-keyboard-response","52","472342","0.0-4.0-1.4","","<img src=""img/blue-r.png"" border=""10"">","null","trial","32","","0.8,0.2","1:go_a","1",""
"null","","html-keyboard-response","53","473352","0.0-4.0-2.4","","<div style=""font-size:60px;"">+</div>","null","","","","","","",""
"null","","image-keyboard-response","54","474856","0.0-4.0-0.5","","img/red.png","null","trial","null","true","0.2,0.8","2:nogo_b","",""
"null","","html-keyboard-response","55","475860","0.0-4.0-1.5","","<img src=""img/red-r.png"">","null","trial","null","","0.2,0.8","2:nogo_b","1",""
"null","","html-keyboard-response","56","476868","0.0-4.0-2.5","","<div style=""font-size:60px;"">+</div>","null","","","","","","",""
"null","","image-keyboard-response","57","478372","0.0-4.0-0.6","","img/red.png","null","trial","null","true","0.2,0.8","2:nogo_b","",""
"null","","html-keyboard-response","58","479382","0.0-4.0-1.6","","<img src=""img/red-r.png"">","null","trial","null","","0.2,0.8","2:nogo_b","1",""
"null","","html-keyboard-response","59","480394","0.0-4.0-2.6","","<div style=""font-size:60px;"">+</div>","null","","","","","","",""
"440.085000009276","","image-keyboard-response","60","480835","0.0-4.0-0.7","","img/blue.png","32","trial","32","true","0.8,0.2","1:go_a","",""
"null","","html-keyboard-response","61","481851","0.0-4.0-1.7","","<img src=""img/blue-n.png"" border=""10"">","null","trial","32","","0.8,0.2","1:go_a","0",""
"null","","html-keyboard-response","62","482858","0.0-4.0-2.7","","<div style=""font-size:60px;"">+</div>","null","","","","","","",""
"null","","image-keyboard-response","63","484362","0.0-4.0-0.8","","img/blue.png","null","trial","32","false","0.8,0.2","1:go_a","",""
"null","","html-keyboard-response","64","485367","0.0-4.0-1.8","","<img src=""img/blue-n.png"">","null","trial","32","","0.8,0.2","1:go_a","0",""
"null","","html-keyboard-response","65","486377","0.0-4.0-2.8","","<div style=""font-size:60px;"">+</div>","null","","","","","","",""
"376.76999997347593","","image-keyboard-response","66","486755","0.0-4.0-0.9","","img/red.png","32","trial","null","false","0.2,0.8","2:nogo_b","",""
"null","","html-keyboard-response","67","487762","0.0-4.0-1.9","","<img src=""img/red-n.png"" border=""10"">","null","trial","null","","0.2,0.8","2:nogo_b","0",""
"null","","html-keyboard-response","68","488768","0.0-4.0-2.9","","<div style=""font-size:60px;"">+</div>","null","","","","","","",""
"538.7050000717863","","image-keyboard-response","69","489307","0.0-4.0-0.10","","img/blue.png","32","trial","32","true","0.8,0.2","1:go_a","",""
"null","","html-keyboard-response","70","490317","0.0-4.0-1.10","","<img src=""img/blue-r.png"" border=""10"">","null","trial","32","","0.8,0.2","1:go_a","1",""
"null","","html-keyboard-response","71","491321","0.0-4.0-2.10","","<div style=""font-size:60px;"">+</div>","null","","","","","","",""
"null","","image-keyboard-response","72","492828","0.0-4.0-0.11","","img/red.png","null","trial","null","true","0.2,0.8","2:nogo_b","",""
"null","","html-keyboard-response","73","493833","0.0-4.0-1.11","","<img src=""img/red-r.png"">","null","trial","null","","0.2,0.8","2:nogo_b","1",""
"null","","html-keyboard-response","74","494843","0.0-4.0-2.11","","<div style=""font-size:60px;"">+</div>","null","","","","","","",""
"398.8900000695139","","image-keyboard-response","75","495242","0.0-4.0-0.12","","img/blue.png","32","trial","32","true","0.8,0.2","1:go_a","",""
"null","","html-keyboard-response","76","496246","0.0-4.0-1.12","","<img src=""img/blue-r.png"" border=""10"">","null","trial","32","","0.8,0.2","1:go_a","1",""
"null","","html-keyboard-response","77","497257","0.0-4.0-2.12","","<div style=""font-size:60px;"">+</div>","null","","","","","","",""
"null","","image-keyboard-response","78","498764","0.0-4.0-0.13","","img/red.png","null","trial","null","true","0.2,0.8","2:nogo_b","",""
"null","","html-keyboard-response","79","499775","0.0-4.0-1.13","","<img src=""img/red-r.png"">","null","trial","null","","0.2,0.8","2:nogo_b","1",""
"null","","html-keyboard-response","80","500790","0.0-4.0-2.13","","<div style=""font-size:60px;"">+</div>","null","","","","","","",""
"null","","image-keyboard-response","81","502297","0.0-4.0-0.14","","img/red.png","null","trial","null","true","0.2,0.8","2:nogo_b","",""
"null","","html-keyboard-response","82","503307","0.0-4.0-1.14","","<img src=""img/red-n.png"">","null","trial","null","","0.2,0.8","2:nogo_b","0",""
"null","","html-keyboard-response","83","504324","0.0-4.0-2.14","","<div style=""font-size:60px;"">+</div>","null","","","","","","",""
"517.4950000364333","","image-keyboard-response","84","504842","0.0-4.0-0.15","","img/blue.png","32","trial","32","true","0.8,0.2","1:go_a","",""
"null","","html-keyboard-response","85","505848","0.0-4.0-1.15","","<img src=""img/blue-n.png"" border=""10"">","null","trial","32","","0.8,0.2","1:go_a","0",""
"null","","html-keyboard-response","86","506861","0.0-4.0-2.15","","<div style=""font-size:60px;"">+</div>","null","","","","","","",""
"null","","image-keyboard-response","87","508365","0.0-4.0-0.16","","img/red.png","null","trial","null","true","0.2,0.8","2:nogo_b","",""
"null","","html-keyboard-response","88","509377","0.0-4.0-1.16","","<img src=""img/red-r.png"">","null","trial","null","","0.2,0.8","2:nogo_b","1",""
"null","","html-keyboard-response","89","510391","0.0-4.0-2.16","","<div style=""font-size:60px;"">+</div>","null","","","","","","",""
"586.5350000094622","","image-keyboard-response","90","510978","0.0-4.0-0.17","","img/blue.png","32","trial","32","true","0.8,0.2","1:go_a","",""
"null","","html-keyboard-response","91","511983","0.0-4.0-1.17","","<img src=""img/blue-r.png"" border=""10"">","null","trial","32","","0.8,0.2","1:go_a","1",""
"null","","html-keyboard-response","92","512992","0.0-4.0-2.17","","<div style=""font-size:60px;"">+</div>","null","","","","","","",""
"null","","image-keyboard-response","93","514496","0.0-4.0-0.18","","img/red.png","null","trial","null","true","0.2,0.8","2:nogo_b","",""
"null","","html-keyboard-response","94","515505","0.0-4.0-1.18","","<img src=""img/red-r.png"">","null","trial","null","","0.2,0.8","2:nogo_b","1",""
"null","","html-keyboard-response","95","516512","0.0-4.0-2.18","","<div style=""font-size:60px;"">+</div>","null","","","","","","",""
"410.18000000622123","","image-keyboard-response","96","516922","0.0-4.0-0.19","","img/blue.png","32","trial","32","true","0.8,0.2","1:go_a","",""
"null","","html-keyboard-response","97","517924","0.0-4.0-1.19","","<img src=""img/blue-r.png"" border=""10"">","null","trial","32","","0.8,0.2","1:go_a","1",""
"null","","html-keyboard-response","98","518936","0.0-4.0-2.19","","<div style=""font-size:60px;"">+</div>","null","","","","","","",""
"null","","image-keyboard-response","99","520437","0.0-4.0-0.20","","img/red.png","null","trial","null","true","0.2,0.8","2:nogo_b","",""
"null","","html-keyboard-response","100","521448","0.0-4.0-1.20","","<img src=""img/red-r.png"">","null","trial","null","","0.2,0.8","2:nogo_b","1",""
"null","","html-keyboard-response","101","522458","0.0-4.0-2.20","","<div style=""font-size:60px;"">+</div>","null","","","","","","",""
"1063.8899999903515","","image-keyboard-response","102","523522","0.0-4.0-0.21","","img/blue.png","32","trial","32","true","0.8,0.2","1:go_a","",""
"null","","html-keyboard-response","103","524535","0.0-4.0-1.21","","<img src=""img/blue-r.png"" border=""10"">","null","trial","32","","0.8,0.2","1:go_a","1",""
"null","","html-keyboard-response","104","525540","0.0-4.0-2.21","","<div style=""font-size:60px;"">+</div>","null","","","","","","",""
"null","","image-keyboard-response","105","527042","0.0-4.0-0.22","","img/red.png","null","trial","null","true","0.2,0.8","2:nogo_b","",""
"null","","html-keyboard-response","106","528044","0.0-4.0-1.22","","<img src=""img/red-r.png"">","null","trial","null","","0.2,0.8","2:nogo_b","1",""
"null","","html-keyboard-response","107","529052","0.0-4.0-2.22","","<div style=""font-size:60px;"">+</div>","null","","","","","","",""
"1198.1049999594688","","image-keyboard-response","108","530250","0.0-4.0-0.23","","img/blue.png","32","trial","32","true","0.8,0.2","1:go_a","",""
"null","","html-keyboard-response","109","531262","0.0-4.0-1.23","","<img src=""img/blue-r.png"" border=""10"">","null","trial","32","","0.8,0.2","1:go_a","1",""
"null","","html-keyboard-response","110","532271","0.0-4.0-2.23","","<div style=""font-size:60px;"">+</div>","null","","","","","","",""
"762.8699999768287","","image-keyboard-response","111","533034","0.0-4.0-0.24","","img/blue.png","32","trial","32","true","0.8,0.2","1:go_a","",""
"null","","html-keyboard-response","112","534038","0.0-4.0-1.24","","<img src=""img/blue-n.png"" border=""10"">","null","trial","32","","0.8,0.2","1:go_a","0",""
"null","","html-keyboard-response","113","535041","0.0-4.0-2.24","","<div style=""font-size:60px;"">+</div>","null","","","","","","",""
"null","","image-keyboard-response","114","536557","0.0-4.0-0.25","","img/red.png","null","trial","null","true","0.2,0.8","2:nogo_b","",""
"null","","html-keyboard-response","115","537564","0.0-4.0-1.25","","<img src=""img/red-r.png"">","null","trial","null","","0.2,0.8","2:nogo_b","1",""
"null","","html-keyboard-response","116","538572","0.0-4.0-2.25","","<div style=""font-size:60px;"">+</div>","null","","","","","","",""
"957.909999997355","","image-keyboard-response","117","539530","0.0-4.0-0.26","","img/blue.png","32","trial","32","true","0.8,0.2","1:go_a","",""
"null","","html-keyboard-response","118","540538","0.0-4.0-1.26","","<img src=""img/blue-r.png"" border=""10"">","null","trial","32","","0.8,0.2","1:go_a","1",""
"null","","html-keyboard-response","119","541547","0.0-4.0-2.26","","<div style=""font-size:60px;"">+</div>","null","","","","","","",""
"null","","image-keyboard-response","120","543050","0.0-4.0-0.27","","img/red.png","null","trial","null","true","0.2,0.8","2:nogo_b","",""
"null","","html-keyboard-response","121","544059","0.0-4.0-1.27","","<img src=""img/red-r.png"">","null","trial","null","","0.2,0.8","2:nogo_b","1",""
"null","","html-keyboard-response","122","545067","0.0-4.0-2.27","","<div style=""font-size:60px;"">+</div>","null","","","","","","",""
"727.6549999369308","","image-keyboard-response","123","545795","0.0-4.0-0.28","","img/blue.png","32","trial","32","true","0.8,0.2","1:go_a","",""
"null","","html-keyboard-response","124","546805","0.0-4.0-1.28","","<img src=""img/blue-r.png"" border=""10"">","null","trial","32","","0.8,0.2","1:go_a","1",""
"null","","html-keyboard-response","125","547819","0.0-4.0-2.28","","<div style=""font-size:60px;"">+</div>","null","","","","","","",""
"null","","image-keyboard-response","126","549322","0.0-4.0-0.29","","img/red.png","null","trial","null","true","0.2,0.8","2:nogo_b","",""
"null","","html-keyboard-response","127","550326","0.0-4.0-1.29","","<img src=""img/red-r.png"">","null","trial","null","","0.2,0.8","2:nogo_b","1",""
"null","","html-keyboard-response","128","551335","0.0-4.0-2.29","","<div style=""font-size:60px;"">+</div>","null","","","","","","",""
"754.6099999453872","","image-keyboard-response","129","552090","0.0-4.0-0.30","","img/blue.png","32","trial","32","true","0.8,0.2","1:go_a","",""
"null","","html-keyboard-response","130","553092","0.0-4.0-1.30","","<img src=""img/blue-n.png"" border=""10"">","null","trial","32","","0.8,0.2","1:go_a","0",""
"null","","html-keyboard-response","131","554104","0.0-4.0-2.30","","<div style=""font-size:60px;"">+</div>","null","","","","","","",""
"null","","image-keyboard-response","132","555605","0.0-4.0-0.31","","img/red.png","null","trial","null","true","0.2,0.8","2:nogo_b","",""
"null","","html-keyboard-response","133","556615","0.0-4.0-1.31","","<img src=""img/red-r.png"">","null","trial","null","","0.2,0.8","2:nogo_b","1",""
"null","","html-keyboard-response","134","557622","0.0-4.0-2.31","","<div style=""font-size:60px;"">+</div>","null","","","","","","",""
"547.8100000182167","","image-keyboard-response","135","558170","0.0-4.0-0.32","","img/blue.png","32","trial","32","true","0.8,0.2","1:go_a","",""
"null","","html-keyboard-response","136","559176","0.0-4.0-1.32","","<img src=""img/blue-r.png"" border=""10"">","null","trial","32","","0.8,0.2","1:go_a","1",""
"null","","html-keyboard-response","137","560181","0.0-4.0-2.32","","<div style=""font-size:60px;"">+</div>","null","","","","","","",""
"null","","image-keyboard-response","138","561689","0.0-4.0-0.33","","img/red.png","null","trial","null","true","0.2,0.8","2:nogo_b","",""
"null","","html-keyboard-response","139","562698","0.0-4.0-1.33","","<img src=""img/red-r.png"">","null","trial","null","","0.2,0.8","2:nogo_b","1",""
"null","","html-keyboard-response","140","563710","0.0-4.0-2.33","","<div style=""font-size:60px;"">+</div>","null","","","","","","",""
"403.76000001560897","","image-keyboard-response","141","564114","0.0-4.0-0.34","","img/blue.png","32","trial","32","true","0.8,0.2","1:go_a","",""
"null","","html-keyboard-response","142","565128","0.0-4.0-1.34","","<img src=""img/blue-r.png"" border=""10"">","null","trial","32","","0.8,0.2","1:go_a","1",""
"null","","html-keyboard-response","143","566136","0.0-4.0-2.34","","<div style=""font-size:60px;"">+</div>","null","","","","","","",""
"null","","image-keyboard-response","144","567640","0.0-4.0-0.35","","img/red.png","null","trial","null","true","0.2,0.8","2:nogo_b","",""
"null","","html-keyboard-response","145","568643","0.0-4.0-1.35","","<img src=""img/red-r.png"">","null","trial","null","","0.2,0.8","2:nogo_b","1",""
"null","","html-keyboard-response","146","569651","0.0-4.0-2.35","","<div style=""font-size:60px;"">+</div>","null","","","","","","",""
"null","","image-keyboard-response","147","571163","0.0-4.0-0.36","","img/red.png","null","trial","null","true","0.2,0.8","2:nogo_b","",""
"null","","html-keyboard-response","148","572165","0.0-4.0-1.36","","<img src=""img/red-r.png"">","null","trial","null","","0.2,0.8","2:nogo_b","1",""
"null","","html-keyboard-response","149","573175","0.0-4.0-2.36","","<div style=""font-size:60px;"">+</div>","null","","","","","","",""
"490.5149999540299","","image-keyboard-response","150","573666","0.0-4.0-0.37","","img/blue.png","32","trial","32","true","0.8,0.2","1:go_a","",""
"null","","html-keyboard-response","151","574676","0.0-4.0-1.37","","<img src=""img/blue-r.png"" border=""10"">","null","trial","32","","0.8,0.2","1:go_a","1",""
"null","","html-keyboard-response","152","575686","0.0-4.0-2.37","","<div style=""font-size:60px;"">+</div>","null","","","","","","",""
"null","","image-keyboard-response","153","577193","0.0-4.0-0.38","","img/blue.png","null","trial","32","false","0.8,0.2","1:go_a","",""
"null","","html-keyboard-response","154","578204","0.0-4.0-1.38","","<img src=""img/blue-n.png"">","null","trial","32","","0.8,0.2","1:go_a","0",""
"null","","html-keyboard-response","155","579212","0.0-4.0-2.38","","<div style=""font-size:60px;"">+</div>","null","","","","","","",""
"582.4550000252202","","image-keyboard-response","156","579795","0.0-4.0-0.39","","img/red.png","32","trial","null","false","0.2,0.8","2:nogo_b","",""
"null","","html-keyboard-response","157","580803","0.0-4.0-1.39","","<img src=""img/red-n.png"" border=""10"">","null","trial","null","","0.2,0.8","2:nogo_b","0",""
"null","","html-keyboard-response","158","581810","0.0-4.0-2.39","","<div style=""font-size:60px;"">+</div>","null","","","","","","",""
"null","","image-keyboard-response","159","583313","0.0-4.0-0.40","","img/red.png","null","trial","null","true","0.2,0.8","2:nogo_b","",""
"null","","html-keyboard-response","160","584325","0.0-4.0-1.40","","<img src=""img/red-r.png"">","null","trial","null","","0.2,0.8","2:nogo_b","1",""
"null","","html-keyboard-response","161","585336","0.0-4.0-2.40","","<div style=""font-size:60px;"">+</div>","null","","","","","","",""
"553.3900000154972","","image-keyboard-response","162","585890","0.0-4.0-0.41","","img/blue.png","32","trial","32","true","0.8,0.2","1:go_a","",""
"null","","html-keyboard-response","163","586899","0.0-4.0-1.41","","<img src=""img/blue-r.png"" border=""10"">","null","trial","32","","0.8,0.2","1:go_a","1",""
"null","","html-keyboard-response","164","587901","0.0-4.0-2.41","","<div style=""font-size:60px;"">+</div>","null","","","","","","",""
"636.7600000230595","","image-keyboard-response","165","588539","0.0-4.0-0.42","","img/blue.png","32","trial","32","true","0.8,0.2","1:go_a","",""
"null","","html-keyboard-response","166","589550","0.0-4.0-1.42","","<img src=""img/blue-r.png"" border=""10"">","null","trial","32","","0.8,0.2","1:go_a","1",""
"null","","html-keyboard-response","167","590563","0.0-4.0-2.42","","<div style=""font-size:60px;"">+</div>","null","","","","","","",""
"1047.2549999831244","","image-keyboard-response","168","591610","0.0-4.0-0.43","","img/red.png","32","trial","null","false","0.2,0.8","2:nogo_b","",""
"null","","html-keyboard-response","169","592624","0.0-4.0-1.43","","<img src=""img/red-n.png"" border=""10"">","null","trial","null","","0.2,0.8","2:nogo_b","0",""
"null","","html-keyboard-response","170","593632","0.0-4.0-2.43","","<div style=""font-size:60px;"">+</div>","null","","","","","","",""
"null","","image-keyboard-response","171","595138","0.0-4.0-0.44","","img/red.png","null","trial","null","true","0.2,0.8","2:nogo_b","",""
"null","","html-keyboard-response","172","596146","0.0-4.0-1.44","","<img src=""img/red-r.png"">","null","trial","null","","0.2,0.8","2:nogo_b","1",""
"null","","html-keyboard-response","173","597156","0.0-4.0-2.44","","<div style=""font-size:60px;"">+</div>","null","","","","","","",""
"421.3450000388548","","image-keyboard-response","174","597578","0.0-4.0-0.45","","img/blue.png","32","trial","32","true","0.8,0.2","1:go_a","",""
"null","","html-keyboard-response","175","598592","0.0-4.0-1.45","","<img src=""img/blue-n.png"" border=""10"">","null","trial","32","","0.8,0.2","1:go_a","0",""
"null","","html-keyboard-response","176","599603","0.0-4.0-2.45","","<div style=""font-size:60px;"">+</div>","null","","","","","","",""
"null","","image-keyboard-response","177","601110","0.0-4.0-0.46","","img/red.png","null","trial","null","true","0.2,0.8","2:nogo_b","",""
"null","","html-keyboard-response","178","602118","0.0-4.0-1.46","","<img src=""img/red-r.png"">","null","trial","null","","0.2,0.8","2:nogo_b","1",""
"null","","html-keyboard-response","179","603126","0.0-4.0-2.46","","<div style=""font-size:60px;"">+</div>","null","","","","","","",""
"508.49499995820224","","image-keyboard-response","180","603634","0.0-4.0-0.47","","img/blue.png","32","trial","32","true","0.8,0.2","1:go_a","",""
"null","","html-keyboard-response","181","604648","0.0-4.0-1.47","","<img src=""img/blue-r.png"" border=""10"">","null","trial","32","","0.8,0.2","1:go_a","1",""
"null","","html-keyboard-response","182","605655","0.0-4.0-2.47","","<div style=""font-size:60px;"">+</div>","null","","","","","","",""
"null","","image-keyboard-response","183","607160","0.0-4.0-0.48","","img/red.png","null","trial","null","true","0.2,0.8","2:nogo_b","",""
"null","","html-keyboard-response","184","608166","0.0-4.0-1.48","","<img src=""img/red-r.png"">","null","trial","null","","0.2,0.8","2:nogo_b","1",""
"null","","html-keyboard-response","185","609181","0.0-4.0-2.48","","<div style=""font-size:60px;"">+</div>","null","","","","","","",""
"428.650000016205","","image-keyboard-response","186","609610","0.0-4.0-0.49","","img/blue.png","32","trial","32","true","0.8,0.2","1:go_a","",""
"null","","html-keyboard-response","187","610613","0.0-4.0-1.49","","<img src=""img/blue-r.png"" border=""10"">","null","trial","32","","0.8,0.2","1:go_a","1",""
"null","","html-keyboard-response","188","611614","0.0-4.0-2.49","","<div style=""font-size:60px;"">+</div>","null","","","","","","",""
"null","","image-keyboard-response","189","613122","0.0-4.0-0.50","","img/red.png","null","trial","null","true","0.2,0.8","2:nogo_b","",""
"null","","html-keyboard-response","190","614129","0.0-4.0-1.50","","<img src=""img/red-r.png"">","null","trial","null","","0.2,0.8","2:nogo_b","1",""
"null","","html-keyboard-response","191","615144","0.0-4.0-2.50","","<div style=""font-size:60px;"">+</div>","null","","","","","","",""
"434.2000000178814","","image-keyboard-response","192","615579","0.0-4.0-0.51","","img/blue.png","32","trial","32","true","0.8,0.2","1:go_a","",""
"null","","html-keyboard-response","193","616580","0.0-4.0-1.51","","<img src=""img/blue-n.png"" border=""10"">","null","trial","32","","0.8,0.2","1:go_a","0",""
"null","","html-keyboard-response","194","617592","0.0-4.0-2.51","","<div style=""font-size:60px;"">+</div>","null","","","","","","",""
"738.1150000728667","","image-keyboard-response","195","618331","0.0-4.0-0.52","","img/blue.png","32","trial","32","true","0.8,0.2","1:go_a","",""
"null","","html-keyboard-response","196","619338","0.0-4.0-1.52","","<img src=""img/blue-r.png"" border=""10"">","null","trial","32","","0.8,0.2","1:go_a","1",""
"null","","html-keyboard-response","197","620345","0.0-4.0-2.52","","<div style=""font-size:60px;"">+</div>","null","","","","","","",""
"null","","image-keyboard-response","198","621852","0.0-4.0-0.53","","img/red.png","null","trial","null","true","0.2,0.8","2:nogo_b","",""
"null","","html-keyboard-response","199","622856","0.0-4.0-1.53","","<img src=""img/red-r.png"">","null","trial","null","","0.2,0.8","2:nogo_b","1",""
"null","","html-keyboard-response","200","623865","0.0-4.0-2.53","","<div style=""font-size:60px;"">+</div>","null","","","","","","",""
"null","","image-keyboard-response","201","625377","0.0-4.0-0.54","","img/blue.png","null","trial","32","false","0.8,0.2","1:go_a","",""
"null","","html-keyboard-response","202","626382","0.0-4.0-1.54","","<img src=""img/blue-n.png"">","null","trial","32","","0.8,0.2","1:go_a","0",""
"null","","html-keyboard-response","203","627394","0.0-4.0-2.54","","<div style=""font-size:60px;"">+</div>","null","","","","","","",""
"null","","image-keyboard-response","204","628902","0.0-4.0-0.55","","img/red.png","null","trial","null","true","0.2,0.8","2:nogo_b","",""
"null","","html-keyboard-response","205","629910","0.0-4.0-1.55","","<img src=""img/red-r.png"">","null","trial","null","","0.2,0.8","2:nogo_b","1",""
"null","","html-keyboard-response","206","630923","0.0-4.0-2.55","","<div style=""font-size:60px;"">+</div>","null","","","","","","",""
"487.50000004656613","","image-keyboard-response","207","631411","0.0-4.0-0.56","","img/blue.png","32","trial","32","true","0.8,0.2","1:go_a","",""
"null","","html-keyboard-response","208","632421","0.0-4.0-1.56","","<img src=""img/blue-r.png"" border=""10"">","null","trial","32","","0.8,0.2","1:go_a","1",""
"null","","html-keyboard-response","209","633430","0.0-4.0-2.56","","<div style=""font-size:60px;"">+</div>","null","","","","","","",""
"859.3650000402704","","image-keyboard-response","210","634290","0.0-4.0-0.57","","img/red.png","32","trial","null","false","0.2,0.8","2:nogo_b","",""
"null","","html-keyboard-response","211","635297","0.0-4.0-1.57","","<img src=""img/red-n.png"" border=""10"">","null","trial","null","","0.2,0.8","2:nogo_b","0",""
"null","","html-keyboard-response","212","636301","0.0-4.0-2.57","","<div style=""font-size:60px;"">+</div>","null","","","","","","",""
"829.1350000072271","","image-keyboard-response","213","637130","0.0-4.0-0.58","","img/blue.png","32","trial","32","true","0.8,0.2","1:go_a","",""
"null","","html-keyboard-response","214","638138","0.0-4.0-1.58","","<img src=""img/blue-r.png"" border=""10"">","null","trial","32","","0.8,0.2","1:go_a","1",""
"null","","html-keyboard-response","215","639147","0.0-4.0-2.58","","<div style=""font-size:60px;"">+</div>","null","","","","","","",""
"1046.9300000695512","","image-keyboard-response","216","640194","0.0-4.0-0.59","","img/red.png","32","trial","null","false","0.2,0.8","2:nogo_b","",""
"null","","html-keyboard-response","217","641210","0.0-4.0-1.59","","<img src=""img/red-n.png"" border=""10"">","null","trial","null","","0.2,0.8","2:nogo_b","0",""
"null","","html-keyboard-response","218","642216","0.0-4.0-2.59","","<div style=""font-size:60px;"">+</div>","null","","","","","","",""
"2404.89499992691","","instructions","219","644621","0.0-5.0","[{""page_index"":0,""viewing_time"":2404.4599999906495}]","","","","","","","","",""
"884.1249999823049","","image-keyboard-response","220","645506","0.0-6.0-0.0","","img/yellow.png","32","trial","null","false","0.2,0.8","2:nogo_b","",""
"null","","html-keyboard-response","221","646519","0.0-6.0-1.0","","<img src=""img/yellow-n.png"" border=""10"">","null","trial","null","","0.2,0.8","2:nogo_b","0",""
"null","","html-keyboard-response","222","647525","0.0-6.0-2.0","","<div style=""font-size:60px;"">+</div>","null","","","","","","",""
"396.6600000858307","","image-keyboard-response","223","647922","0.0-6.0-0.1","","img/blue.png","32","trial","null","false","0.4,0.6","4:nogo_d","",""
"null","","html-keyboard-response","224","648928","0.0-6.0-1.1","","<img src=""img/blue-n.png"" border=""10"">","null","trial","null","","0.4,0.6","4:nogo_d","0",""
"null","","html-keyboard-response","225","649929","0.0-6.0-2.1","","<div style=""font-size:60px;"">+</div>","null","","","","","","",""
"537.0350000448525","","image-keyboard-response","226","650467","0.0-6.0-0.2","","img/pink.png","32","trial","32","true","0.8,0.2","1:go_a","",""
"null","","html-keyboard-response","227","651469","0.0-6.0-1.2","","<img src=""img/pink-r.png"" border=""10"">","null","trial","32","","0.8,0.2","1:go_a","1",""
"null","","html-keyboard-response","228","652477","0.0-6.0-2.2","","<div style=""font-size:60px;"">+</div>","null","","","","","","",""
"652.8099999995902","","image-keyboard-response","229","653130","0.0-6.0-0.3","","img/grey.png","32","trial","32","true","0.6,0.4","3:go_c","",""
"null","","html-keyboard-response","230","654140","0.0-6.0-1.3","","<img src=""img/grey-n.png"" border=""10"">","null","trial","32","","0.6,0.4","3:go_c","0",""
"null","","html-keyboard-response","231","655145","0.0-6.0-2.3","","<div style=""font-size:60px;"">+</div>","null","","","","","","",""
"457.494999980554","","image-keyboard-response","232","655603","0.0-6.0-0.4","","img/grey.png","32","trial","32","true","0.6,0.4","3:go_c","",""
"null","","html-keyboard-response","233","656611","0.0-6.0-1.4","","<img src=""img/grey-n.png"" border=""10"">","null","trial","32","","0.6,0.4","3:go_c","0",""
"null","","html-keyboard-response","234","657623","0.0-6.0-2.4","","<div style=""font-size:60px;"">+</div>","null","","","","","","",""
"778.7450000178069","","image-keyboard-response","235","658402","0.0-6.0-0.5","","img/pink.png","32","trial","32","true","0.8,0.2","1:go_a","",""
"null","","html-keyboard-response","236","659416","0.0-6.0-1.5","","<img src=""img/pink-r.png"" border=""10"">","null","trial","32","","0.8,0.2","1:go_a","1",""
"null","","html-keyboard-response","237","660429","0.0-6.0-2.5","","<div style=""font-size:60px;"">+</div>","null","","","","","","",""
"null","","image-keyboard-response","238","661937","0.0-6.0-0.6","","img/blue.png","null","trial","null","true","0.4,0.6","4:nogo_d","",""
"null","","html-keyboard-response","239","662945","0.0-6.0-1.6","","<img src=""img/blue-r.png"">","null","trial","null","","0.4,0.6","4:nogo_d","1",""
"null","","html-keyboard-response","240","663952","0.0-6.0-2.6","","<div style=""font-size:60px;"">+</div>","null","","","","","","",""
"null","","image-keyboard-response","241","665453","0.0-6.0-0.7","","img/yellow.png","null","trial","null","true","0.2,0.8","2:nogo_b","",""
"null","","html-keyboard-response","242","666465","0.0-6.0-1.7","","<img src=""img/yellow-r.png"">","null","trial","null","","0.2,0.8","2:nogo_b","1",""
"null","","html-keyboard-response","243","667475","0.0-6.0-2.7","","<div style=""font-size:60px;"">+</div>","null","","","","","","",""
"455.1849999697879","","image-keyboard-response","244","667931","0.0-6.0-0.8","","img/pink.png","32","trial","32","true","0.8,0.2","1:go_a","",""
"null","","html-keyboard-response","245","668934","0.0-6.0-1.8","","<img src=""img/pink-n.png"" border=""10"">","null","trial","32","","0.8,0.2","1:go_a","0",""
"null","","html-keyboard-response","246","669936","0.0-6.0-2.8","","<div style=""font-size:60px;"">+</div>","null","","","","","","",""
"null","","image-keyboard-response","247","671441","0.0-6.0-0.9","","img/yellow.png","null","trial","null","true","0.2,0.8","2:nogo_b","",""
"null","","html-keyboard-response","248","672444","0.0-6.0-1.9","","<img src=""img/yellow-r.png"">","null","trial","null","","0.2,0.8","2:nogo_b","1",""
"null","","html-keyboard-response","249","673457","0.0-6.0-2.9","","<div style=""font-size:60px;"">+</div>","null","","","","","","",""
"585.2750000776723","","image-keyboard-response","250","674042","0.0-6.0-0.10","","img/blue.png","32","trial","null","false","0.4,0.6","4:nogo_d","",""
"null","","html-keyboard-response","251","675050","0.0-6.0-1.10","","<img src=""img/blue-n.png"" border=""10"">","null","trial","null","","0.4,0.6","4:nogo_d","0",""
"null","","html-keyboard-response","252","676058","0.0-6.0-2.10","","<div style=""font-size:60px;"">+</div>","null","","","","","","",""
"null","","image-keyboard-response","253","677566","0.0-6.0-0.11","","img/grey.png","null","trial","32","false","0.6,0.4","3:go_c","",""
"null","","html-keyboard-response","254","678572","0.0-6.0-1.11","","<img src=""img/grey-n.png"">","null","trial","32","","0.6,0.4","3:go_c","0",""
"null","","html-keyboard-response","255","679580","0.0-6.0-2.11","","<div style=""font-size:60px;"">+</div>","null","","","","","","",""
"null","","image-keyboard-response","256","681095","0.0-6.0-0.12","","img/yellow.png","null","trial","null","true","0.2,0.8","2:nogo_b","",""
"null","","html-keyboard-response","257","682102","0.0-6.0-1.12","","<img src=""img/yellow-r.png"">","null","trial","null","","0.2,0.8","2:nogo_b","1",""
"null","","html-keyboard-response","258","683113","0.0-6.0-2.12","","<div style=""font-size:60px;"">+</div>","null","","","","","","",""
"601.5249999472871","","image-keyboard-response","259","683715","0.0-6.0-0.13","","img/pink.png","32","trial","32","true","0.8,0.2","1:go_a","",""
"null","","html-keyboard-response","260","684718","0.0-6.0-1.13","","<img src=""img/pink-n.png"" border=""10"">","null","trial","32","","0.8,0.2","1:go_a","0",""
"null","","html-keyboard-response","261","685722","0.0-6.0-2.13","","<div style=""font-size:60px;"">+</div>","null","","","","","","",""
"648.3500000322238","","image-keyboard-response","262","686371","0.0-6.0-0.14","","img/blue.png","32","trial","null","false","0.4,0.6","4:nogo_d","",""
"null","","html-keyboard-response","263","687385","0.0-6.0-1.14","","<img src=""img/blue-r.png"" border=""10"">","null","trial","null","","0.4,0.6","4:nogo_d","1",""
"null","","html-keyboard-response","264","688397","0.0-6.0-2.14","","<div style=""font-size:60px;"">+</div>","null","","","","","","",""
"884.6299999859184","","image-keyboard-response","265","689282","0.0-6.0-0.15","","img/grey.png","32","trial","32","true","0.6,0.4","3:go_c","",""
"null","","html-keyboard-response","266","690285","0.0-6.0-1.15","","<img src=""img/grey-r.png"" border=""10"">","null","trial","32","","0.6,0.4","3:go_c","1",""
"null","","html-keyboard-response","267","691292","0.0-6.0-2.15","","<div style=""font-size:60px;"">+</div>","null","","","","","","",""
"693.6850000638515","","image-keyboard-response","268","691986","0.0-6.0-0.16","","img/grey.png","32","trial","32","true","0.6,0.4","3:go_c","",""
"null","","html-keyboard-response","269","692990","0.0-6.0-1.16","","<img src=""img/grey-r.png"" border=""10"">","null","trial","32","","0.6,0.4","3:go_c","1",""
"null","","html-keyboard-response","270","693995","0.0-6.0-2.16","","<div style=""font-size:60px;"">+</div>","null","","","","","","",""
"null","","image-keyboard-response","271","695501","0.0-6.0-0.17","","img/yellow.png","null","trial","null","true","0.2,0.8","2:nogo_b","",""
"null","","html-keyboard-response","272","696511","0.0-6.0-1.17","","<img src=""img/yellow-n.png"">","null","trial","null","","0.2,0.8","2:nogo_b","0",""
"null","","html-keyboard-response","273","697519","0.0-6.0-2.17","","<div style=""font-size:60px;"">+</div>","null","","","","","","",""
"null","","image-keyboard-response","274","699023","0.0-6.0-0.18","","img/blue.png","null","trial","null","true","0.4,0.6","4:nogo_d","",""
"null","","html-keyboard-response","275","700036","0.0-6.0-1.18","","<img src=""img/blue-r.png"">","null","trial","null","","0.4,0.6","4:nogo_d","1",""
"null","","html-keyboard-response","276","701039","0.0-6.0-2.18","","<div style=""font-size:60px;"">+</div>","null","","","","","","",""
"658.9249999960884","","image-keyboard-response","277","701698","0.0-6.0-0.19","","img/pink.png","32","trial","32","true","0.8,0.2","1:go_a","",""
"null","","html-keyboard-response","278","702714","0.0-6.0-1.19","","<img src=""img/pink-r.png"" border=""10"">","null","trial","32","","0.8,0.2","1:go_a","1",""
"null","","html-keyboard-response","279","703722","0.0-6.0-2.19","","<div style=""font-size:60px;"">+</div>","null","","","","","","",""
"null","","image-keyboard-response","280","705223","0.0-6.0-0.20","","img/blue.png","null","trial","null","true","0.4,0.6","4:nogo_d","",""
"null","","html-keyboard-response","281","706228","0.0-6.0-1.20","","<img src=""img/blue-n.png"">","null","trial","null","","0.4,0.6","4:nogo_d","0",""
"null","","html-keyboard-response","282","707238","0.0-6.0-2.20","","<div style=""font-size:60px;"">+</div>","null","","","","","","",""
"603.8399999961257","","image-keyboard-response","283","707843","0.0-6.0-0.21","","img/pink.png","32","trial","32","true","0.8,0.2","1:go_a","",""
"null","","html-keyboard-response","284","708859","0.0-6.0-1.21","","<img src=""img/pink-n.png"" border=""10"">","null","trial","32","","0.8,0.2","1:go_a","0",""
"null","","html-keyboard-response","285","709869","0.0-6.0-2.21","","<div style=""font-size:60px;"">+</div>","null","","","","","","",""
"660.9799999278039","","image-keyboard-response","286","710530","0.0-6.0-0.22","","img/grey.png","32","trial","32","true","0.6,0.4","3:go_c","",""
"null","","html-keyboard-response","287","711543","0.0-6.0-1.22","","<img src=""img/grey-n.png"" border=""10"">","null","trial","32","","0.6,0.4","3:go_c","0",""
"null","","html-keyboard-response","288","712544","0.0-6.0-2.22","","<div style=""font-size:60px;"">+</div>","null","","","","","","",""
"881.6850000293925","","image-keyboard-response","289","713426","0.0-6.0-0.23","","img/yellow.png","32","trial","null","false","0.2,0.8","2:nogo_b","",""
"null","","html-keyboard-response","290","714434","0.0-6.0-1.23","","<img src=""img/yellow-n.png"" border=""10"">","null","trial","null","","0.2,0.8","2:nogo_b","0",""
"null","","html-keyboard-response","291","715439","0.0-6.0-2.23","","<div style=""font-size:60px;"">+</div>","null","","","","","","",""
"null","","image-keyboard-response","292","716942","0.0-6.0-0.24","","img/yellow.png","null","trial","null","true","0.2,0.8","2:nogo_b","",""
"null","","html-keyboard-response","293","717947","0.0-6.0-1.24","","<img src=""img/yellow-r.png"">","null","trial","null","","0.2,0.8","2:nogo_b","1",""
"null","","html-keyboard-response","294","718949","0.0-6.0-2.24","","<div style=""font-size:60px;"">+</div>","null","","","","","","",""
"null","","image-keyboard-response","295","720462","0.0-6.0-0.25","","img/blue.png","null","trial","null","true","0.4,0.6","4:nogo_d","",""
"null","","html-keyboard-response","296","721467","0.0-6.0-1.25","","<img src=""img/blue-n.png"">","null","trial","null","","0.4,0.6","4:nogo_d","0",""
"null","","html-keyboard-response","297","722474","0.0-6.0-2.25","","<div style=""font-size:60px;"">+</div>","null","","","","","","",""
"527.4950000457466","","image-keyboard-response","298","723002","0.0-6.0-0.26","","img/pink.png","32","trial","32","true","0.8,0.2","1:go_a","",""
"null","","html-keyboard-response","299","724006","0.0-6.0-1.26","","<img src=""img/pink-n.png"" border=""10"">","null","trial","32","","0.8,0.2","1:go_a","0",""
"null","","html-keyboard-response","300","725019","0.0-6.0-2.26","","<div style=""font-size:60px;"">+</div>","null","","","","","","",""
"null","","image-keyboard-response","301","726523","0.0-6.0-0.27","","img/grey.png","null","trial","32","false","0.6,0.4","3:go_c","",""
"null","","html-keyboard-response","302","727533","0.0-6.0-1.27","","<img src=""img/grey-n.png"">","null","trial","32","","0.6,0.4","3:go_c","0",""
"null","","html-keyboard-response","303","728544","0.0-6.0-2.27","","<div style=""font-size:60px;"">+</div>","null","","","","","","",""
"null","","image-keyboard-response","304","730058","0.0-6.0-0.28","","img/pink.png","null","trial","32","false","0.8,0.2","1:go_a","",""
"null","","html-keyboard-response","305","731071","0.0-6.0-1.28","","<img src=""img/pink-n.png"">","null","trial","32","","0.8,0.2","1:go_a","0",""
"null","","html-keyboard-response","306","732081","0.0-6.0-2.28","","<div style=""font-size:60px;"">+</div>","null","","","","","","",""
"null","","image-keyboard-response","307","733597","0.0-6.0-0.29","","img/yellow.png","null","trial","null","true","0.2,0.8","2:nogo_b","",""
"null","","html-keyboard-response","308","734608","0.0-6.0-1.29","","<img src=""img/yellow-r.png"">","null","trial","null","","0.2,0.8","2:nogo_b","1",""
"null","","html-keyboard-response","309","735618","0.0-6.0-2.29","","<div style=""font-size:60px;"">+</div>","null","","","","","","",""
"1088.4399999631569","","image-keyboard-response","310","736707","0.0-6.0-0.30","","img/blue.png","32","trial","null","false","0.4,0.6","4:nogo_d","",""
"null","","html-keyboard-response","311","737721","0.0-6.0-1.30","","<img src=""img/blue-n.png"" border=""10"">","null","trial","null","","0.4,0.6","4:nogo_d","0",""
"null","","html-keyboard-response","312","738731","0.0-6.0-2.30","","<div style=""font-size:60px;"">+</div>","null","","","","","","",""
"null","","image-keyboard-response","313","740241","0.0-6.0-0.31","","img/grey.png","null","trial","32","false","0.6,0.4","3:go_c","",""
"null","","html-keyboard-response","314","741253","0.0-6.0-1.31","","<img src=""img/grey-r.png"">","null","trial","32","","0.6,0.4","3:go_c","1",""
"null","","html-keyboard-response","315","742265","0.0-6.0-2.31","","<div style=""font-size:60px;"">+</div>","null","","","","","","",""
"null","","image-keyboard-response","316","743779","0.0-6.0-0.32","","img/blue.png","null","trial","null","true","0.4,0.6","4:nogo_d","",""
"null","","html-keyboard-response","317","744785","0.0-6.0-1.32","","<img src=""img/blue-n.png"">","null","trial","null","","0.4,0.6","4:nogo_d","0",""
"null","","html-keyboard-response","318","745792","0.0-6.0-2.32","","<div style=""font-size:60px;"">+</div>","null","","","","","","",""
"817.200000048615","","image-keyboard-response","319","746610","0.0-6.0-0.33","","img/yellow.png","32","trial","null","false","0.2,0.8","2:nogo_b","",""
"null","","html-keyboard-response","320","747619","0.0-6.0-1.33","","<img src=""img/yellow-n.png"" border=""10"">","null","trial","null","","0.2,0.8","2:nogo_b","0",""
"null","","html-keyboard-response","321","748631","0.0-6.0-2.33","","<div style=""font-size:60px;"">+</div>","null","","","","","","",""
"null","","image-keyboard-response","322","750137","0.0-6.0-0.34","","img/pink.png","null","trial","32","false","0.8,0.2","1:go_a","",""
"null","","html-keyboard-response","323","751145","0.0-6.0-1.34","","<img src=""img/pink-n.png"">","null","trial","32","","0.8,0.2","1:go_a","0",""
"null","","html-keyboard-response","324","752158","0.0-6.0-2.34","","<div style=""font-size:60px;"">+</div>","null","","","","","","",""
"1428.3250001026317","","image-keyboard-response","325","753587","0.0-6.0-0.35","","img/grey.png","32","trial","32","true","0.6,0.4","3:go_c","",""
"null","","html-keyboard-response","326","754602","0.0-6.0-1.35","","<img src=""img/grey-n.png"" border=""10"">","null","trial","32","","0.6,0.4","3:go_c","0",""
"null","","html-keyboard-response","327","755603","0.0-6.0-2.35","","<div style=""font-size:60px;"">+</div>","null","","","","","","",""
"null","","image-keyboard-response","328","757117","0.0-6.0-0.36","","img/grey.png","null","trial","32","false","0.6,0.4","3:go_c","",""
"null","","html-keyboard-response","329","758132","0.0-6.0-1.36","","<img src=""img/grey-n.png"">","null","trial","32","","0.6,0.4","3:go_c","0",""
"null","","html-keyboard-response","330","759144","0.0-6.0-2.36","","<div style=""font-size:60px;"">+</div>","null","","","","","","",""
"602.710000006482","","image-keyboard-response","331","759747","0.0-6.0-0.37","","img/yellow.png","32","trial","null","false","0.2,0.8","2:nogo_b","",""
"null","","html-keyboard-response","332","760761","0.0-6.0-1.37","","<img src=""img/yellow-n.png"" border=""10"">","null","trial","null","","0.2,0.8","2:nogo_b","0",""
"null","","html-keyboard-response","333","761772","0.0-6.0-2.37","","<div style=""font-size:60px;"">+</div>","null","","","","","","",""
"null","","image-keyboard-response","334","763274","0.0-6.0-0.38","","img/pink.png","null","trial","32","false","0.8,0.2","1:go_a","",""
"null","","html-keyboard-response","335","764288","0.0-6.0-1.38","","<img src=""img/pink-r.png"">","null","trial","32","","0.8,0.2","1:go_a","1",""
"null","","html-keyboard-response","336","765300","0.0-6.0-2.38","","<div style=""font-size:60px;"">+</div>","null","","","","","","",""
"null","","image-keyboard-response","337","766803","0.0-6.0-0.39","","img/blue.png","null","trial","null","true","0.4,0.6","4:nogo_d","",""
"null","","html-keyboard-response","338","767816","0.0-6.0-1.39","","<img src=""img/blue-n.png"">","null","trial","null","","0.4,0.6","4:nogo_d","0",""
"null","","html-keyboard-response","339","768823","0.0-6.0-2.39","","<div style=""font-size:60px;"">+</div>","null","","","","","","",""
"null","","image-keyboard-response","340","770331","0.0-6.0-0.40","","img/pink.png","null","trial","32","false","0.8,0.2","1:go_a","",""
"null","","html-keyboard-response","341","771341","0.0-6.0-1.40","","<img src=""img/pink-r.png"">","null","trial","32","","0.8,0.2","1:go_a","1",""
"null","","html-keyboard-response","342","772347","0.0-6.0-2.40","","<div style=""font-size:60px;"">+</div>","null","","","","","","",""
"855.0250000553206","","image-keyboard-response","343","773203","0.0-6.0-0.41","","img/grey.png","32","trial","32","true","0.6,0.4","3:go_c","",""
"null","","html-keyboard-response","344","774218","0.0-6.0-1.41","","<img src=""img/grey-n.png"" border=""10"">","null","trial","32","","0.6,0.4","3:go_c","0",""
"null","","html-keyboard-response","345","775226","0.0-6.0-2.41","","<div style=""font-size:60px;"">+</div>","null","","","","","","",""
"760.840000002645","","image-keyboard-response","346","775987","0.0-6.0-0.42","","img/blue.png","32","trial","null","false","0.4,0.6","4:nogo_d","",""
"null","","html-keyboard-response","347","776993","0.0-6.0-1.42","","<img src=""img/blue-n.png"" border=""10"">","null","trial","null","","0.4,0.6","4:nogo_d","0",""
"null","","html-keyboard-response","348","778001","0.0-6.0-2.42","","<div style=""font-size:60px;"">+</div>","null","","","","","","",""
"null","","image-keyboard-response","349","779506","0.0-6.0-0.43","","img/yellow.png","null","trial","null","true","0.2,0.8","2:nogo_b","",""
"null","","html-keyboard-response","350","780522","0.0-6.0-1.43","","<img src=""img/yellow-r.png"">","null","trial","null","","0.2,0.8","2:nogo_b","1",""
"null","","html-keyboard-response","351","781530","0.0-6.0-2.43","","<div style=""font-size:60px;"">+</div>","null","","","","","","",""
"null","","image-keyboard-response","352","783040","0.0-6.0-0.44","","img/blue.png","null","trial","null","true","0.4,0.6","4:nogo_d","",""
"null","","html-keyboard-response","353","784049","0.0-6.0-1.44","","<img src=""img/blue-n.png"">","null","trial","null","","0.4,0.6","4:nogo_d","0",""
"null","","html-keyboard-response","354","785062","0.0-6.0-2.44","","<div style=""font-size:60px;"">+</div>","null","","","","","","",""
"939.8950000759214","","image-keyboard-response","355","786003","0.0-6.0-0.45","","img/grey.png","32","trial","32","true","0.6,0.4","3:go_c","",""
"null","","html-keyboard-response","356","787005","0.0-6.0-1.45","","<img src=""img/grey-n.png"" border=""10"">","null","trial","32","","0.6,0.4","3:go_c","0",""
"null","","html-keyboard-response","357","788008","0.0-6.0-2.45","","<div style=""font-size:60px;"">+</div>","null","","","","","","",""
"null","","image-keyboard-response","358","789521","0.0-6.0-0.46","","img/pink.png","null","trial","32","false","0.8,0.2","1:go_a","",""
"null","","html-keyboard-response","359","790535","0.0-6.0-1.46","","<img src=""img/pink-r.png"">","null","trial","32","","0.8,0.2","1:go_a","1",""
"null","","html-keyboard-response","360","791539","0.0-6.0-2.46","","<div style=""font-size:60px;"">+</div>","null","","","","","","",""
"null","","image-keyboard-response","361","793047","0.0-6.0-0.47","","img/yellow.png","null","trial","null","true","0.2,0.8","2:nogo_b","",""
"null","","html-keyboard-response","362","794050","0.0-6.0-1.47","","<img src=""img/yellow-r.png"">","null","trial","null","","0.2,0.8","2:nogo_b","1",""
"null","","html-keyboard-response","363","795056","0.0-6.0-2.47","","<div style=""font-size:60px;"">+</div>","null","","","","","","",""
"null","","image-keyboard-response","364","796560","0.0-6.0-0.48","","img/yellow.png","null","trial","null","true","0.2,0.8","2:nogo_b","",""
"null","","html-keyboard-response","365","797562","0.0-6.0-1.48","","<img src=""img/yellow-n.png"">","null","trial","null","","0.2,0.8","2:nogo_b","0",""
"null","","html-keyboard-response","366","798571","0.0-6.0-2.48","","<div style=""font-size:60px;"">+</div>","null","","","","","","",""
"null","","image-keyboard-response","367","800082","0.0-6.0-0.49","","img/pink.png","null","trial","32","false","0.8,0.2","1:go_a","",""
"null","","html-keyboard-response","368","801092","0.0-6.0-1.49","","<img src=""img/pink-n.png"">","null","trial","32","","0.8,0.2","1:go_a","0",""
"null","","html-keyboard-response","369","802101","0.0-6.0-2.49","","<div style=""font-size:60px;"">+</div>","null","","","","","","",""
"677.0249999826774","","image-keyboard-response","370","802779","0.0-6.0-0.50","","img/grey.png","32","trial","32","true","0.6,0.4","3:go_c","",""
"null","","html-keyboard-response","371","803794","0.0-6.0-1.50","","<img src=""img/grey-n.png"" border=""10"">","null","trial","32","","0.6,0.4","3:go_c","0",""
"null","","html-keyboard-response","372","804803","0.0-6.0-2.50","","<div style=""font-size:60px;"">+</div>","null","","","","","","",""
"null","","image-keyboard-response","373","806305","0.0-6.0-0.51","","img/blue.png","null","trial","null","true","0.4,0.6","4:nogo_d","",""
"null","","html-keyboard-response","374","807314","0.0-6.0-1.51","","<img src=""img/blue-n.png"">","null","trial","null","","0.4,0.6","4:nogo_d","0",""
"null","","html-keyboard-response","375","808322","0.0-6.0-2.51","","<div style=""font-size:60px;"">+</div>","null","","","","","","",""
"null","","image-keyboard-response","376","809838","0.0-6.0-0.52","","img/yellow.png","null","trial","null","true","0.2,0.8","2:nogo_b","",""
"null","","html-keyboard-response","377","810853","0.0-6.0-1.52","","<img src=""img/yellow-r.png"">","null","trial","null","","0.2,0.8","2:nogo_b","1",""
"null","","html-keyboard-response","378","811867","0.0-6.0-2.52","","<div style=""font-size:60px;"">+</div>","null","","","","","","",""
"735.0099999457598","","image-keyboard-response","379","812602","0.0-6.0-0.53","","img/pink.png","32","trial","32","true","0.8,0.2","1:go_a","",""
"null","","html-keyboard-response","380","813607","0.0-6.0-1.53","","<img src=""img/pink-n.png"" border=""10"">","null","trial","32","","0.8,0.2","1:go_a","0",""
"null","","html-keyboard-response","381","814619","0.0-6.0-2.53","","<div style=""font-size:60px;"">+</div>","null","","","","","","",""
"911.2849999219179","","image-keyboard-response","382","815531","0.0-6.0-0.54","","img/grey.png","32","trial","32","true","0.6,0.4","3:go_c","",""
"null","","html-keyboard-response","383","816546","0.0-6.0-1.54","","<img src=""img/grey-r.png"" border=""10"">","null","trial","32","","0.6,0.4","3:go_c","1",""
"null","","html-keyboard-response","384","817561","0.0-6.0-2.54","","<div style=""font-size:60px;"">+</div>","null","","","","","","",""
"null","","image-keyboard-response","385","819072","0.0-6.0-0.55","","img/blue.png","null","trial","null","true","0.4,0.6","4:nogo_d","",""
"null","","html-keyboard-response","386","820085","0.0-6.0-1.55","","<img src=""img/blue-r.png"">","null","trial","null","","0.4,0.6","4:nogo_d","1",""
"null","","html-keyboard-response","387","821098","0.0-6.0-2.55","","<div style=""font-size:60px;"">+</div>","null","","","","","","",""
"null","","image-keyboard-response","388","822614","0.0-6.0-0.56","","img/pink.png","null","trial","32","false","0.8,0.2","1:go_a","",""
"null","","html-keyboard-response","389","823623","0.0-6.0-1.56","","<img src=""img/pink-n.png"">","null","trial","32","","0.8,0.2","1:go_a","0",""
"null","","html-keyboard-response","390","824637","0.0-6.0-2.56","","<div style=""font-size:60px;"">+</div>","null","","","","","","",""
"null","","image-keyboard-response","391","826145","0.0-6.0-0.57","","img/grey.png","null","trial","32","false","0.6,0.4","3:go_c","",""
"null","","html-keyboard-response","392","827161","0.0-6.0-1.57","","<img src=""img/grey-r.png"">","null","trial","32","","0.6,0.4","3:go_c","1",""
"null","","html-keyboard-response","393","828169","0.0-6.0-2.57","","<div style=""font-size:60px;"">+</div>","null","","","","","","",""
"null","","image-keyboard-response","394","829672","0.0-6.0-0.58","","img/yellow.png","null","trial","null","true","0.2,0.8","2:nogo_b","",""
"null","","html-keyboard-response","395","830680","0.0-6.0-1.58","","<img src=""img/yellow-r.png"">","null","trial","null","","0.2,0.8","2:nogo_b","1",""
"null","","html-keyboard-response","396","831686","0.0-6.0-2.58","","<div style=""font-size:60px;"">+</div>","null","","","","","","",""
"1164.6949999267235","","image-keyboard-response","397","832851","0.0-6.0-0.59","","img/blue.png","32","trial","null","false","0.4,0.6","4:nogo_d","",""
"null","","html-keyboard-response","398","833853","0.0-6.0-1.59","","<img src=""img/blue-r.png"" border=""10"">","null","trial","null","","0.4,0.6","4:nogo_d","1",""
"null","","html-keyboard-response","399","834868","0.0-6.0-2.59","","<div style=""font-size:60px;"">+</div>","null","","","","","","",""
"null","","image-keyboard-response","400","836374","0.0-6.0-0.60","","img/yellow.png","null","trial","null","true","0.2,0.8","2:nogo_b","",""
"null","","html-keyboard-response","401","837381","0.0-6.0-1.60","","<img src=""img/yellow-r.png"">","null","trial","null","","0.2,0.8","2:nogo_b","1",""
"null","","html-keyboard-response","402","838391","0.0-6.0-2.60","","<div style=""font-size:60px;"">+</div>","null","","","","","","",""
"1042.659999919124","","image-keyboard-response","403","839434","0.0-6.0-0.61","","img/blue.png","32","trial","null","false","0.4,0.6","4:nogo_d","",""
"null","","html-keyboard-response","404","840437","0.0-6.0-1.61","","<img src=""img/blue-n.png"" border=""10"">","null","trial","null","","0.4,0.6","4:nogo_d","0",""
"null","","html-keyboard-response","405","841443","0.0-6.0-2.61","","<div style=""font-size:60px;"">+</div>","null","","","","","","",""
"797.6550000021234","","image-keyboard-response","406","842242","0.0-6.0-0.62","","img/pink.png","32","trial","32","true","0.8,0.2","1:go_a","",""
"null","","html-keyboard-response","407","843244","0.0-6.0-1.62","","<img src=""img/pink-n.png"" border=""10"">","null","trial","32","","0.8,0.2","1:go_a","0",""
"null","","html-keyboard-response","408","844250","0.0-6.0-2.62","","<div style=""font-size:60px;"">+</div>","null","","","","","","",""
"383.9450000086799","","image-keyboard-response","409","844635","0.0-6.0-0.63","","img/grey.png","32","trial","32","true","0.6,0.4","3:go_c","",""
"null","","html-keyboard-response","410","845650","0.0-6.0-1.63","","<img src=""img/grey-n.png"" border=""10"">","null","trial","32","","0.6,0.4","3:go_c","0",""
"null","","html-keyboard-response","411","846659","0.0-6.0-2.63","","<div style=""font-size:60px;"">+</div>","null","","","","","","",""
"999.3300000205636","","image-keyboard-response","412","847659","0.0-6.0-0.64","","img/blue.png","32","trial","null","false","0.4,0.6","4:nogo_d","",""
"null","","html-keyboard-response","413","848666","0.0-6.0-1.64","","<img src=""img/blue-r.png"" border=""10"">","null","trial","null","","0.4,0.6","4:nogo_d","1",""
"null","","html-keyboard-response","414","849670","0.0-6.0-2.64","","<div style=""font-size:60px;"">+</div>","null","","","","","","",""
"null","","image-keyboard-response","415","851181","0.0-6.0-0.65","","img/grey.png","null","trial","32","false","0.6,0.4","3:go_c","",""
"null","","html-keyboard-response","416","852189","0.0-6.0-1.65","","<img src=""img/grey-r.png"">","null","trial","32","","0.6,0.4","3:go_c","1",""
"null","","html-keyboard-response","417","853201","0.0-6.0-2.65","","<div style=""font-size:60px;"">+</div>","null","","","","","","",""
"null","","image-keyboard-response","418","854706","0.0-6.0-0.66","","img/yellow.png","null","trial","null","true","0.2,0.8","2:nogo_b","",""
"null","","html-keyboard-response","419","855712","0.0-6.0-1.66","","<img src=""img/yellow-r.png"">","null","trial","null","","0.2,0.8","2:nogo_b","1",""
"null","","html-keyboard-response","420","856714","0.0-6.0-2.66","","<div style=""font-size:60px;"">+</div>","null","","","","","","",""
"null","","image-keyboard-response","421","858225","0.0-6.0-0.67","","img/pink.png","null","trial","32","false","0.8,0.2","1:go_a","",""
"null","","html-keyboard-response","422","859236","0.0-6.0-1.67","","<img src=""img/pink-n.png"">","null","trial","32","","0.8,0.2","1:go_a","0",""
"null","","html-keyboard-response","423","860238","0.0-6.0-2.67","","<div style=""font-size:60px;"">+</div>","null","","","","","","",""
"null","","image-keyboard-response","424","861747","0.0-6.0-0.68","","img/blue.png","null","trial","null","true","0.4,0.6","4:nogo_d","",""
"null","","html-keyboard-response","425","862755","0.0-6.0-1.68","","<img src=""img/blue-n.png"">","null","trial","null","","0.4,0.6","4:nogo_d","0",""
"null","","html-keyboard-response","426","863765","0.0-6.0-2.68","","<div style=""font-size:60px;"">+</div>","null","","","","","","",""
"1276.6650000121444","","image-keyboard-response","427","865043","0.0-6.0-0.69","","img/grey.png","32","trial","32","true","0.6,0.4","3:go_c","",""
"null","","html-keyboard-response","428","866046","0.0-6.0-1.69","","<img src=""img/grey-r.png"" border=""10"">","null","trial","32","","0.6,0.4","3:go_c","1",""
"null","","html-keyboard-response","429","867056","0.0-6.0-2.69","","<div style=""font-size:60px;"">+</div>","null","","","","","","",""
"921.9400000292808","","image-keyboard-response","430","867978","0.0-6.0-0.70","","img/pink.png","32","trial","32","true","0.8,0.2","1:go_a","",""
"null","","html-keyboard-response","431","868983","0.0-6.0-1.70","","<img src=""img/pink-r.png"" border=""10"">","null","trial","32","","0.8,0.2","1:go_a","1",""
"null","","html-keyboard-response","432","869991","0.0-6.0-2.70","","<div style=""font-size:60px;"">+</div>","null","","","","","","",""
"null","","image-keyboard-response","433","871496","0.0-6.0-0.71","","img/yellow.png","null","trial","null","true","0.2,0.8","2:nogo_b","",""
"null","","html-keyboard-response","434","872505","0.0-6.0-1.71","","<img src=""img/yellow-r.png"">","null","trial","null","","0.2,0.8","2:nogo_b","1",""
"null","","html-keyboard-response","435","873519","0.0-6.0-2.71","","<div style=""font-size:60px;"">+</div>","null","","","","","","",""
"802.9000000096858","","image-keyboard-response","436","874323","0.0-6.0-0.72","","img/grey.png","32","trial","32","true","0.6,0.4","3:go_c","",""
"null","","html-keyboard-response","437","875324","0.0-6.0-1.72","","<img src=""img/grey-n.png"" border=""10"">","null","trial","32","","0.6,0.4","3:go_c","0",""
"null","","html-keyboard-response","438","876336","0.0-6.0-2.72","","<div style=""font-size:60px;"">+</div>","null","","","","","","",""
"null","","image-keyboard-response","439","877847","0.0-6.0-0.73","","img/yellow.png","null","trial","null","true","0.2,0.8","2:nogo_b","",""
"null","","html-keyboard-response","440","878857","0.0-6.0-1.73","","<img src=""img/yellow-r.png"">","null","trial","null","","0.2,0.8","2:nogo_b","1",""
"null","","html-keyboard-response","441","879860","0.0-6.0-2.73","","<div style=""font-size:60px;"">+</div>","null","","","","","","",""
"958.3700000075623","","image-keyboard-response","442","880819","0.0-6.0-0.74","","img/pink.png","32","trial","32","true","0.8,0.2","1:go_a","",""
"null","","html-keyboard-response","443","881835","0.0-6.0-1.74","","<img src=""img/pink-r.png"" border=""10"">","null","trial","32","","0.8,0.2","1:go_a","1",""
"null","","html-keyboard-response","444","882839","0.0-6.0-2.74","","<div style=""font-size:60px;"">+</div>","null","","","","","","",""
"null","","image-keyboard-response","445","884347","0.0-6.0-0.75","","img/blue.png","null","trial","null","true","0.4,0.6","4:nogo_d","",""
"null","","html-keyboard-response","446","885360","0.0-6.0-1.75","","<img src=""img/blue-n.png"">","null","trial","null","","0.4,0.6","4:nogo_d","0",""
"null","","html-keyboard-response","447","886368","0.0-6.0-2.75","","<div style=""font-size:60px;"">+</div>","null","","","","","","",""
"473.63000002224","","image-keyboard-response","448","886842","0.0-6.0-0.76","","img/blue.png","32","trial","null","false","0.4,0.6","4:nogo_d","",""
"null","","html-keyboard-response","449","887848","0.0-6.0-1.76","","<img src=""img/blue-r.png"" border=""10"">","null","trial","null","","0.4,0.6","4:nogo_d","1",""
"null","","html-keyboard-response","450","888850","0.0-6.0-2.76","","<div style=""font-size:60px;"">+</div>","null","","","","","","",""
"null","","image-keyboard-response","451","890359","0.0-6.0-0.77","","img/grey.png","null","trial","32","false","0.6,0.4","3:go_c","",""
"null","","html-keyboard-response","452","891369","0.0-6.0-1.77","","<img src=""img/grey-r.png"">","null","trial","32","","0.6,0.4","3:go_c","1",""
"null","","html-keyboard-response","453","892382","0.0-6.0-2.77","","<div style=""font-size:60px;"">+</div>","null","","","","","","",""
"null","","image-keyboard-response","454","893896","0.0-6.0-0.78","","img/pink.png","null","trial","32","false","0.8,0.2","1:go_a","",""
"null","","html-keyboard-response","455","894907","0.0-6.0-1.78","","<img src=""img/pink-n.png"">","null","trial","32","","0.8,0.2","1:go_a","0",""
"null","","html-keyboard-response","456","895922","0.0-6.0-2.78","","<div style=""font-size:60px;"">+</div>","null","","","","","","",""
"632.285000057891","","image-keyboard-response","457","896555","0.0-6.0-0.79","","img/yellow.png","32","trial","null","false","0.2,0.8","2:nogo_b","",""
"null","","html-keyboard-response","458","897570","0.0-6.0-1.79","","<img src=""img/yellow-n.png"" border=""10"">","null","trial","null","","0.2,0.8","2:nogo_b","0",""
"null","","html-keyboard-response","459","898583","0.0-6.0-2.79","","<div style=""font-size:60px;"">+</div>","null","","","","","","",""
"null","","image-keyboard-response","460","900091","0.0-6.0-0.80","","img/grey.png","null","trial","32","false","0.6,0.4","3:go_c","",""
"null","","html-keyboard-response","461","901096","0.0-6.0-1.80","","<img src=""img/grey-r.png"">","null","trial","32","","0.6,0.4","3:go_c","1",""
"null","","html-keyboard-response","462","902103","0.0-6.0-2.80","","<div style=""font-size:60px;"">+</div>","null","","","","","","",""
"null","","image-keyboard-response","463","903613","0.0-6.0-0.81","","img/blue.png","null","trial","null","true","0.4,0.6","4:nogo_d","",""
"null","","html-keyboard-response","464","904623","0.0-6.0-1.81","","<img src=""img/blue-r.png"">","null","trial","null","","0.4,0.6","4:nogo_d","1",""
"null","","html-keyboard-response","465","905631","0.0-6.0-2.81","","<div style=""font-size:60px;"">+</div>","null","","","","","","",""
"1124.305000063032","","image-keyboard-response","466","906755","0.0-6.0-0.82","","img/yellow.png","32","trial","null","false","0.2,0.8","2:nogo_b","",""
"null","","html-keyboard-response","467","907771","0.0-6.0-1.82","","<img src=""img/yellow-n.png"" border=""10"">","null","trial","null","","0.2,0.8","2:nogo_b","0",""
"null","","html-keyboard-response","468","908782","0.0-6.0-2.82","","<div style=""font-size:60px;"">+</div>","null","","","","","","",""
"null","","image-keyboard-response","469","910288","0.0-6.0-0.83","","img/pink.png","null","trial","32","false","0.8,0.2","1:go_a","",""
"null","","html-keyboard-response","470","911296","0.0-6.0-1.83","","<img src=""img/pink-n.png"">","null","trial","32","","0.8,0.2","1:go_a","0",""
"null","","html-keyboard-response","471","912301","0.0-6.0-2.83","","<div style=""font-size:60px;"">+</div>","null","","","","","","",""
"null","","image-keyboard-response","472","913814","0.0-6.0-0.84","","img/blue.png","null","trial","null","true","0.4,0.6","4:nogo_d","",""
"null","","html-keyboard-response","473","914828","0.0-6.0-1.84","","<img src=""img/blue-r.png"">","null","trial","null","","0.4,0.6","4:nogo_d","1",""
"null","","html-keyboard-response","474","915838","0.0-6.0-2.84","","<div style=""font-size:60px;"">+</div>","null","","","","","","",""
"348.22499996516854","","image-keyboard-response","475","916187","0.0-6.0-0.85","","img/pink.png","32","trial","32","true","0.8,0.2","1:go_a","",""
"null","","html-keyboard-response","476","917191","0.0-6.0-1.85","","<img src=""img/pink-r.png"" border=""10"">","null","trial","32","","0.8,0.2","1:go_a","1",""
"null","","html-keyboard-response","477","918205","0.0-6.0-2.85","","<div style=""font-size:60px;"">+</div>","null","","","","","","",""
"null","","image-keyboard-response","478","919711","0.0-6.0-0.86","","img/yellow.png","null","trial","null","true","0.2,0.8","2:nogo_b","",""
"null","","html-keyboard-response","479","920714","0.0-6.0-1.86","","<img src=""img/yellow-r.png"">","null","trial","null","","0.2,0.8","2:nogo_b","1",""
"null","","html-keyboard-response","480","921719","0.0-6.0-2.86","","<div style=""font-size:60px;"">+</div>","null","","","","","","",""
"1203.5200000973418","","image-keyboard-response","481","922923","0.0-6.0-0.87","","img/grey.png","32","trial","32","true","0.6,0.4","3:go_c","",""
"null","","html-keyboard-response","482","923939","0.0-6.0-1.87","","<img src=""img/grey-n.png"" border=""10"">","null","trial","32","","0.6,0.4","3:go_c","0",""
"null","","html-keyboard-response","483","924947","0.0-6.0-2.87","","<div style=""font-size:60px;"">+</div>","null","","","","","","",""
"null","","image-keyboard-response","484","926454","0.0-6.0-0.88","","img/yellow.png","null","trial","null","true","0.2,0.8","2:nogo_b","",""
"null","","html-keyboard-response","485","927469","0.0-6.0-1.88","","<img src=""img/yellow-r.png"">","null","trial","null","","0.2,0.8","2:nogo_b","1",""
"null","","html-keyboard-response","486","928483","0.0-6.0-2.88","","<div style=""font-size:60px;"">+</div>","null","","","","","","",""
"632.6050000498071","","image-keyboard-response","487","929116","0.0-6.0-0.89","","img/blue.png","32","trial","null","false","0.4,0.6","4:nogo_d","",""
"null","","html-keyboard-response","488","930124","0.0-6.0-1.89","","<img src=""img/blue-r.png"" border=""10"">","null","trial","null","","0.4,0.6","4:nogo_d","1",""
"null","","html-keyboard-response","489","931130","0.0-6.0-2.89","","<div style=""font-size:60px;"">+</div>","null","","","","","","",""
"null","","image-keyboard-response","490","932635","0.0-6.0-0.90","","img/pink.png","null","trial","32","false","0.8,0.2","1:go_a","",""
"null","","html-keyboard-response","491","933645","0.0-6.0-1.90","","<img src=""img/pink-n.png"">","null","trial","32","","0.8,0.2","1:go_a","0",""
"null","","html-keyboard-response","492","934653","0.0-6.0-2.90","","<div style=""font-size:60px;"">+</div>","null","","","","","","",""
"518.0349999573082","","image-keyboard-response","493","935172","0.0-6.0-0.91","","img/grey.png","32","trial","32","true","0.6,0.4","3:go_c","",""
"null","","html-keyboard-response","494","936188","0.0-6.0-1.91","","<img src=""img/grey-r.png"" border=""10"">","null","trial","32","","0.6,0.4","3:go_c","1",""
"null","","html-keyboard-response","495","937198","0.0-6.0-2.91","","<div style=""font-size:60px;"">+</div>","null","","","","","","",""
"null","","image-keyboard-response","496","938712","0.0-6.0-0.92","","img/grey.png","null","trial","32","false","0.6,0.4","3:go_c","",""
"null","","html-keyboard-response","497","939725","0.0-6.0-1.92","","<img src=""img/grey-n.png"">","null","trial","32","","0.6,0.4","3:go_c","0",""
"null","","html-keyboard-response","498","940736","0.0-6.0-2.92","","<div style=""font-size:60px;"">+</div>","null","","","","","","",""
"null","","image-keyboard-response","499","942237","0.0-6.0-0.93","","img/blue.png","null","trial","null","true","0.4,0.6","4:nogo_d","",""
"null","","html-keyboard-response","500","943244","0.0-6.0-1.93","","<img src=""img/blue-n.png"">","null","trial","null","","0.4,0.6","4:nogo_d","0",""
"null","","html-keyboard-response","501","944251","0.0-6.0-2.93","","<div style=""font-size:60px;"">+</div>","null","","","","","","",""
"774.7750000562519","","image-keyboard-response","502","945026","0.0-6.0-0.94","","img/yellow.png","32","trial","null","false","0.2,0.8","2:nogo_b","",""
"null","","html-keyboard-response","503","946028","0.0-6.0-1.94","","<img src=""img/yellow-n.png"" border=""10"">","null","trial","null","","0.2,0.8","2:nogo_b","0",""
"null","","html-keyboard-response","504","947041","0.0-6.0-2.94","","<div style=""font-size:60px;"">+</div>","null","","","","","","",""
"1504.7899999190122","","image-keyboard-response","505","948547","0.0-6.0-0.95","","img/pink.png","32","trial","32","true","0.8,0.2","1:go_a","",""
"null","","html-keyboard-response","506","949549","0.0-6.0-1.95","","<img src=""img/pink-r.png"" border=""10"">","null","trial","32","","0.8,0.2","1:go_a","1",""
"null","","html-keyboard-response","507","950560","0.0-6.0-2.95","","<div style=""font-size:60px;"">+</div>","null","","","","","","",""
"null","","image-keyboard-response","508","952071","0.0-6.0-0.96","","img/pink.png","null","trial","32","false","0.8,0.2","1:go_a","",""
"null","","html-keyboard-response","509","953079","0.0-6.0-1.96","","<img src=""img/pink-n.png"">","null","trial","32","","0.8,0.2","1:go_a","0",""
"null","","html-keyboard-response","510","954093","0.0-6.0-2.96","","<div style=""font-size:60px;"">+</div>","null","","","","","","",""
"null","","image-keyboard-response","511","955595","0.0-6.0-0.97","","img/blue.png","null","trial","null","true","0.4,0.6","4:nogo_d","",""
"null","","html-keyboard-response","512","956606","0.0-6.0-1.97","","<img src=""img/blue-n.png"">","null","trial","null","","0.4,0.6","4:nogo_d","0",""
"null","","html-keyboard-response","513","957611","0.0-6.0-2.97","","<div style=""font-size:60px;"">+</div>","null","","","","","","",""
"null","","image-keyboard-response","514","959120","0.0-6.0-0.98","","img/yellow.png","null","trial","null","true","0.2,0.8","2:nogo_b","",""
"null","","html-keyboard-response","515","960132","0.0-6.0-1.98","","<img src=""img/yellow-r.png"">","null","trial","null","","0.2,0.8","2:nogo_b","1",""
"null","","html-keyboard-response","516","961141","0.0-6.0-2.98","","<div style=""font-size:60px;"">+</div>","null","","","","","","",""
"null","","image-keyboard-response","517","962651","0.0-6.0-0.99","","img/grey.png","null","trial","32","false","0.6,0.4","3:go_c","",""
"null","","html-keyboard-response","518","963660","0.0-6.0-1.99","","<img src=""img/grey-n.png"">","null","trial","32","","0.6,0.4","3:go_c","0",""
"null","","html-keyboard-response","519","964666","0.0-6.0-2.99","","<div style=""font-size:60px;"">+</div>","null","","","","","","",""
"576.3749999459833","","image-keyboard-response","520","965243","0.0-6.0-0.100","","img/yellow.png","32","trial","null","false","0.2,0.8","2:nogo_b","",""
"null","","html-keyboard-response","521","966246","0.0-6.0-1.100","","<img src=""img/yellow-n.png"" border=""10"">","null","trial","null","","0.2,0.8","2:nogo_b","0",""
"null","","html-keyboard-response","522","967258","0.0-6.0-2.100","","<div style=""font-size:60px;"">+</div>","null","","","","","","",""
"464.45999993011355","","image-keyboard-response","523","967722","0.0-6.0-0.101","","img/blue.png","32","trial","null","false","0.4,0.6","4:nogo_d","",""
"null","","html-keyboard-response","524","968731","0.0-6.0-1.101","","<img src=""img/blue-r.png"" border=""10"">","null","trial","null","","0.4,0.6","4:nogo_d","1",""
"null","","html-keyboard-response","525","969738","0.0-6.0-2.101","","<div style=""font-size:60px;"">+</div>","null","","","","","","",""
"null","","image-keyboard-response","526","971243","0.0-6.0-0.102","","img/grey.png","null","trial","32","false","0.6,0.4","3:go_c","",""
"null","","html-keyboard-response","527","972257","0.0-6.0-1.102","","<img src=""img/grey-n.png"">","null","trial","32","","0.6,0.4","3:go_c","0",""
"null","","html-keyboard-response","528","973271","0.0-6.0-2.102","","<div style=""font-size:60px;"">+</div>","null","","","","","","",""
"602.7900000335649","","image-keyboard-response","529","973874","0.0-6.0-0.103","","img/pink.png","32","trial","32","true","0.8,0.2","1:go_a","",""
"null","","html-keyboard-response","530","974878","0.0-6.0-1.103","","<img src=""img/pink-r.png"" border=""10"">","null","trial","32","","0.8,0.2","1:go_a","1",""
"null","","html-keyboard-response","531","975886","0.0-6.0-2.103","","<div style=""font-size:60px;"">+</div>","null","","","","","","",""
"708.6899999994785","","image-keyboard-response","532","976595","0.0-6.0-0.104","","img/pink.png","32","trial","32","true","0.8,0.2","1:go_a","",""
"null","","html-keyboard-response","533","977607","0.0-6.0-1.104","","<img src=""img/pink-n.png"" border=""10"">","null","trial","32","","0.8,0.2","1:go_a","0",""
"null","","html-keyboard-response","534","978617","0.0-6.0-2.104","","<div style=""font-size:60px;"">+</div>","null","","","","","","",""
"null","","image-keyboard-response","535","980133","0.0-6.0-0.105","","img/blue.png","null","trial","null","true","0.4,0.6","4:nogo_d","",""
"null","","html-keyboard-response","536","981148","0.0-6.0-1.105","","<img src=""img/blue-r.png"">","null","trial","null","","0.4,0.6","4:nogo_d","1",""
"null","","html-keyboard-response","537","982162","0.0-6.0-2.105","","<div style=""font-size:60px;"">+</div>","null","","","","","","",""
"null","","image-keyboard-response","538","983667","0.0-6.0-0.106","","img/yellow.png","null","trial","null","true","0.2,0.8","2:nogo_b","",""
"null","","html-keyboard-response","539","984680","0.0-6.0-1.106","","<img src=""img/yellow-n.png"">","null","trial","null","","0.2,0.8","2:nogo_b","0",""
"null","","html-keyboard-response","540","985694","0.0-6.0-2.106","","<div style=""font-size:60px;"">+</div>","null","","","","","","",""
"891.9599999208003","","image-keyboard-response","541","986587","0.0-6.0-0.107","","img/grey.png","32","trial","32","true","0.6,0.4","3:go_c","",""
"null","","html-keyboard-response","542","987590","0.0-6.0-1.107","","<img src=""img/grey-r.png"" border=""10"">","null","trial","32","","0.6,0.4","3:go_c","1",""
"null","","html-keyboard-response","543","988602","0.0-6.0-2.107","","<div style=""font-size:60px;"">+</div>","null","","","","","","",""
"null","","image-keyboard-response","544","990112","0.0-6.0-0.108","","img/blue.png","null","trial","null","true","0.4,0.6","4:nogo_d","",""
"null","","html-keyboard-response","545","991125","0.0-6.0-1.108","","<img src=""img/blue-n.png"">","null","trial","null","","0.4,0.6","4:nogo_d","0",""
"null","","html-keyboard-response","546","992138","0.0-6.0-2.108","","<div style=""font-size:60px;"">+</div>","null","","","","","","",""
"null","","image-keyboard-response","547","993642","0.0-6.0-0.109","","img/grey.png","null","trial","32","false","0.6,0.4","3:go_c","",""
"null","","html-keyboard-response","548","994647","0.0-6.0-1.109","","<img src=""img/grey-n.png"">","null","trial","32","","0.6,0.4","3:go_c","0",""
"null","","html-keyboard-response","549","995652","0.0-6.0-2.109","","<div style=""font-size:60px;"">+</div>","null","","","","","","",""
"406.33000002708286","","image-keyboard-response","550","996058","0.0-6.0-0.110","","img/pink.png","32","trial","32","true","0.8,0.2","1:go_a","",""
"null","","html-keyboard-response","551","997061","0.0-6.0-1.110","","<img src=""img/pink-n.png"" border=""10"">","null","trial","32","","0.8,0.2","1:go_a","0",""
"null","","html-keyboard-response","552","998072","0.0-6.0-2.110","","<div style=""font-size:60px;"">+</div>","null","","","","","","",""
"null","","image-keyboard-response","553","999579","0.0-6.0-0.111","","img/yellow.png","null","trial","null","true","0.2,0.8","2:nogo_b","",""
"null","","html-keyboard-response","554","1000585","0.0-6.0-1.111","","<img src=""img/yellow-r.png"">","null","trial","null","","0.2,0.8","2:nogo_b","1",""
"null","","html-keyboard-response","555","1001598","0.0-6.0-2.111","","<div style=""font-size:60px;"">+</div>","null","","","","","","",""
"null","","image-keyboard-response","556","1003099","0.0-6.0-0.112","","img/yellow.png","null","trial","null","true","0.2,0.8","2:nogo_b","",""
"null","","html-keyboard-response","557","1004110","0.0-6.0-1.112","","<img src=""img/yellow-r.png"">","null","trial","null","","0.2,0.8","2:nogo_b","1",""
"null","","html-keyboard-response","558","1005116","0.0-6.0-2.112","","<div style=""font-size:60px;"">+</div>","null","","","","","","",""
"550.760000012815","","image-keyboard-response","559","1005667","0.0-6.0-0.113","","img/grey.png","32","trial","32","true","0.6,0.4","3:go_c","",""
"null","","html-keyboard-response","560","1006668","0.0-6.0-1.113","","<img src=""img/grey-r.png"" border=""10"">","null","trial","32","","0.6,0.4","3:go_c","1",""
"null","","html-keyboard-response","561","1007683","0.0-6.0-2.113","","<div style=""font-size:60px;"">+</div>","null","","","","","","",""
"846.8500000890344","","image-keyboard-response","562","1008530","0.0-6.0-0.114","","img/blue.png","32","trial","null","false","0.4,0.6","4:nogo_d","",""
"null","","html-keyboard-response","563","1009536","0.0-6.0-1.114","","<img src=""img/blue-r.png"" border=""10"">","null","trial","null","","0.4,0.6","4:nogo_d","1",""
"null","","html-keyboard-response","564","1010546","0.0-6.0-2.114","","<div style=""font-size:60px;"">+</div>","null","","","","","","",""
"616.4699998917058","","image-keyboard-response","565","1011163","0.0-6.0-0.115","","img/pink.png","32","trial","32","true","0.8,0.2","1:go_a","",""
"null","","html-keyboard-response","566","1012165","0.0-6.0-1.115","","<img src=""img/pink-r.png"" border=""10"">","null","trial","32","","0.8,0.2","1:go_a","1",""
"null","","html-keyboard-response","567","1013173","0.0-6.0-2.115","","<div style=""font-size:60px;"">+</div>","null","","","","","","",""
"null","","image-keyboard-response","568","1014687","0.0-6.0-0.116","","img/pink.png","null","trial","32","false","0.8,0.2","1:go_a","",""
"null","","html-keyboard-response","569","1015694","0.0-6.0-1.116","","<img src=""img/pink-n.png"">","null","trial","32","","0.8,0.2","1:go_a","0",""
"null","","html-keyboard-response","570","1016702","0.0-6.0-2.116","","<div style=""font-size:60px;"">+</div>","null","","","","","","",""
"420.7799999276176","","image-keyboard-response","571","1017123","0.0-6.0-0.117","","img/yellow.png","32","trial","null","false","0.2,0.8","2:nogo_b","",""
"null","","html-keyboard-response","572","1018129","0.0-6.0-1.117","","<img src=""img/yellow-n.png"" border=""10"">","null","trial","null","","0.2,0.8","2:nogo_b","0",""
"null","","html-keyboard-response","573","1019141","0.0-6.0-2.117","","<div style=""font-size:60px;"">+</div>","null","","","","","","",""
"null","","image-keyboard-response","574","1020646","0.0-6.0-0.118","","img/grey.png","null","trial","32","false","0.6,0.4","3:go_c","",""
"null","","html-keyboard-response","575","1021648","0.0-6.0-1.118","","<img src=""img/grey-n.png"">","null","trial","32","","0.6,0.4","3:go_c","0",""
"null","","html-keyboard-response","576","1022652","0.0-6.0-2.118","","<div style=""font-size:60px;"">+</div>","null","","","","","","",""
"750.4200000548735","","image-keyboard-response","577","1023403","0.0-6.0-0.119","","img/blue.png","32","trial","null","false","0.4,0.6","4:nogo_d","",""
"null","","html-keyboard-response","578","1024412","0.0-6.0-1.119","","<img src=""img/blue-n.png"" border=""10"">","null","trial","null","","0.4,0.6","4:nogo_d","0",""
"null","","html-keyboard-response","579","1025423","0.0-6.0-2.119","","<div style=""font-size:60px;"">+</div>","null","","","","","","",""
"7803.389999899082","","instructions","580","1033226","0.0-7.0","[{""page_index"":0,""viewing_time"":7803.094999981113}]","","","","","","","","",""
"1351.1949999956414","","image-keyboard-response","581","1034578","0.0-8.0-0.0","","img/green.png","32","trial","null","false","0.4,0.6","4:nogo_d","",""
"null","","html-keyboard-response","582","1035593","0.0-8.0-1.0","","<img src=""img/green-n.png"" border=""10"">","null","trial","null","","0.4,0.6","4:nogo_d","0",""
"null","","html-keyboard-response","583","1036600","0.0-8.0-2.0","","<div style=""font-size:60px;"">+</div>","null","","","","","","",""
"522.3849999019876","","image-keyboard-response","584","1037123","0.0-8.0-0.1","","img/orange.png","32","trial","null","false","0.4,0.6","2:nogo_b","",""
"null","","html-keyboard-response","585","1038136","0.0-8.0-1.1","","<img src=""img/orange-r.png"" border=""10"">","null","trial","null","","0.4,0.6","2:nogo_b","1",""
"null","","html-keyboard-response","586","1039149","0.0-8.0-2.1","","<div style=""font-size:60px;"">+</div>","null","","","","","","",""
"772.74999988731","","image-keyboard-response","587","1039922","0.0-8.0-0.2","","img/blue.png","32","trial","32","true","0.6,0.4","3:go_c","",""
"null","","html-keyboard-response","588","1040938","0.0-8.0-1.2","","<img src=""img/blue-r.png"" border=""10"">","null","trial","32","","0.6,0.4","3:go_c","1",""
"null","","html-keyboard-response","589","1041952","0.0-8.0-2.2","","<div style=""font-size:60px;"">+</div>","null","","","","","","",""
"458.7599999504164","","image-keyboard-response","590","1042411","0.0-8.0-0.3","","img/pink.png","32","trial","32","true","0.6,0.4","1:go_a","",""
"null","","html-keyboard-response","591","1043420","0.0-8.0-1.3","","<img src=""img/pink-r.png"" border=""10"">","null","trial","32","","0.6,0.4","1:go_a","1",""
"null","","html-keyboard-response","592","1044425","0.0-8.0-2.3","","<div style=""font-size:60px;"">+</div>","null","","","","","","",""
"393.6899999389425","","image-keyboard-response","593","1044819","0.0-8.0-0.4","","img/pink.png","32","trial","32","true","0.6,0.4","1:go_a","",""
"null","","html-keyboard-response","594","1045825","0.0-8.0-1.4","","<img src=""img/pink-r.png"" border=""10"">","null","trial","32","","0.6,0.4","1:go_a","1",""
"null","","html-keyboard-response","595","1046836","0.0-8.0-2.4","","<div style=""font-size:60px;"">+</div>","null","","","","","","",""
"494.56000002101064","","image-keyboard-response","596","1047331","0.0-8.0-0.5","","img/green.png","32","trial","null","false","0.4,0.6","4:nogo_d","",""
"null","","html-keyboard-response","597","1048343","0.0-8.0-1.5","","<img src=""img/green-r.png"" border=""10"">","null","trial","null","","0.4,0.6","4:nogo_d","1",""
"null","","html-keyboard-response","598","1049354","0.0-8.0-2.5","","<div style=""font-size:60px;"">+</div>","null","","","","","","",""
"751.7899998929352","","image-keyboard-response","599","1050107","0.0-8.0-0.6","","img/blue.png","32","trial","32","true","0.6,0.4","3:go_c","",""
"null","","html-keyboard-response","600","1051113","0.0-8.0-1.6","","<img src=""img/blue-r.png"" border=""10"">","null","trial","32","","0.6,0.4","3:go_c","1",""
"null","","html-keyboard-response","601","1052119","0.0-8.0-2.6","","<div style=""font-size:60px;"">+</div>","null","","","","","","",""
"939.6300000371411","","image-keyboard-response","602","1053059","0.0-8.0-0.7","","img/orange.png","32","trial","null","false","0.4,0.6","2:nogo_b","",""
"null","","html-keyboard-response","603","1054068","0.0-8.0-1.7","","<img src=""img/orange-r.png"" border=""10"">","null","trial","null","","0.4,0.6","2:nogo_b","1",""
"null","","html-keyboard-response","604","1055081","0.0-8.0-2.7","","<div style=""font-size:60px;"">+</div>","null","","","","","","",""
"489.0150000574067","","image-keyboard-response","605","1055571","0.0-8.0-0.8","","img/orange.png","32","trial","null","false","0.4,0.6","2:nogo_b","",""
"null","","html-keyboard-response","606","1056576","0.0-8.0-1.8","","<img src=""img/orange-r.png"" border=""10"">","null","trial","null","","0.4,0.6","2:nogo_b","1",""
"null","","html-keyboard-response","607","1057584","0.0-8.0-2.8","","<div style=""font-size:60px;"">+</div>","null","","","","","","",""
"746.1200000252575","","image-keyboard-response","608","1058331","0.0-8.0-0.9","","img/pink.png","32","trial","32","true","0.6,0.4","1:go_a","",""
"null","","html-keyboard-response","609","1059337","0.0-8.0-1.9","","<img src=""img/pink-n.png"" border=""10"">","null","trial","32","","0.6,0.4","1:go_a","0",""
"null","","html-keyboard-response","610","1060345","0.0-8.0-2.9","","<div style=""font-size:60px;"">+</div>","null","","","","","","",""
"705.3450000239536","","image-keyboard-response","611","1061051","0.0-8.0-0.10","","img/green.png","32","trial","null","false","0.4,0.6","4:nogo_d","",""
"null","","html-keyboard-response","612","1062057","0.0-8.0-1.10","","<img src=""img/green-n.png"" border=""10"">","null","trial","null","","0.4,0.6","4:nogo_d","0",""
"null","","html-keyboard-response","613","1063069","0.0-8.0-2.10","","<div style=""font-size:60px;"">+</div>","null","","","","","","",""
"637.0249999454245","","image-keyboard-response","614","1063707","0.0-8.0-0.11","","img/blue.png","32","trial","32","true","0.6,0.4","3:go_c","",""
"null","","html-keyboard-response","615","1064716","0.0-8.0-1.11","","<img src=""img/blue-n.png"" border=""10"">","null","trial","32","","0.6,0.4","3:go_c","0",""
"null","","html-keyboard-response","616","1065726","0.0-8.0-2.11","","<div style=""font-size:60px;"">+</div>","null","","","","","","",""
"444.62999992538244","","image-keyboard-response","617","1066171","0.0-8.0-0.12","","img/pink.png","32","trial","32","true","0.6,0.4","1:go_a","",""
"null","","html-keyboard-response","618","1067180","0.0-8.0-1.12","","<img src=""img/pink-r.png"" border=""10"">","null","trial","32","","0.6,0.4","1:go_a","1",""
"null","","html-keyboard-response","619","1068191","0.0-8.0-2.12","","<div style=""font-size:60px;"">+</div>","null","","","","","","",""
"null","","image-keyboard-response","620","1069702","0.0-8.0-0.13","","img/orange.png","null","trial","null","true","0.4,0.6","2:nogo_b","",""
"null","","html-keyboard-response","621","1070711","0.0-8.0-1.13","","<img src=""img/orange-r.png"">","null","trial","null","","0.4,0.6","2:nogo_b","1",""
"null","","html-keyboard-response","622","1071718","0.0-8.0-2.13","","<div style=""font-size:60px;"">+</div>","null","","","","","","",""
"null","","image-keyboard-response","623","1073227","0.0-8.0-0.14","","img/green.png","null","trial","null","true","0.4,0.6","4:nogo_d","",""
"null","","html-keyboard-response","624","1074236","0.0-8.0-1.14","","<img src=""img/green-r.png"">","null","trial","null","","0.4,0.6","4:nogo_d","1",""
"null","","html-keyboard-response","625","1075247","0.0-8.0-2.14","","<div style=""font-size:60px;"">+</div>","null","","","","","","",""
"null","","image-keyboard-response","626","1076760","0.0-8.0-0.15","","img/blue.png","null","trial","32","false","0.6,0.4","3:go_c","",""
"null","","html-keyboard-response","627","1077769","0.0-8.0-1.15","","<img src=""img/blue-r.png"">","null","trial","32","","0.6,0.4","3:go_c","1",""
"null","","html-keyboard-response","628","1078782","0.0-8.0-2.15","","<div style=""font-size:60px;"">+</div>","null","","","","","","",""
"null","","image-keyboard-response","629","1080290","0.0-8.0-0.16","","img/pink.png","null","trial","32","false","0.6,0.4","1:go_a","",""
"null","","html-keyboard-response","630","1081297","0.0-8.0-1.16","","<img src=""img/pink-r.png"">","null","trial","32","","0.6,0.4","1:go_a","1",""
"null","","html-keyboard-response","631","1082307","0.0-8.0-2.16","","<div style=""font-size:60px;"">+</div>","null","","","","","","",""
"567.9900000104681","","image-keyboard-response","632","1082875","0.0-8.0-0.17","","img/blue.png","32","trial","32","true","0.6,0.4","3:go_c","",""
"null","","html-keyboard-response","633","1083883","0.0-8.0-1.17","","<img src=""img/blue-r.png"" border=""10"">","null","trial","32","","0.6,0.4","3:go_c","1",""
"null","","html-keyboard-response","634","1084895","0.0-8.0-2.17","","<div style=""font-size:60px;"">+</div>","null","","","","","","",""
"null","","image-keyboard-response","635","1086398","0.0-8.0-0.18","","img/green.png","null","trial","null","true","0.4,0.6","4:nogo_d","",""
"null","","html-keyboard-response","636","1087409","0.0-8.0-1.18","","<img src=""img/green-r.png"">","null","trial","null","","0.4,0.6","4:nogo_d","1",""
"null","","html-keyboard-response","637","1088424","0.0-8.0-2.18","","<div style=""font-size:60px;"">+</div>","null","","","","","","",""
"null","","image-keyboard-response","638","1089938","0.0-8.0-0.19","","img/orange.png","null","trial","null","true","0.4,0.6","2:nogo_b","",""
"null","","html-keyboard-response","639","1090953","0.0-8.0-1.19","","<img src=""img/orange-r.png"">","null","trial","null","","0.4,0.6","2:nogo_b","1",""
"null","","html-keyboard-response","640","1091959","0.0-8.0-2.19","","<div style=""font-size:60px;"">+</div>","null","","","","","","",""
"null","","image-keyboard-response","641","1093475","0.0-8.0-0.20","","img/pink.png","null","trial","32","false","0.6,0.4","1:go_a","",""
"null","","html-keyboard-response","642","1094491","0.0-8.0-1.20","","<img src=""img/pink-r.png"">","null","trial","32","","0.6,0.4","1:go_a","1",""
"null","","html-keyboard-response","643","1095503","0.0-8.0-2.20","","<div style=""font-size:60px;"">+</div>","null","","","","","","",""
"null","","image-keyboard-response","644","1097017","0.0-8.0-0.21","","img/orange.png","null","trial","null","true","0.4,0.6","2:nogo_b","",""
"null","","html-keyboard-response","645","1098028","0.0-8.0-1.21","","<img src=""img/orange-r.png"">","null","trial","null","","0.4,0.6","2:nogo_b","1",""
"null","","html-keyboard-response","646","1099035","0.0-8.0-2.21","","<div style=""font-size:60px;"">+</div>","null","","","","","","",""
"null","","image-keyboard-response","647","1100545","0.0-8.0-0.22","","img/blue.png","null","trial","32","false","0.6,0.4","3:go_c","",""
"null","","html-keyboard-response","648","1101558","0.0-8.0-1.22","","<img src=""img/blue-r.png"">","null","trial","32","","0.6,0.4","3:go_c","1",""
"null","","html-keyboard-response","649","1102565","0.0-8.0-2.22","","<div style=""font-size:60px;"">+</div>","null","","","","","","",""
"null","","image-keyboard-response","650","1104069","0.0-8.0-0.23","","img/green.png","null","trial","null","true","0.4,0.6","4:nogo_d","",""
"null","","html-keyboard-response","651","1105083","0.0-8.0-1.23","","<img src=""img/green-n.png"">","null","trial","null","","0.4,0.6","4:nogo_d","0",""
"null","","html-keyboard-response","652","1106098","0.0-8.0-2.23","","<div style=""font-size:60px;"">+</div>","null","","","","","","",""
"352.82999998889863","","image-keyboard-response","653","1106451","0.0-8.0-0.24","","img/orange.png","32","trial","null","false","0.4,0.6","2:nogo_b","",""
"null","","html-keyboard-response","654","1107460","0.0-8.0-1.24","","<img src=""img/orange-n.png"" border=""10"">","null","trial","null","","0.4,0.6","2:nogo_b","0",""
"null","","html-keyboard-response","655","1108473","0.0-8.0-2.24","","<div style=""font-size:60px;"">+</div>","null","","","","","","",""
"457.24999997764826","","image-keyboard-response","656","1108931","0.0-8.0-0.25","","img/pink.png","32","trial","32","true","0.6,0.4","1:go_a","",""
"null","","html-keyboard-response","657","1109934","0.0-8.0-1.25","","<img src=""img/pink-r.png"" border=""10"">","null","trial","32","","0.6,0.4","1:go_a","1",""
"null","","html-keyboard-response","658","1110944","0.0-8.0-2.25","","<div style=""font-size:60px;"">+</div>","null","","","","","","",""
"null","","image-keyboard-response","659","1112455","0.0-8.0-0.26","","img/green.png","null","trial","null","true","0.4,0.6","4:nogo_d","",""
"null","","html-keyboard-response","660","1113465","0.0-8.0-1.26","","<img src=""img/green-r.png"">","null","trial","null","","0.4,0.6","4:nogo_d","1",""
"null","","html-keyboard-response","661","1114476","0.0-8.0-2.26","","<div style=""font-size:60px;"">+</div>","null","","","","","","",""
"null","","image-keyboard-response","662","1115990","0.0-8.0-0.27","","img/blue.png","null","trial","32","false","0.6,0.4","3:go_c","",""
"null","","html-keyboard-response","663","1116999","0.0-8.0-1.27","","<img src=""img/blue-n.png"">","null","trial","32","","0.6,0.4","3:go_c","0",""
"null","","html-keyboard-response","664","1118008","0.0-8.0-2.27","","<div style=""font-size:60px;"">+</div>","null","","","","","","",""
"null","","image-keyboard-response","665","1119519","0.0-8.0-0.28","","img/orange.png","null","trial","null","true","0.4,0.6","2:nogo_b","",""
"null","","html-keyboard-response","666","1120528","0.0-8.0-1.28","","<img src=""img/orange-r.png"">","null","trial","null","","0.4,0.6","2:nogo_b","1",""
"null","","html-keyboard-response","667","1121535","0.0-8.0-2.28","","<div style=""font-size:60px;"">+</div>","null","","","","","","",""
"539.6500000497326","","image-keyboard-response","668","1122075","0.0-8.0-0.29","","img/pink.png","32","trial","32","true","0.6,0.4","1:go_a","",""
"null","","html-keyboard-response","669","1123092","0.0-8.0-1.29","","<img src=""img/pink-r.png"" border=""10"">","null","trial","32","","0.6,0.4","1:go_a","1",""
"null","","html-keyboard-response","670","1124098","0.0-8.0-2.29","","<div style=""font-size:60px;"">+</div>","null","","","","","","",""
"null","","image-keyboard-response","671","1125605","0.0-8.0-0.30","","img/green.png","null","trial","null","true","0.4,0.6","4:nogo_d","",""
"null","","html-keyboard-response","672","1126609","0.0-8.0-1.30","","<img src=""img/green-n.png"">","null","trial","null","","0.4,0.6","4:nogo_d","0",""
"null","","html-keyboard-response","673","1127617","0.0-8.0-2.30","","<div style=""font-size:60px;"">+</div>","null","","","","","","",""
"401.2699999148026","","image-keyboard-response","674","1128019","0.0-8.0-0.31","","img/blue.png","32","trial","32","true","0.6,0.4","3:go_c","",""
"null","","html-keyboard-response","675","1129030","0.0-8.0-1.31","","<img src=""img/blue-n.png"" border=""10"">","null","trial","32","","0.6,0.4","3:go_c","0",""
"null","","html-keyboard-response","676","1130041","0.0-8.0-2.31","","<div style=""font-size:60px;"">+</div>","null","","","","","","",""
"440.9900000318885","","image-keyboard-response","677","1130483","0.0-8.0-0.32","","img/blue.png","32","trial","32","true","0.6,0.4","3:go_c","",""
"null","","html-keyboard-response","678","1131487","0.0-8.0-1.32","","<img src=""img/blue-n.png"" border=""10"">","null","trial","32","","0.6,0.4","3:go_c","0",""
"null","","html-keyboard-response","679","1132492","0.0-8.0-2.32","","<div style=""font-size:60px;"">+</div>","null","","","","","","",""
"null","","image-keyboard-response","680","1133997","0.0-8.0-0.33","","img/green.png","null","trial","null","true","0.4,0.6","4:nogo_d","",""
"null","","html-keyboard-response","681","1135008","0.0-8.0-1.33","","<img src=""img/green-r.png"">","null","trial","null","","0.4,0.6","4:nogo_d","1",""
