"rt","url","trial_type","trial_index","time_elapsed","internal_node_id","view_history","stimulus","key_press","test_part","correct_response","correct","use_rew","which_stim","reward","responses"
"64778.90000003576","consent.html","external-html","0","64894","0.0-0.0","","","","","","","","","",""
"137056.30000001192","","instructions","1","201954","0.0-1.0","[{""page_index"":0,""viewing_time"":7104.100000023842},{""page_index"":1,""viewing_time"":34163.39999997616},{""page_index"":2,""viewing_time"":7983},{""page_index"":3,""viewing_time"":45511.30000001192},{""page_index"":4,""viewing_time"":17430.5},{""page_index"":5,""viewing_time"":7449.800000011921},{""page_index"":6,""viewing_time"":17412.5}]","","","","","","","","",""
"null","","image-keyboard-response","2","203464","0.0-2.0-0.0","","img/test3.PNG","null","practice","null","true","","","",""
"null","","html-keyboard-response","3","204474","0.0-2.0-1.0","","<img src=""img/test3-reward.PNG"">","null","","","","","","",""
"null","","html-keyboard-response","4","205484","0.0-2.0-2.0","","<div style=""font-size:60px;"">+</div>","null","","","","","","",""
"430.0999999642372","","image-keyboard-response","5","205916","0.0-2.0-0.1","","img/test1.PNG","32","practice","32","true","","","",""
"null","","html-keyboard-response","6","206924","0.0-2.0-1.1","","<img src=""img/test1-reward.PNG"" border=""10px; grey"">","null","","","","","","",""
"null","","html-keyboard-response","7","207933","0.0-2.0-2.1","","<div style=""font-size:60px;"">+</div>","null","","","","","","",""
"null","","image-keyboard-response","8","209446","0.0-2.0-0.2","","img/test2.PNG","null","practice","null","true","","","",""
"null","","html-keyboard-response","9","210463","0.0-2.0-1.2","","<img src=""img/test2-reward.PNG"">","null","","","","","","",""
"null","","html-keyboard-response","10","211480","0.0-2.0-2.2","","<div style=""font-size:60px;"">+</div>","null","","","","","","",""
"null","","image-keyboard-response","11","212997","0.0-2.0-0.3","","img/test2.PNG","null","practice","null","true","","","",""
"null","","html-keyboard-response","12","214013","0.0-2.0-1.3","","<img src=""img/test2-reward.PNG"">","null","","","","","","",""
"null","","html-keyboard-response","13","215030","0.0-2.0-2.3","","<div style=""font-size:60px;"">+</div>","null","","","","","","",""
"null","","image-keyboard-response","14","216545","0.0-2.0-0.4","","img/test3.PNG","null","practice","null","true","","","",""
"null","","html-keyboard-response","15","217548","0.0-2.0-1.4","","<img src=""img/test3-reward.PNG"">","null","","","","","","",""
"null","","html-keyboard-response","16","218562","0.0-2.0-2.4","","<div style=""font-size:60px;"">+</div>","null","","","","","","",""
"340.19999998807907","","image-keyboard-response","17","218904","0.0-2.0-0.5","","img/test1.PNG","32","practice","32","true","","","",""
"null","","html-keyboard-response","18","219911","0.0-2.0-1.5","","<img src=""img/test1-reward.PNG"" border=""10px; grey"">","null","","","","","","",""
"null","","html-keyboard-response","19","220929","0.0-2.0-2.5","","<div style=""font-size:60px;"">+</div>","null","","","","","","",""
"null","","image-keyboard-response","20","222446","0.0-2.0-0.6","","img/test1.PNG","null","practice","32","false","","","",""
"null","","html-keyboard-response","21","223460","0.0-2.0-1.6","","<img src=""img/test1-neutral.PNG"">","null","","","","","","",""
"null","","html-keyboard-response","22","224478","0.0-2.0-2.6","","<div style=""font-size:60px;"">+</div>","null","","","","","","",""
"null","","image-keyboard-response","23","225993","0.0-2.0-0.7","","img/test3.PNG","null","practice","null","true","","","",""
"null","","html-keyboard-response","24","227012","0.0-2.0-1.7","","<img src=""img/test3-reward.PNG"">","null","","","","","","",""
"null","","html-keyboard-response","25","228027","0.0-2.0-2.7","","<div style=""font-size:60px;"">+</div>","null","","","","","","",""
"null","","image-keyboard-response","26","229544","0.0-2.0-0.8","","img/test2.PNG","null","practice","null","true","","","",""
"null","","html-keyboard-response","27","230560","0.0-2.0-1.8","","<img src=""img/test2-reward.PNG"">","null","","","","","","",""
"null","","html-keyboard-response","28","231576","0.0-2.0-2.8","","<div style=""font-size:60px;"">+</div>","null","","","","","","",""
"null","","image-keyboard-response","29","233093","0.0-2.0-0.9","","img/test2.PNG","null","practice","null","true","","","",""
"null","","html-keyboard-response","30","234110","0.0-2.0-1.9","","<img src=""img/test2-reward.PNG"">","null","","","","","","",""
"null","","html-keyboard-response","31","235126","0.0-2.0-2.9","","<div style=""font-size:60px;"">+</div>","null","","","","","","",""
"null","","image-keyboard-response","32","236642","0.0-2.0-0.10","","img/test3.PNG","null","practice","null","true","","","",""
"null","","html-keyboard-response","33","237658","0.0-2.0-1.10","","<img src=""img/test3-reward.PNG"">","null","","","","","","",""
"null","","html-keyboard-response","34","238675","0.0-2.0-2.10","","<div style=""font-size:60px;"">+</div>","null","","","","","","",""
"459.10000002384186","","image-keyboard-response","35","239137","0.0-2.0-0.11","","img/test1.PNG","32","practice","32","true","","","",""
"null","","html-keyboard-response","36","240147","0.0-2.0-1.11","","<img src=""img/test1-reward.PNG"" border=""10px; grey"">","null","","","","","","",""
"null","","html-keyboard-response","37","241160","0.0-2.0-2.11","","<div style=""font-size:60px;"">+</div>","null","","","","","","",""
"34298.89999997616","","instructions","38","275460","0.0-3.0","[{""page_index"":0,""viewing_time"":34298.10000002384}]","","","","","","","","",""
"1398.4000000357628","","image-keyboard-response","39","276860","0.0-4.0-0.0","","img/red.png","32","trial","32","true","0.8,0.2","1:go_a","",""
"null","","html-keyboard-response","40","277870","0.0-4.0-1.0","","<img src=""img/red-r.png"" border=""10"">","null","trial","32","","0.8,0.2","1:go_a","1",""
"null","","html-keyboard-response","41","278887","0.0-4.0-2.0","","<div style=""font-size:60px;"">+</div>","null","","","","","","",""
"830.5","","image-keyboard-response","42","279720","0.0-4.0-0.1","","img/purple.png","32","trial","null","false","0.2,0.8","2:nogo_b","",""
"null","","html-keyboard-response","43","280737","0.0-4.0-1.1","","<img src=""img/purple-n.png"" border=""10"">","null","trial","null","","0.2,0.8","2:nogo_b","0",""
"null","","html-keyboard-response","44","281753","0.0-4.0-2.1","","<div style=""font-size:60px;"">+</div>","null","","","","","","",""
"641.3000000119209","","image-keyboard-response","45","282397","0.0-4.0-0.2","","img/red.png","32","trial","32","true","0.8,0.2","1:go_a","",""
"null","","html-keyboard-response","46","283404","0.0-4.0-1.2","","<img src=""img/red-n.png"" border=""10"">","null","trial","32","","0.8,0.2","1:go_a","0",""
"null","","html-keyboard-response","47","284420","0.0-4.0-2.2","","<div style=""font-size:60px;"">+</div>","null","","","","","","",""
"1047.800000011921","","image-keyboard-response","48","285471","0.0-4.0-0.3","","img/purple.png","32","trial","null","false","0.2,0.8","2:nogo_b","",""
"null","","html-keyboard-response","49","286486","0.0-4.0-1.3","","<img src=""img/purple-r.png"" border=""10"">","null","trial","null","","0.2,0.8","2:nogo_b","1",""
"null","","html-keyboard-response","50","287503","0.0-4.0-2.3","","<div style=""font-size:60px;"">+</div>","null","","","","","","",""
"836.3999999761581","","image-keyboard-response","51","288341","0.0-4.0-0.4","","img/purple.png","32","trial","null","false","0.2,0.8","2:nogo_b","",""
"null","","html-keyboard-response","52","289350","0.0-4.0-1.4","","<img src=""img/purple-n.png"" border=""10"">","null","trial","null","","0.2,0.8","2:nogo_b","0",""
"null","","html-keyboard-response","53","290355","0.0-4.0-2.4","","<div style=""font-size:60px;"">+</div>","null","","","","","","",""
"991","","image-keyboard-response","54","291348","0.0-4.0-0.5","","img/red.png","32","trial","32","true","0.8,0.2","1:go_a","",""
"null","","html-keyboard-response","55","292359","0.0-4.0-1.5","","<img src=""img/red-r.png"" border=""10"">","null","trial","32","","0.8,0.2","1:go_a","1",""
"null","","html-keyboard-response","56","293370","0.0-4.0-2.5","","<div style=""font-size:60px;"">+</div>","null","","","","","","",""
"null","","image-keyboard-response","57","294885","0.0-4.0-0.6","","img/red.png","null","trial","32","false","0.8,0.2","1:go_a","",""
"null","","html-keyboard-response","58","295903","0.0-4.0-1.6","","<img src=""img/red-n.png"">","null","trial","32","","0.8,0.2","1:go_a","0",""
"null","","html-keyboard-response","59","296918","0.0-4.0-2.6","","<div style=""font-size:60px;"">+</div>","null","","","","","","",""
"582.9000000357628","","image-keyboard-response","60","297503","0.0-4.0-0.7","","img/purple.png","32","trial","null","false","0.2,0.8","2:nogo_b","",""
"null","","html-keyboard-response","61","298517","0.0-4.0-1.7","","<img src=""img/purple-n.png"" border=""10"">","null","trial","null","","0.2,0.8","2:nogo_b","0",""
"null","","html-keyboard-response","62","299521","0.0-4.0-2.7","","<div style=""font-size:60px;"">+</div>","null","","","","","","",""
"436.19999998807907","","image-keyboard-response","63","299960","0.0-4.0-0.8","","img/purple.png","32","trial","null","false","0.2,0.8","2:nogo_b","",""
"null","","html-keyboard-response","64","300969","0.0-4.0-1.8","","<img src=""img/purple-n.png"" border=""10"">","null","trial","null","","0.2,0.8","2:nogo_b","0",""
"null","","html-keyboard-response","65","301985","0.0-4.0-2.8","","<div style=""font-size:60px;"">+</div>","null","","","","","","",""
"941.6999999880791","","image-keyboard-response","66","302929","0.0-4.0-0.9","","img/red.png","32","trial","32","true","0.8,0.2","1:go_a","",""
"null","","html-keyboard-response","67","303934","0.0-4.0-1.9","","<img src=""img/red-r.png"" border=""10"">","null","trial","32","","0.8,0.2","1:go_a","1",""
"null","","html-keyboard-response","68","304951","0.0-4.0-2.9","","<div style=""font-size:60px;"">+</div>","null","","","","","","",""
"null","","image-keyboard-response","69","306467","0.0-4.0-0.10","","img/red.png","null","trial","32","false","0.8,0.2","1:go_a","",""
"null","","html-keyboard-response","70","307483","0.0-4.0-1.10","","<img src=""img/red-n.png"">","null","trial","32","","0.8,0.2","1:go_a","0",""
"null","","html-keyboard-response","71","308500","0.0-4.0-2.10","","<div style=""font-size:60px;"">+</div>","null","","","","","","",""
"null","","image-keyboard-response","72","310017","0.0-4.0-0.11","","img/purple.png","null","trial","null","true","0.2,0.8","2:nogo_b","",""
"null","","html-keyboard-response","73","311035","0.0-4.0-1.11","","<img src=""img/purple-n.png"">","null","trial","null","","0.2,0.8","2:nogo_b","0",""
"null","","html-keyboard-response","74","312044","0.0-4.0-2.11","","<div style=""font-size:60px;"">+</div>","null","","","","","","",""
"290.9000000357628","","image-keyboard-response","75","312339","0.0-4.0-0.12","","img/purple.png","32","trial","null","false","0.2,0.8","2:nogo_b","",""
"null","","html-keyboard-response","76","313350","0.0-4.0-1.12","","<img src=""img/purple-n.png"" border=""10"">","null","trial","null","","0.2,0.8","2:nogo_b","0",""
"null","","html-keyboard-response","77","314368","0.0-4.0-2.12","","<div style=""font-size:60px;"">+</div>","null","","","","","","",""
"786.5","","image-keyboard-response","78","315156","0.0-4.0-0.13","","img/red.png","32","trial","32","true","0.8,0.2","1:go_a","",""
"null","","html-keyboard-response","79","316168","0.0-4.0-1.13","","<img src=""img/red-n.png"" border=""10"">","null","trial","32","","0.8,0.2","1:go_a","0",""
"null","","html-keyboard-response","80","317183","0.0-4.0-2.13","","<div style=""font-size:60px;"">+</div>","null","","","","","","",""
"1158.8999999761581","","image-keyboard-response","81","318344","0.0-4.0-0.14","","img/purple.png","32","trial","null","false","0.2,0.8","2:nogo_b","",""
"null","","html-keyboard-response","82","319355","0.0-4.0-1.14","","<img src=""img/purple-n.png"" border=""10"">","null","trial","null","","0.2,0.8","2:nogo_b","0",""
"null","","html-keyboard-response","83","320365","0.0-4.0-2.14","","<div style=""font-size:60px;"">+</div>","null","","","","","","",""
"788.5999999642372","","image-keyboard-response","84","321155","0.0-4.0-0.15","","img/red.png","32","trial","32","true","0.8,0.2","1:go_a","",""
"null","","html-keyboard-response","85","322168","0.0-4.0-1.15","","<img src=""img/red-r.png"" border=""10"">","null","trial","32","","0.8,0.2","1:go_a","1",""
"null","","html-keyboard-response","86","323183","0.0-4.0-2.15","","<div style=""font-size:60px;"">+</div>","null","","","","","","",""
"null","","image-keyboard-response","87","324700","0.0-4.0-0.16","","img/red.png","null","trial","32","false","0.8,0.2","1:go_a","",""
"null","","html-keyboard-response","88","325714","0.0-4.0-1.16","","<img src=""img/red-n.png"">","null","trial","32","","0.8,0.2","1:go_a","0",""
"null","","html-keyboard-response","89","326717","0.0-4.0-2.16","","<div style=""font-size:60px;"">+</div>","null","","","","","","",""
"null","","image-keyboard-response","90","328231","0.0-4.0-0.17","","img/purple.png","null","trial","null","true","0.2,0.8","2:nogo_b","",""
"null","","html-keyboard-response","91","329258","0.0-4.0-1.17","","<img src=""img/purple-r.png"">","null","trial","null","","0.2,0.8","2:nogo_b","1",""
"null","","html-keyboard-response","92","330265","0.0-4.0-2.17","","<div style=""font-size:60px;"">+</div>","null","","","","","","",""
"null","","image-keyboard-response","93","331780","0.0-4.0-0.18","","img/purple.png","null","trial","null","true","0.2,0.8","2:nogo_b","",""
"null","","html-keyboard-response","94","332798","0.0-4.0-1.18","","<img src=""img/purple-r.png"">","null","trial","null","","0.2,0.8","2:nogo_b","1",""
"null","","html-keyboard-response","95","333814","0.0-4.0-2.18","","<div style=""font-size:60px;"">+</div>","null","","","","","","",""
"821.6999999880791","","image-keyboard-response","96","334637","0.0-4.0-0.19","","img/red.png","32","trial","32","true","0.8,0.2","1:go_a","",""
"null","","html-keyboard-response","97","335647","0.0-4.0-1.19","","<img src=""img/red-r.png"" border=""10"">","null","trial","32","","0.8,0.2","1:go_a","1",""
"null","","html-keyboard-response","98","336665","0.0-4.0-2.19","","<div style=""font-size:60px;"">+</div>","null","","","","","","",""
"921.6999999880791","","image-keyboard-response","99","337589","0.0-4.0-0.20","","img/purple.png","32","trial","null","false","0.2,0.8","2:nogo_b","",""
"null","","html-keyboard-response","100","338597","0.0-4.0-1.20","","<img src=""img/purple-n.png"" border=""10"">","null","trial","null","","0.2,0.8","2:nogo_b","0",""
"null","","html-keyboard-response","101","339613","0.0-4.0-2.20","","<div style=""font-size:60px;"">+</div>","null","","","","","","",""
"954.1999999880791","","image-keyboard-response","102","340570","0.0-4.0-0.21","","img/red.png","32","trial","32","true","0.8,0.2","1:go_a","",""
"null","","html-keyboard-response","103","341579","0.0-4.0-1.21","","<img src=""img/red-r.png"" border=""10"">","null","trial","32","","0.8,0.2","1:go_a","1",""
"null","","html-keyboard-response","104","342589","0.0-4.0-2.21","","<div style=""font-size:60px;"">+</div>","null","","","","","","",""
"654","","image-keyboard-response","105","343245","0.0-4.0-0.22","","img/purple.png","32","trial","null","false","0.2,0.8","2:nogo_b","",""
"null","","html-keyboard-response","106","344262","0.0-4.0-1.22","","<img src=""img/purple-r.png"" border=""10"">","null","trial","null","","0.2,0.8","2:nogo_b","1",""
"null","","html-keyboard-response","107","345279","0.0-4.0-2.22","","<div style=""font-size:60px;"">+</div>","null","","","","","","",""
"null","","image-keyboard-response","108","346797","0.0-4.0-0.23","","img/red.png","null","trial","32","false","0.8,0.2","1:go_a","",""
"null","","html-keyboard-response","109","347811","0.0-4.0-1.23","","<img src=""img/red-n.png"">","null","trial","32","","0.8,0.2","1:go_a","0",""
"null","","html-keyboard-response","110","348829","0.0-4.0-2.23","","<div style=""font-size:60px;"">+</div>","null","","","","","","",""
"null","","image-keyboard-response","111","350344","0.0-4.0-0.24","","img/purple.png","null","trial","null","true","0.2,0.8","2:nogo_b","",""
"null","","html-keyboard-response","112","351361","0.0-4.0-1.24","","<img src=""img/purple-r.png"">","null","trial","null","","0.2,0.8","2:nogo_b","1",""
"null","","html-keyboard-response","113","352363","0.0-4.0-2.24","","<div style=""font-size:60px;"">+</div>","null","","","","","","",""
"null","","image-keyboard-response","114","353880","0.0-4.0-0.25","","img/red.png","null","trial","32","false","0.8,0.2","1:go_a","",""
"null","","html-keyboard-response","115","354894","0.0-4.0-1.25","","<img src=""img/red-n.png"">","null","trial","32","","0.8,0.2","1:go_a","0",""
"null","","html-keyboard-response","116","355914","0.0-4.0-2.25","","<div style=""font-size:60px;"">+</div>","null","","","","","","",""
"810.4000000357628","","image-keyboard-response","117","356727","0.0-4.0-0.26","","img/purple.png","32","trial","null","false","0.2,0.8","2:nogo_b","",""
"null","","html-keyboard-response","118","357743","0.0-4.0-1.26","","<img src=""img/purple-r.png"" border=""10"">","null","trial","null","","0.2,0.8","2:nogo_b","1",""
"null","","html-keyboard-response","119","358761","0.0-4.0-2.26","","<div style=""font-size:60px;"">+</div>","null","","","","","","",""
"351.80000001192093","","image-keyboard-response","120","359116","0.0-4.0-0.27","","img/red.png","32","trial","32","true","0.8,0.2","1:go_a","",""
"null","","html-keyboard-response","121","360127","0.0-4.0-1.27","","<img src=""img/red-r.png"" border=""10"">","null","trial","32","","0.8,0.2","1:go_a","1",""
"null","","html-keyboard-response","122","361143","0.0-4.0-2.27","","<div style=""font-size:60px;"">+</div>","null","","","","","","",""
"null","","image-keyboard-response","123","362661","0.0-4.0-0.28","","img/purple.png","null","trial","null","true","0.2,0.8","2:nogo_b","",""
"null","","html-keyboard-response","124","363676","0.0-4.0-1.28","","<img src=""img/purple-r.png"">","null","trial","null","","0.2,0.8","2:nogo_b","1",""
"null","","html-keyboard-response","125","364694","0.0-4.0-2.28","","<div style=""font-size:60px;"">+</div>","null","","","","","","",""
"646.5","","image-keyboard-response","126","365342","0.0-4.0-0.29","","img/red.png","32","trial","32","true","0.8,0.2","1:go_a","",""
"null","","html-keyboard-response","127","366360","0.0-4.0-1.29","","<img src=""img/red-r.png"" border=""10"">","null","trial","32","","0.8,0.2","1:go_a","1",""
"null","","html-keyboard-response","128","367377","0.0-4.0-2.29","","<div style=""font-size:60px;"">+</div>","null","","","","","","",""
"null","","image-keyboard-response","129","368893","0.0-4.0-0.30","","img/red.png","null","trial","32","false","0.8,0.2","1:go_a","",""
"null","","html-keyboard-response","130","369908","0.0-4.0-1.30","","<img src=""img/red-n.png"">","null","trial","32","","0.8,0.2","1:go_a","0",""
"null","","html-keyboard-response","131","370910","0.0-4.0-2.30","","<div style=""font-size:60px;"">+</div>","null","","","","","","",""
"1163.0999999642372","","image-keyboard-response","132","372075","0.0-4.0-0.31","","img/purple.png","32","trial","null","false","0.2,0.8","2:nogo_b","",""
"null","","html-keyboard-response","133","373092","0.0-4.0-1.31","","<img src=""img/purple-n.png"" border=""10"">","null","trial","null","","0.2,0.8","2:nogo_b","0",""
"null","","html-keyboard-response","134","374108","0.0-4.0-2.31","","<div style=""font-size:60px;"">+</div>","null","","","","","","",""
"794.3000000119209","","image-keyboard-response","135","374904","0.0-4.0-0.32","","img/red.png","32","trial","32","true","0.8,0.2","1:go_a","",""
"null","","html-keyboard-response","136","375910","0.0-4.0-1.32","","<img src=""img/red-n.png"" border=""10"">","null","trial","32","","0.8,0.2","1:go_a","0",""
"null","","html-keyboard-response","137","376925","0.0-4.0-2.32","","<div style=""font-size:60px;"">+</div>","null","","","","","","",""
"810.8000000119209","","image-keyboard-response","138","377738","0.0-4.0-0.33","","img/purple.png","32","trial","null","false","0.2,0.8","2:nogo_b","",""
"null","","html-keyboard-response","139","378759","0.0-4.0-1.33","","<img src=""img/purple-n.png"" border=""10"">","null","trial","null","","0.2,0.8","2:nogo_b","0",""
"null","","html-keyboard-response","140","379774","0.0-4.0-2.33","","<div style=""font-size:60px;"">+</div>","null","","","","","","",""
"null","","image-keyboard-response","141","381291","0.0-4.0-0.34","","img/purple.png","null","trial","null","true","0.2,0.8","2:nogo_b","",""
"null","","html-keyboard-response","142","382308","0.0-4.0-1.34","","<img src=""img/purple-r.png"">","null","trial","null","","0.2,0.8","2:nogo_b","1",""
"null","","html-keyboard-response","143","383323","0.0-4.0-2.34","","<div style=""font-size:60px;"">+</div>","null","","","","","","",""
"604","","image-keyboard-response","144","383928","0.0-4.0-0.35","","img/red.png","32","trial","32","true","0.8,0.2","1:go_a","",""
"null","","html-keyboard-response","145","384940","0.0-4.0-1.35","","<img src=""img/red-r.png"" border=""10"">","null","trial","32","","0.8,0.2","1:go_a","1",""
"null","","html-keyboard-response","146","385958","0.0-4.0-2.35","","<div style=""font-size:60px;"">+</div>","null","","","","","","",""
"null","","image-keyboard-response","147","387473","0.0-4.0-0.36","","img/purple.png","null","trial","null","true","0.2,0.8","2:nogo_b","",""
"null","","html-keyboard-response","148","388488","0.0-4.0-1.36","","<img src=""img/purple-r.png"">","null","trial","null","","0.2,0.8","2:nogo_b","1",""
"null","","html-keyboard-response","149","389490","0.0-4.0-2.36","","<div style=""font-size:60px;"">+</div>","null","","","","","","",""
"828.3000000119209","","image-keyboard-response","150","390320","0.0-4.0-0.37","","img/red.png","32","trial","32","true","0.8,0.2","1:go_a","",""
"null","","html-keyboard-response","151","391324","0.0-4.0-1.37","","<img src=""img/red-n.png"" border=""10"">","null","trial","32","","0.8,0.2","1:go_a","0",""
"null","","html-keyboard-response","152","392347","0.0-4.0-2.37","","<div style=""font-size:60px;"">+</div>","null","","","","","","",""
"1000.3000000119209","","image-keyboard-response","153","393349","0.0-4.0-0.38","","img/red.png","32","trial","32","true","0.8,0.2","1:go_a","",""
"null","","html-keyboard-response","154","394357","0.0-4.0-1.38","","<img src=""img/red-r.png"" border=""10"">","null","trial","32","","0.8,0.2","1:go_a","1",""
"null","","html-keyboard-response","155","395375","0.0-4.0-2.38","","<div style=""font-size:60px;"">+</div>","null","","","","","","",""
"1043.3999999761581","","image-keyboard-response","156","396421","0.0-4.0-0.39","","img/purple.png","32","trial","null","false","0.2,0.8","2:nogo_b","",""
"null","","html-keyboard-response","157","397438","0.0-4.0-1.39","","<img src=""img/purple-n.png"" border=""10"">","null","trial","null","","0.2,0.8","2:nogo_b","0",""
"null","","html-keyboard-response","158","398441","0.0-4.0-2.39","","<div style=""font-size:60px;"">+</div>","null","","","","","","",""
"null","","image-keyboard-response","159","399956","0.0-4.0-0.40","","img/purple.png","null","trial","null","true","0.2,0.8","2:nogo_b","",""
"null","","html-keyboard-response","160","400970","0.0-4.0-1.40","","<img src=""img/purple-r.png"">","null","trial","null","","0.2,0.8","2:nogo_b","1",""
"null","","html-keyboard-response","161","401981","0.0-4.0-2.40","","<div style=""font-size:60px;"">+</div>","null","","","","","","",""
"581.3000000119209","","image-keyboard-response","162","402564","0.0-4.0-0.41","","img/red.png","32","trial","32","true","0.8,0.2","1:go_a","",""
"null","","html-keyboard-response","163","403571","0.0-4.0-1.41","","<img src=""img/red-r.png"" border=""10"">","null","trial","32","","0.8,0.2","1:go_a","1",""
"null","","html-keyboard-response","164","404588","0.0-4.0-2.41","","<div style=""font-size:60px;"">+</div>","null","","","","","","",""
"null","","image-keyboard-response","165","406102","0.0-4.0-0.42","","img/red.png","null","trial","32","false","0.8,0.2","1:go_a","",""
"null","","html-keyboard-response","166","407122","0.0-4.0-1.42","","<img src=""img/red-r.png"">","null","trial","32","","0.8,0.2","1:go_a","1",""
"null","","html-keyboard-response","167","408136","0.0-4.0-2.42","","<div style=""font-size:60px;"">+</div>","null","","","","","","",""
"808.4000000357628","","image-keyboard-response","168","408946","0.0-4.0-0.43","","img/purple.png","32","trial","null","false","0.2,0.8","2:nogo_b","",""
"null","","html-keyboard-response","169","409953","0.0-4.0-1.43","","<img src=""img/purple-n.png"" border=""10"">","null","trial","null","","0.2,0.8","2:nogo_b","0",""
"null","","html-keyboard-response","170","410970","0.0-4.0-2.43","","<div style=""font-size:60px;"">+</div>","null","","","","","","",""
"712.3000000119209","","image-keyboard-response","171","411684","0.0-4.0-0.44","","img/red.png","32","trial","32","true","0.8,0.2","1:go_a","",""
"null","","html-keyboard-response","172","412702","0.0-4.0-1.44","","<img src=""img/red-r.png"" border=""10"">","null","trial","32","","0.8,0.2","1:go_a","1",""
"null","","html-keyboard-response","173","413719","0.0-4.0-2.44","","<div style=""font-size:60px;"">+</div>","null","","","","","","",""
"752.6999999880791","","image-keyboard-response","174","414473","0.0-4.0-0.45","","img/purple.png","32","trial","null","false","0.2,0.8","2:nogo_b","",""
"null","","html-keyboard-response","175","415486","0.0-4.0-1.45","","<img src=""img/purple-n.png"" border=""10"">","null","trial","null","","0.2,0.8","2:nogo_b","0",""
"null","","html-keyboard-response","176","416503","0.0-4.0-2.45","","<div style=""font-size:60px;"">+</div>","null","","","","","","",""
"848","","image-keyboard-response","177","417353","0.0-4.0-0.46","","img/purple.png","32","trial","null","false","0.2,0.8","2:nogo_b","",""
"null","","html-keyboard-response","178","418368","0.0-4.0-1.46","","<img src=""img/purple-r.png"" border=""10"">","null","trial","null","","0.2,0.8","2:nogo_b","1",""
"null","","html-keyboard-response","179","419385","0.0-4.0-2.46","","<div style=""font-size:60px;"">+</div>","null","","","","","","",""
"null","","image-keyboard-response","180","420900","0.0-4.0-0.47","","img/red.png","null","trial","32","false","0.8,0.2","1:go_a","",""
"null","","html-keyboard-response","181","421917","0.0-4.0-1.47","","<img src=""img/red-n.png"">","null","trial","32","","0.8,0.2","1:go_a","0",""
"null","","html-keyboard-response","182","422934","0.0-4.0-2.47","","<div style=""font-size:60px;"">+</div>","null","","","","","","",""
"618.5","","image-keyboard-response","183","423554","0.0-4.0-0.48","","img/red.png","32","trial","32","true","0.8,0.2","1:go_a","",""
"null","","html-keyboard-response","184","424567","0.0-4.0-1.48","","<img src=""img/red-r.png"" border=""10"">","null","trial","32","","0.8,0.2","1:go_a","1",""
"null","","html-keyboard-response","185","425584","0.0-4.0-2.48","","<div style=""font-size:60px;"">+</div>","null","","","","","","",""
"null","","image-keyboard-response","186","427086","0.0-4.0-0.49","","img/purple.png","null","trial","null","true","0.2,0.8","2:nogo_b","",""
"null","","html-keyboard-response","187","428100","0.0-4.0-1.49","","<img src=""img/purple-r.png"">","null","trial","null","","0.2,0.8","2:nogo_b","1",""
"null","","html-keyboard-response","188","429102","0.0-4.0-2.49","","<div style=""font-size:60px;"">+</div>","null","","","","","","",""
"null","","image-keyboard-response","189","430617","0.0-4.0-0.50","","img/red.png","null","trial","32","false","0.8,0.2","1:go_a","",""
"null","","html-keyboard-response","190","431628","0.0-4.0-1.50","","<img src=""img/red-n.png"">","null","trial","32","","0.8,0.2","1:go_a","0",""
"null","","html-keyboard-response","191","432634","0.0-4.0-2.50","","<div style=""font-size:60px;"">+</div>","null","","","","","","",""
"646.5","","image-keyboard-response","192","433282","0.0-4.0-0.51","","img/purple.png","32","trial","null","false","0.2,0.8","2:nogo_b","",""
"null","","html-keyboard-response","193","434300","0.0-4.0-1.51","","<img src=""img/purple-n.png"" border=""10"">","null","trial","null","","0.2,0.8","2:nogo_b","0",""
"null","","html-keyboard-response","194","435315","0.0-4.0-2.51","","<div style=""font-size:60px;"">+</div>","null","","","","","","",""
"547.6999999880791","","image-keyboard-response","195","435865","0.0-4.0-0.52","","img/red.png","32","trial","32","true","0.8,0.2","1:go_a","",""
"null","","html-keyboard-response","196","436881","0.0-4.0-1.52","","<img src=""img/red-r.png"" border=""10"">","null","trial","32","","0.8,0.2","1:go_a","1",""
"null","","html-keyboard-response","197","437898","0.0-4.0-2.52","","<div style=""font-size:60px;"">+</div>","null","","","","","","",""
"null","","image-keyboard-response","198","439414","0.0-4.0-0.53","","img/purple.png","null","trial","null","true","0.2,0.8","2:nogo_b","",""
"null","","html-keyboard-response","199","440431","0.0-4.0-1.53","","<img src=""img/purple-n.png"">","null","trial","null","","0.2,0.8","2:nogo_b","0",""
"null","","html-keyboard-response","200","441433","0.0-4.0-2.53","","<div style=""font-size:60px;"">+</div>","null","","","","","","",""
"null","","image-keyboard-response","201","442950","0.0-4.0-0.54","","img/red.png","null","trial","32","false","0.8,0.2","1:go_a","",""
"null","","html-keyboard-response","202","443965","0.0-4.0-1.54","","<img src=""img/red-n.png"">","null","trial","32","","0.8,0.2","1:go_a","0",""
"null","","html-keyboard-response","203","444981","0.0-4.0-2.54","","<div style=""font-size:60px;"">+</div>","null","","","","","","",""
"714.8000000119209","","image-keyboard-response","204","445697","0.0-4.0-0.55","","img/purple.png","32","trial","null","false","0.2,0.8","2:nogo_b","",""
"null","","html-keyboard-response","205","446715","0.0-4.0-1.55","","<img src=""img/purple-n.png"" border=""10"">","null","trial","null","","0.2,0.8","2:nogo_b","0",""
"null","","html-keyboard-response","206","447730","0.0-4.0-2.55","","<div style=""font-size:60px;"">+</div>","null","","","","","","",""
"291.19999998807907","","image-keyboard-response","207","448023","0.0-4.0-0.56","","img/red.png","32","trial","32","true","0.8,0.2","1:go_a","",""
"null","","html-keyboard-response","208","449032","0.0-4.0-1.56","","<img src=""img/red-r.png"" border=""10"">","null","trial","32","","0.8,0.2","1:go_a","1",""
"null","","html-keyboard-response","209","450048","0.0-4.0-2.56","","<div style=""font-size:60px;"">+</div>","null","","","","","","",""
"934.0999999642372","","image-keyboard-response","210","450984","0.0-4.0-0.57","","img/purple.png","32","trial","null","false","0.2,0.8","2:nogo_b","",""
"null","","html-keyboard-response","211","451997","0.0-4.0-1.57","","<img src=""img/purple-n.png"" border=""10"">","null","trial","null","","0.2,0.8","2:nogo_b","0",""
"null","","html-keyboard-response","212","453015","0.0-4.0-2.57","","<div style=""font-size:60px;"">+</div>","null","","","","","","",""
"982.6999999880791","","image-keyboard-response","213","454000","0.0-4.0-0.58","","img/red.png","32","trial","32","true","0.8,0.2","1:go_a","",""
"null","","html-keyboard-response","214","455014","0.0-4.0-1.58","","<img src=""img/red-r.png"" border=""10"">","null","trial","32","","0.8,0.2","1:go_a","1",""
"null","","html-keyboard-response","215","456030","0.0-4.0-2.58","","<div style=""font-size:60px;"">+</div>","null","","","","","","",""
"null","","image-keyboard-response","216","457546","0.0-4.0-0.59","","img/purple.png","null","trial","null","true","0.2,0.8","2:nogo_b","",""
"null","","html-keyboard-response","217","458563","0.0-4.0-1.59","","<img src=""img/purple-r.png"">","null","trial","null","","0.2,0.8","2:nogo_b","1",""
"null","","html-keyboard-response","218","459565","0.0-4.0-2.59","","<div style=""font-size:60px;"">+</div>","null","","","","","","",""
"3303.699999988079","","instructions","219","462870","0.0-5.0","[{""page_index"":0,""viewing_time"":3303.100000023842}]","","","","","","","","",""
"863.2000000476837","","image-keyboard-response","220","463736","0.0-6.0-0.0","","img/red.png","32","trial","null","false","0.2,0.8","4:nogo_d","",""
"null","","html-keyboard-response","221","464746","0.0-6.0-1.0","","<img src=""img/red-n.png"" border=""10"">","null","trial","null","","0.2,0.8","4:nogo_d","0",""
"null","","html-keyboard-response","222","465780","0.0-6.0-2.0","","<div style=""font-size:60px;"">+</div>","null","","","","","","",""
"990.6999999880791","","image-keyboard-response","223","466772","0.0-6.0-0.1","","img/pink.png","32","trial","32","true","0.8,0.2","3:go_c","",""
"null","","html-keyboard-response","224","467780","0.0-6.0-1.1","","<img src=""img/pink-r.png"" border=""10"">","null","trial","32","","0.8,0.2","3:go_c","1",""
"null","","html-keyboard-response","225","468795","0.0-6.0-2.1","","<div style=""font-size:60px;"">+</div>","null","","","","","","",""
"1196.5999999642372","","image-keyboard-response","226","469994","0.0-6.0-0.2","","img/purple.png","32","trial","null","false","0.2,0.8","2:nogo_b","",""
"null","","html-keyboard-response","227","470997","0.0-6.0-1.2","","<img src=""img/purple-n.png"" border=""10"">","null","trial","null","","0.2,0.8","2:nogo_b","0",""
"null","","html-keyboard-response","228","472024","0.0-6.0-2.2","","<div style=""font-size:60px;"">+</div>","null","","","","","","",""
"1396.2000000476837","","image-keyboard-response","229","473423","0.0-6.0-0.3","","img/blue.png","32","trial","32","true","0.8,0.2","1:go_a","",""
"null","","html-keyboard-response","230","474428","0.0-6.0-1.3","","<img src=""img/blue-r.png"" border=""10"">","null","trial","32","","0.8,0.2","1:go_a","1",""
"null","","html-keyboard-response","231","475431","0.0-6.0-2.3","","<div style=""font-size:60px;"">+</div>","null","","","","","","",""
"1117.699999988079","","image-keyboard-response","232","476550","0.0-6.0-0.4","","img/pink.png","32","trial","32","true","0.8,0.2","3:go_c","",""
"null","","html-keyboard-response","233","477561","0.0-6.0-1.4","","<img src=""img/pink-r.png"" border=""10"">","null","trial","32","","0.8,0.2","3:go_c","1",""
"null","","html-keyboard-response","234","478577","0.0-6.0-2.4","","<div style=""font-size:60px;"">+</div>","null","","","","","","",""
"null","","image-keyboard-response","235","480095","0.0-6.0-0.5","","img/purple.png","null","trial","null","true","0.2,0.8","2:nogo_b","",""
"null","","html-keyboard-response","236","481112","0.0-6.0-1.5","","<img src=""img/purple-r.png"">","null","trial","null","","0.2,0.8","2:nogo_b","1",""
"null","","html-keyboard-response","237","482128","0.0-6.0-2.5","","<div style=""font-size:60px;"">+</div>","null","","","","","","",""
"618.5","","image-keyboard-response","238","482748","0.0-6.0-0.6","","img/red.png","32","trial","null","false","0.2,0.8","4:nogo_d","",""
"null","","html-keyboard-response","239","483761","0.0-6.0-1.6","","<img src=""img/red-n.png"" border=""10"">","null","trial","null","","0.2,0.8","4:nogo_d","0",""
"null","","html-keyboard-response","240","484779","0.0-6.0-2.6","","<div style=""font-size:60px;"">+</div>","null","","","","","","",""
"1202.199999988079","","image-keyboard-response","241","485983","0.0-6.0-0.7","","img/blue.png","32","trial","32","true","0.8,0.2","1:go_a","",""
"null","","html-keyboard-response","242","486994","0.0-6.0-1.7","","<img src=""img/blue-r.png"" border=""10"">","null","trial","32","","0.8,0.2","1:go_a","1",""
"null","","html-keyboard-response","243","488011","0.0-6.0-2.7","","<div style=""font-size:60px;"">+</div>","null","","","","","","",""
"1036","","image-keyboard-response","244","489049","0.0-6.0-0.8","","img/blue.png","32","trial","32","true","0.8,0.2","1:go_a","",""
"null","","html-keyboard-response","245","490060","0.0-6.0-1.8","","<img src=""img/blue-r.png"" border=""10"">","null","trial","32","","0.8,0.2","1:go_a","1",""
"null","","html-keyboard-response","246","491075","0.0-6.0-2.8","","<div style=""font-size:60px;"">+</div>","null","","","","","","",""
"null","","image-keyboard-response","247","492591","0.0-6.0-0.9","","img/red.png","null","trial","null","true","0.2,0.8","4:nogo_d","",""
"null","","html-keyboard-response","248","493609","0.0-6.0-1.9","","<img src=""img/red-r.png"">","null","trial","null","","0.2,0.8","4:nogo_d","1",""
"null","","html-keyboard-response","249","494611","0.0-6.0-2.9","","<div style=""font-size:60px;"">+</div>","null","","","","","","",""
"null","","image-keyboard-response","250","496125","0.0-6.0-0.10","","img/purple.png","null","trial","null","true","0.2,0.8","2:nogo_b","",""
"null","","html-keyboard-response","251","497142","0.0-6.0-1.10","","<img src=""img/purple-r.png"">","null","trial","null","","0.2,0.8","2:nogo_b","1",""
"null","","html-keyboard-response","252","498158","0.0-6.0-2.10","","<div style=""font-size:60px;"">+</div>","null","","","","","","",""
"585","","image-keyboard-response","253","498746","0.0-6.0-0.11","","img/pink.png","32","trial","32","true","0.8,0.2","3:go_c","",""
"null","","html-keyboard-response","254","499769","0.0-6.0-1.11","","<img src=""img/pink-r.png"" border=""10"">","null","trial","32","","0.8,0.2","3:go_c","1",""
"null","","html-keyboard-response","255","500778","0.0-6.0-2.11","","<div style=""font-size:60px;"">+</div>","null","","","","","","",""
"906","","image-keyboard-response","256","501688","0.0-6.0-0.12","","img/blue.png","32","trial","32","true","0.8,0.2","1:go_a","",""
"null","","html-keyboard-response","257","502692","0.0-6.0-1.12","","<img src=""img/blue-r.png"" border=""10"">","null","trial","32","","0.8,0.2","1:go_a","1",""
"null","","html-keyboard-response","258","503708","0.0-6.0-2.12","","<div style=""font-size:60px;"">+</div>","null","","","","","","",""
"1117.6000000238419","","image-keyboard-response","259","504827","0.0-6.0-0.13","","img/red.png","32","trial","null","false","0.2,0.8","4:nogo_d","",""
"null","","html-keyboard-response","260","505841","0.0-6.0-1.13","","<img src=""img/red-r.png"" border=""10"">","null","trial","null","","0.2,0.8","4:nogo_d","1",""
"null","","html-keyboard-response","261","506846","0.0-6.0-2.13","","<div style=""font-size:60px;"">+</div>","null","","","","","","",""
"1264.7000000476837","","image-keyboard-response","262","508113","0.0-6.0-0.14","","img/purple.png","32","trial","null","false","0.2,0.8","2:nogo_b","",""
"null","","html-keyboard-response","263","509123","0.0-6.0-1.14","","<img src=""img/purple-n.png"" border=""10"">","null","trial","null","","0.2,0.8","2:nogo_b","0",""
"null","","html-keyboard-response","264","510127","0.0-6.0-2.14","","<div style=""font-size:60px;"">+</div>","null","","","","","","",""
"744.1999999880791","","image-keyboard-response","265","510873","0.0-6.0-0.15","","img/pink.png","32","trial","32","true","0.8,0.2","3:go_c","",""
"null","","html-keyboard-response","266","511889","0.0-6.0-1.15","","<img src=""img/pink-n.png"" border=""10"">","null","trial","32","","0.8,0.2","3:go_c","0",""
"null","","html-keyboard-response","267","512906","0.0-6.0-2.15","","<div style=""font-size:60px;"">+</div>","null","","","","","","",""
"834.8000000119209","","image-keyboard-response","268","513743","0.0-6.0-0.16","","img/pink.png","32","trial","32","true","0.8,0.2","3:go_c","",""
"null","","html-keyboard-response","269","514756","0.0-6.0-1.16","","<img src=""img/pink-r.png"" border=""10"">","null","trial","32","","0.8,0.2","3:go_c","1",""
"null","","html-keyboard-response","270","515774","0.0-6.0-2.16","","<div style=""font-size:60px;"">+</div>","null","","","","","","",""
"null","","image-keyboard-response","271","517289","0.0-6.0-0.17","","img/red.png","null","trial","null","true","0.2,0.8","4:nogo_d","",""
"null","","html-keyboard-response","272","518306","0.0-6.0-1.17","","<img src=""img/red-r.png"">","null","trial","null","","0.2,0.8","4:nogo_d","1",""
"null","","html-keyboard-response","273","519323","0.0-6.0-2.17","","<div style=""font-size:60px;"">+</div>","null","","","","","","",""
"726.5","","image-keyboard-response","274","520051","0.0-6.0-0.18","","img/purple.png","32","trial","null","false","0.2,0.8","2:nogo_b","",""
"null","","html-keyboard-response","275","521057","0.0-6.0-1.18","","<img src=""img/purple-n.png"" border=""10"">","null","trial","null","","0.2,0.8","2:nogo_b","0",""
"null","","html-keyboard-response","276","522067","0.0-6.0-2.18","","<div style=""font-size:60px;"">+</div>","null","","","","","","",""
"1033.699999988079","","image-keyboard-response","277","523104","0.0-6.0-0.19","","img/blue.png","32","trial","32","true","0.8,0.2","1:go_a","",""
"null","","html-keyboard-response","278","524107","0.0-6.0-1.19","","<img src=""img/blue-r.png"" border=""10"">","null","trial","32","","0.8,0.2","1:go_a","1",""
"null","","html-keyboard-response","279","525123","0.0-6.0-2.19","","<div style=""font-size:60px;"">+</div>","null","","","","","","",""
"1072.8999999761581","","image-keyboard-response","280","526198","0.0-6.0-0.20","","img/pink.png","32","trial","32","true","0.8,0.2","3:go_c","",""
"null","","html-keyboard-response","281","527206","0.0-6.0-1.20","","<img src=""img/pink-r.png"" border=""10"">","null","trial","32","","0.8,0.2","3:go_c","1",""
"null","","html-keyboard-response","282","528222","0.0-6.0-2.20","","<div style=""font-size:60px;"">+</div>","null","","","","","","",""
"null","","image-keyboard-response","283","529738","0.0-6.0-0.21","","img/blue.png","null","trial","32","false","0.8,0.2","1:go_a","",""
"null","","html-keyboard-response","284","530755","0.0-6.0-1.21","","<img src=""img/blue-r.png"">","null","trial","32","","0.8,0.2","1:go_a","1",""
"null","","html-keyboard-response","285","531772","0.0-6.0-2.21","","<div style=""font-size:60px;"">+</div>","null","","","","","","",""
"null","","image-keyboard-response","286","533287","0.0-6.0-0.22","","img/red.png","null","trial","null","true","0.2,0.8","4:nogo_d","",""
"null","","html-keyboard-response","287","534305","0.0-6.0-1.22","","<img src=""img/red-r.png"">","null","trial","null","","0.2,0.8","4:nogo_d","1",""
"null","","html-keyboard-response","288","535321","0.0-6.0-2.22","","<div style=""font-size:60px;"">+</div>","null","","","","","","",""
"null","","image-keyboard-response","289","536837","0.0-6.0-0.23","","img/purple.png","null","trial","null","true","0.2,0.8","2:nogo_b","",""
"null","","html-keyboard-response","290","537854","0.0-6.0-1.23","","<img src=""img/purple-r.png"">","null","trial","null","","0.2,0.8","2:nogo_b","1",""
"null","","html-keyboard-response","291","538870","0.0-6.0-2.23","","<div style=""font-size:60px;"">+</div>","null","","","","","","",""
"825.3000000119209","","image-keyboard-response","292","539696","0.0-6.0-0.24","","img/pink.png","32","trial","32","true","0.8,0.2","3:go_c","",""
"null","","html-keyboard-response","293","540704","0.0-6.0-1.24","","<img src=""img/pink-r.png"" border=""10"">","null","trial","32","","0.8,0.2","3:go_c","1",""
"null","","html-keyboard-response","294","541721","0.0-6.0-2.24","","<div style=""font-size:60px;"">+</div>","null","","","","","","",""
"null","","image-keyboard-response","295","543236","0.0-6.0-0.25","","img/red.png","null","trial","null","true","0.2,0.8","4:nogo_d","",""
"null","","html-keyboard-response","296","544252","0.0-6.0-1.25","","<img src=""img/red-r.png"">","null","trial","null","","0.2,0.8","4:nogo_d","1",""
"null","","html-keyboard-response","297","545269","0.0-6.0-2.25","","<div style=""font-size:60px;"">+</div>","null","","","","","","",""
"531.3999999761581","","image-keyboard-response","298","545802","0.0-6.0-0.26","","img/blue.png","32","trial","32","true","0.8,0.2","1:go_a","",""
"null","","html-keyboard-response","299","546818","0.0-6.0-1.26","","<img src=""img/blue-r.png"" border=""10"">","null","trial","32","","0.8,0.2","1:go_a","1",""
"null","","html-keyboard-response","300","547820","0.0-6.0-2.26","","<div style=""font-size:60px;"">+</div>","null","","","","","","",""
"null","","image-keyboard-response","301","549335","0.0-6.0-0.27","","img/purple.png","null","trial","null","true","0.2,0.8","2:nogo_b","",""
"null","","html-keyboard-response","302","550352","0.0-6.0-1.27","","<img src=""img/purple-r.png"">","null","trial","null","","0.2,0.8","2:nogo_b","1",""
"null","","html-keyboard-response","303","551369","0.0-6.0-2.27","","<div style=""font-size:60px;"">+</div>","null","","","","","","",""
"517.6999999880791","","image-keyboard-response","304","551888","0.0-6.0-0.28","","img/purple.png","32","trial","null","false","0.2,0.8","2:nogo_b","",""
"null","","html-keyboard-response","305","552902","0.0-6.0-1.28","","<img src=""img/purple-n.png"" border=""10"">","null","trial","null","","0.2,0.8","2:nogo_b","0",""
"null","","html-keyboard-response","306","553916","0.0-6.0-2.28","","<div style=""font-size:60px;"">+</div>","null","","","","","","",""
"359.69999998807907","","image-keyboard-response","307","554278","0.0-6.0-0.29","","img/red.png","32","trial","null","false","0.2,0.8","4:nogo_d","",""
"null","","html-keyboard-response","308","555286","0.0-6.0-1.29","","<img src=""img/red-n.png"" border=""10"">","null","trial","null","","0.2,0.8","4:nogo_d","0",""
"null","","html-keyboard-response","309","556300","0.0-6.0-2.29","","<div style=""font-size:60px;"">+</div>","null","","","","","","",""
"308","","image-keyboard-response","310","556610","0.0-6.0-0.30","","img/blue.png","32","trial","32","true","0.8,0.2","1:go_a","",""
"null","","html-keyboard-response","311","557619","0.0-6.0-1.30","","<img src=""img/blue-n.png"" border=""10"">","null","trial","32","","0.8,0.2","1:go_a","0",""
"null","","html-keyboard-response","312","558635","0.0-6.0-2.30","","<div style=""font-size:60px;"">+</div>","null","","","","","","",""
"315.39999997615814","","image-keyboard-response","313","558952","0.0-6.0-0.31","","img/pink.png","32","trial","32","true","0.8,0.2","3:go_c","",""
"null","","html-keyboard-response","314","559967","0.0-6.0-1.31","","<img src=""img/pink-r.png"" border=""10"">","null","trial","32","","0.8,0.2","3:go_c","1",""
"null","","html-keyboard-response","315","560983","0.0-6.0-2.31","","<div style=""font-size:60px;"">+</div>","null","","","","","","",""
"722.1999999880791","","image-keyboard-response","316","561707","0.0-6.0-0.32","","img/blue.png","32","trial","32","true","0.8,0.2","1:go_a","",""
"null","","html-keyboard-response","317","562716","0.0-6.0-1.32","","<img src=""img/blue-n.png"" border=""10"">","null","trial","32","","0.8,0.2","1:go_a","0",""
"null","","html-keyboard-response","318","563718","0.0-6.0-2.32","","<div style=""font-size:60px;"">+</div>","null","","","","","","",""
"null","","image-keyboard-response","319","565234","0.0-6.0-0.33","","img/red.png","null","trial","null","true","0.2,0.8","4:nogo_d","",""
"null","","html-keyboard-response","320","566249","0.0-6.0-1.33","","<img src=""img/red-n.png"">","null","trial","null","","0.2,0.8","4:nogo_d","0",""
"null","","html-keyboard-response","321","567252","0.0-6.0-2.33","","<div style=""font-size:60px;"">+</div>","null","","","","","","",""
"588.8000000119209","","image-keyboard-response","322","567842","0.0-6.0-0.34","","img/pink.png","32","trial","32","true","0.8,0.2","3:go_c","",""
"null","","html-keyboard-response","323","568851","0.0-6.0-1.34","","<img src=""img/pink-n.png"" border=""10"">","null","trial","32","","0.8,0.2","3:go_c","0",""
"null","","html-keyboard-response","324","569866","0.0-6.0-2.34","","<div style=""font-size:60px;"">+</div>","null","","","","","","",""
"996.6000000238419","","image-keyboard-response","325","570864","0.0-6.0-0.35","","img/purple.png","32","trial","null","false","0.2,0.8","2:nogo_b","",""
"null","","html-keyboard-response","326","571881","0.0-6.0-1.35","","<img src=""img/purple-n.png"" border=""10"">","null","trial","null","","0.2,0.8","2:nogo_b","0",""
"null","","html-keyboard-response","327","572899","0.0-6.0-2.35","","<div style=""font-size:60px;"">+</div>","null","","","","","","",""
"null","","image-keyboard-response","328","574415","0.0-6.0-0.36","","img/pink.png","null","trial","32","false","0.8,0.2","3:go_c","",""
"null","","html-keyboard-response","329","575431","0.0-6.0-1.36","","<img src=""img/pink-n.png"">","null","trial","32","","0.8,0.2","3:go_c","0",""
"null","","html-keyboard-response","330","576449","0.0-6.0-2.36","","<div style=""font-size:60px;"">+</div>","null","","","","","","",""
"587.3999999761581","","image-keyboard-response","331","577038","0.0-6.0-0.37","","img/purple.png","32","trial","null","false","0.2,0.8","2:nogo_b","",""
"null","","html-keyboard-response","332","578050","0.0-6.0-1.37","","<img src=""img/purple-r.png"" border=""10"">","null","trial","null","","0.2,0.8","2:nogo_b","1",""
"null","","html-keyboard-response","333","579065","0.0-6.0-2.37","","<div style=""font-size:60px;"">+</div>","null","","","","","","",""
"829.6000000238419","","image-keyboard-response","334","579896","0.0-6.0-0.38","","img/blue.png","32","trial","32","true","0.8,0.2","1:go_a","",""
"null","","html-keyboard-response","335","580915","0.0-6.0-1.38","","<img src=""img/blue-n.png"" border=""10"">","null","trial","32","","0.8,0.2","1:go_a","0",""
"null","","html-keyboard-response","336","581926","0.0-6.0-2.38","","<div style=""font-size:60px;"">+</div>","null","","","","","","",""
"809.6999999880791","","image-keyboard-response","337","582732","0.0-6.0-0.39","","img/red.png","32","trial","null","false","0.2,0.8","4:nogo_d","",""
"null","","html-keyboard-response","338","583744","0.0-6.0-1.39","","<img src=""img/red-n.png"" border=""10"">","null","trial","null","","0.2,0.8","4:nogo_d","0",""
"null","","html-keyboard-response","339","584760","0.0-6.0-2.39","","<div style=""font-size:60px;"">+</div>","null","","","","","","",""
"879.6999999880791","","image-keyboard-response","340","585642","0.0-6.0-0.40","","img/pink.png","32","trial","32","true","0.8,0.2","3:go_c","",""
"null","","html-keyboard-response","341","586660","0.0-6.0-1.40","","<img src=""img/pink-r.png"" border=""10"">","null","trial","32","","0.8,0.2","3:go_c","1",""
"null","","html-keyboard-response","342","587679","0.0-6.0-2.40","","<div style=""font-size:60px;"">+</div>","null","","","","","","",""
"null","","image-keyboard-response","343","589192","0.0-6.0-0.41","","img/red.png","null","trial","null","true","0.2,0.8","4:nogo_d","",""
"null","","html-keyboard-response","344","590208","0.0-6.0-1.41","","<img src=""img/red-r.png"">","null","trial","null","","0.2,0.8","4:nogo_d","1",""
"null","","html-keyboard-response","345","591226","0.0-6.0-2.41","","<div style=""font-size:60px;"">+</div>","null","","","","","","",""
"783.3999999761581","","image-keyboard-response","346","592010","0.0-6.0-0.42","","img/blue.png","32","trial","32","true","0.8,0.2","1:go_a","",""
"null","","html-keyboard-response","347","593025","0.0-6.0-1.42","","<img src=""img/blue-r.png"" border=""10"">","null","trial","32","","0.8,0.2","1:go_a","1",""
"null","","html-keyboard-response","348","594042","0.0-6.0-2.42","","<div style=""font-size:60px;"">+</div>","null","","","","","","",""
"1181.1000000238419","","image-keyboard-response","349","595226","0.0-6.0-0.43","","img/purple.png","32","trial","null","false","0.2,0.8","2:nogo_b","",""
"null","","html-keyboard-response","350","596241","0.0-6.0-1.43","","<img src=""img/purple-n.png"" border=""10"">","null","trial","null","","0.2,0.8","2:nogo_b","0",""
"null","","html-keyboard-response","351","597257","0.0-6.0-2.43","","<div style=""font-size:60px;"">+</div>","null","","","","","","",""
"1184.199999988079","","image-keyboard-response","352","598443","0.0-6.0-0.44","","img/red.png","32","trial","null","false","0.2,0.8","4:nogo_d","",""
"null","","html-keyboard-response","353","599457","0.0-6.0-1.44","","<img src=""img/red-n.png"" border=""10"">","null","trial","null","","0.2,0.8","4:nogo_d","0",""
"null","","html-keyboard-response","354","600475","0.0-6.0-2.44","","<div style=""font-size:60px;"">+</div>","null","","","","","","",""
"1125","","image-keyboard-response","355","601602","0.0-6.0-0.45","","img/purple.png","32","trial","null","false","0.2,0.8","2:nogo_b","",""
"null","","html-keyboard-response","356","602608","0.0-6.0-1.45","","<img src=""img/purple-n.png"" border=""10"">","null","trial","null","","0.2,0.8","2:nogo_b","0",""
"null","","html-keyboard-response","357","603624","0.0-6.0-2.45","","<div style=""font-size:60px;"">+</div>","null","","","","","","",""
"513.1000000238419","","image-keyboard-response","358","604139","0.0-6.0-0.46","","img/pink.png","32","trial","32","true","0.8,0.2","3:go_c","",""
"null","","html-keyboard-response","359","605156","0.0-6.0-1.46","","<img src=""img/pink-r.png"" border=""10"">","null","trial","32","","0.8,0.2","3:go_c","1",""
"null","","html-keyboard-response","360","606174","0.0-6.0-2.46","","<div style=""font-size:60px;"">+</div>","null","","","","","","",""
"null","","image-keyboard-response","361","607689","0.0-6.0-0.47","","img/blue.png","null","trial","32","false","0.8,0.2","1:go_a","",""
"null","","html-keyboard-response","362","608707","0.0-6.0-1.47","","<img src=""img/blue-n.png"">","null","trial","32","","0.8,0.2","1:go_a","0",""
"null","","html-keyboard-response","363","609724","0.0-6.0-2.47","","<div style=""font-size:60px;"">+</div>","null","","","","","","",""
"893.6999999880791","","image-keyboard-response","364","610622","0.0-6.0-0.48","","img/blue.png","32","trial","32","true","0.8,0.2","1:go_a","",""
"null","","html-keyboard-response","365","611632","0.0-6.0-1.48","","<img src=""img/blue-r.png"" border=""10"">","null","trial","32","","0.8,0.2","1:go_a","1",""
"null","","html-keyboard-response","366","612641","0.0-6.0-2.48","","<div style=""font-size:60px;"">+</div>","null","","","","","","",""
"null","","image-keyboard-response","367","614157","0.0-6.0-0.49","","img/red.png","null","trial","null","true","0.2,0.8","4:nogo_d","",""
"null","","html-keyboard-response","368","615171","0.0-6.0-1.49","","<img src=""img/red-r.png"">","null","trial","null","","0.2,0.8","4:nogo_d","1",""
"null","","html-keyboard-response","369","616175","0.0-6.0-2.49","","<div style=""font-size:60px;"">+</div>","null","","","","","","",""
"268.0999999642372","","image-keyboard-response","370","616444","0.0-6.0-0.50","","img/pink.png","32","trial","32","true","0.8,0.2","3:go_c","",""
"null","","html-keyboard-response","371","617455","0.0-6.0-1.50","","<img src=""img/pink-r.png"" border=""10"">","null","trial","32","","0.8,0.2","3:go_c","1",""
"null","","html-keyboard-response","372","618471","0.0-6.0-2.50","","<div style=""font-size:60px;"">+</div>","null","","","","","","",""
"null","","image-keyboard-response","373","619988","0.0-6.0-0.51","","img/purple.png","null","trial","null","true","0.2,0.8","2:nogo_b","",""
"null","","html-keyboard-response","374","621004","0.0-6.0-1.51","","<img src=""img/purple-n.png"">","null","trial","null","","0.2,0.8","2:nogo_b","0",""
"null","","html-keyboard-response","375","622022","0.0-6.0-2.51","","<div style=""font-size:60px;"">+</div>","null","","","","","","",""
"820.3999999761581","","image-keyboard-response","376","622844","0.0-6.0-0.52","","img/purple.png","32","trial","null","false","0.2,0.8","2:nogo_b","",""
"null","","html-keyboard-response","377","623853","0.0-6.0-1.52","","<img src=""img/purple-n.png"" border=""10"">","null","trial","null","","0.2,0.8","2:nogo_b","0",""
"null","","html-keyboard-response","378","624871","0.0-6.0-2.52","","<div style=""font-size:60px;"">+</div>","null","","","","","","",""
"988.5999999642372","","image-keyboard-response","379","625862","0.0-6.0-0.53","","img/pink.png","32","trial","32","true","0.8,0.2","3:go_c","",""
"null","","html-keyboard-response","380","626875","0.0-6.0-1.53","","<img src=""img/pink-r.png"" border=""10"">","null","trial","32","","0.8,0.2","3:go_c","1",""
"null","","html-keyboard-response","381","627888","0.0-6.0-2.53","","<div style=""font-size:60px;"">+</div>","null","","","","","","",""
"1230.199999988079","","image-keyboard-response","382","629120","0.0-6.0-0.54","","img/red.png","32","trial","null","false","0.2,0.8","4:nogo_d","",""
"null","","html-keyboard-response","383","630136","0.0-6.0-1.54","","<img src=""img/red-r.png"" border=""10"">","null","trial","null","","0.2,0.8","4:nogo_d","1",""
"null","","html-keyboard-response","384","631153","0.0-6.0-2.54","","<div style=""font-size:60px;"">+</div>","null","","","","","","",""
"null","","image-keyboard-response","385","632668","0.0-6.0-0.55","","img/blue.png","null","trial","32","false","0.8,0.2","1:go_a","",""
"null","","html-keyboard-response","386","633687","0.0-6.0-1.55","","<img src=""img/blue-r.png"">","null","trial","32","","0.8,0.2","1:go_a","1",""
"null","","html-keyboard-response","387","634716","0.0-6.0-2.55","","<div style=""font-size:60px;"">+</div>","null","","","","","","",""
"null","","image-keyboard-response","388","636222","0.0-6.0-0.56","","img/red.png","null","trial","null","true","0.2,0.8","4:nogo_d","",""
"null","","html-keyboard-response","389","637236","0.0-6.0-1.56","","<img src=""img/red-r.png"">","null","trial","null","","0.2,0.8","4:nogo_d","1",""
"null","","html-keyboard-response","390","638253","0.0-6.0-2.56","","<div style=""font-size:60px;"">+</div>","null","","","","","","",""
"1013.1000000238419","","image-keyboard-response","391","639268","0.0-6.0-0.57","","img/blue.png","32","trial","32","true","0.8,0.2","1:go_a","",""
"null","","html-keyboard-response","392","640285","0.0-6.0-1.57","","<img src=""img/blue-n.png"" border=""10"">","null","trial","32","","0.8,0.2","1:go_a","0",""
"null","","html-keyboard-response","393","641303","0.0-6.0-2.57","","<div style=""font-size:60px;"">+</div>","null","","","","","","",""
"1047.199999988079","","image-keyboard-response","394","642352","0.0-6.0-0.58","","img/pink.png","32","trial","32","true","0.8,0.2","3:go_c","",""
"null","","html-keyboard-response","395","643373","0.0-6.0-1.58","","<img src=""img/pink-r.png"" border=""10"">","null","trial","32","","0.8,0.2","3:go_c","1",""
"null","","html-keyboard-response","396","644389","0.0-6.0-2.58","","<div style=""font-size:60px;"">+</div>","null","","","","","","",""
"1234.5","","image-keyboard-response","397","645626","0.0-6.0-0.59","","img/purple.png","32","trial","null","false","0.2,0.8","2:nogo_b","",""
"null","","html-keyboard-response","398","646638","0.0-6.0-1.59","","<img src=""img/purple-r.png"" border=""10"">","null","trial","null","","0.2,0.8","2:nogo_b","1",""
"null","","html-keyboard-response","399","647656","0.0-6.0-2.59","","<div style=""font-size:60px;"">+</div>","null","","","","","","",""
"null","","image-keyboard-response","400","649171","0.0-6.0-0.60","","img/purple.png","null","trial","null","true","0.2,0.8","2:nogo_b","",""
"null","","html-keyboard-response","401","650189","0.0-6.0-1.60","","<img src=""img/purple-r.png"">","null","trial","null","","0.2,0.8","2:nogo_b","1",""
"null","","html-keyboard-response","402","651191","0.0-6.0-2.60","","<div style=""font-size:60px;"">+</div>","null","","","","","","",""
"null","","image-keyboard-response","403","652704","0.0-6.0-0.61","","img/red.png","null","trial","null","true","0.2,0.8","4:nogo_d","",""
"null","","html-keyboard-response","404","653721","0.0-6.0-1.61","","<img src=""img/red-r.png"">","null","trial","null","","0.2,0.8","4:nogo_d","1",""
"null","","html-keyboard-response","405","654738","0.0-6.0-2.61","","<div style=""font-size:60px;"">+</div>","null","","","","","","",""
"843.3999999761581","","image-keyboard-response","406","655584","0.0-6.0-0.62","","img/blue.png","32","trial","32","true","0.8,0.2","1:go_a","",""
"null","","html-keyboard-response","407","656589","0.0-6.0-1.62","","<img src=""img/blue-n.png"" border=""10"">","null","trial","32","","0.8,0.2","1:go_a","0",""
"null","","html-keyboard-response","408","657604","0.0-6.0-2.62","","<div style=""font-size:60px;"">+</div>","null","","","","","","",""
"775.6000000238419","","image-keyboard-response","409","658381","0.0-6.0-0.63","","img/pink.png","32","trial","32","true","0.8,0.2","3:go_c","",""
"null","","html-keyboard-response","410","659389","0.0-6.0-1.63","","<img src=""img/pink-r.png"" border=""10"">","null","trial","32","","0.8,0.2","3:go_c","1",""
"null","","html-keyboard-response","411","660405","0.0-6.0-2.63","","<div style=""font-size:60px;"">+</div>","null","","","","","","",""
"844.9000000357628","","image-keyboard-response","412","661252","0.0-6.0-0.64","","img/blue.png","32","trial","32","true","0.8,0.2","1:go_a","",""
"null","","html-keyboard-response","413","662271","0.0-6.0-1.64","","<img src=""img/blue-r.png"" border=""10"">","null","trial","32","","0.8,0.2","1:go_a","1",""
"null","","html-keyboard-response","414","663288","0.0-6.0-2.64","","<div style=""font-size:60px;"">+</div>","null","","","","","","",""
"1366.699999988079","","image-keyboard-response","415","664657","0.0-6.0-0.65","","img/pink.png","32","trial","32","true","0.8,0.2","3:go_c","",""
"null","","html-keyboard-response","416","665671","0.0-6.0-1.65","","<img src=""img/pink-r.png"" border=""10"">","null","trial","32","","0.8,0.2","3:go_c","1",""
"null","","html-keyboard-response","417","666686","0.0-6.0-2.65","","<div style=""font-size:60px;"">+</div>","null","","","","","","",""
"null","","image-keyboard-response","418","668203","0.0-6.0-0.66","","img/purple.png","null","trial","null","true","0.2,0.8","2:nogo_b","",""
"null","","html-keyboard-response","419","669219","0.0-6.0-1.66","","<img src=""img/purple-r.png"">","null","trial","null","","0.2,0.8","2:nogo_b","1",""
"null","","html-keyboard-response","420","670237","0.0-6.0-2.66","","<div style=""font-size:60px;"">+</div>","null","","","","","","",""
"904.5","","image-keyboard-response","421","671143","0.0-6.0-0.67","","img/red.png","32","trial","null","false","0.2,0.8","4:nogo_d","",""
"null","","html-keyboard-response","422","672161","0.0-6.0-1.67","","<img src=""img/red-r.png"" border=""10"">","null","trial","null","","0.2,0.8","4:nogo_d","1",""
"null","","html-keyboard-response","423","673169","0.0-6.0-2.67","","<div style=""font-size:60px;"">+</div>","null","","","","","","",""
"null","","image-keyboard-response","424","674686","0.0-6.0-0.68","","img/purple.png","null","trial","null","true","0.2,0.8","2:nogo_b","",""
"null","","html-keyboard-response","425","675702","0.0-6.0-1.68","","<img src=""img/purple-r.png"">","null","trial","null","","0.2,0.8","2:nogo_b","1",""
"null","","html-keyboard-response","426","676718","0.0-6.0-2.68","","<div style=""font-size:60px;"">+</div>","null","","","","","","",""
"981.5","","image-keyboard-response","427","677702","0.0-6.0-0.69","","img/blue.png","32","trial","32","true","0.8,0.2","1:go_a","",""
"null","","html-keyboard-response","428","678717","0.0-6.0-1.69","","<img src=""img/blue-r.png"" border=""10"">","null","trial","32","","0.8,0.2","1:go_a","1",""
"null","","html-keyboard-response","429","679719","0.0-6.0-2.69","","<div style=""font-size:60px;"">+</div>","null","","","","","","",""
"null","","image-keyboard-response","430","681235","0.0-6.0-0.70","","img/red.png","null","trial","null","true","0.2,0.8","4:nogo_d","",""
"null","","html-keyboard-response","431","682251","0.0-6.0-1.70","","<img src=""img/red-r.png"">","null","trial","null","","0.2,0.8","4:nogo_d","1",""
"null","","html-keyboard-response","432","683267","0.0-6.0-2.70","","<div style=""font-size:60px;"">+</div>","null","","","","","","",""
"1072.199999988079","","image-keyboard-response","433","684341","0.0-6.0-0.71","","img/pink.png","32","trial","32","true","0.8,0.2","3:go_c","",""
"null","","html-keyboard-response","434","685351","0.0-6.0-1.71","","<img src=""img/pink-n.png"" border=""10"">","null","trial","32","","0.8,0.2","3:go_c","0",""
"null","","html-keyboard-response","435","686366","0.0-6.0-2.71","","<div style=""font-size:60px;"">+</div>","null","","","","","","",""
"832.1999999880791","","image-keyboard-response","436","687200","0.0-6.0-0.72","","img/blue.png","32","trial","32","true","0.8,0.2","1:go_a","",""
"null","","html-keyboard-response","437","688216","0.0-6.0-1.72","","<img src=""img/blue-n.png"" border=""10"">","null","trial","32","","0.8,0.2","1:go_a","0",""
"null","","html-keyboard-response","438","689219","0.0-6.0-2.72","","<div style=""font-size:60px;"">+</div>","null","","","","","","",""
"829.5","","image-keyboard-response","439","690051","0.0-6.0-0.73","","img/red.png","32","trial","null","false","0.2,0.8","4:nogo_d","",""
"null","","html-keyboard-response","440","691067","0.0-6.0-1.73","","<img src=""img/red-n.png"" border=""10"">","null","trial","null","","0.2,0.8","4:nogo_d","0",""
"null","","html-keyboard-response","441","692082","0.0-6.0-2.73","","<div style=""font-size:60px;"">+</div>","null","","","","","","",""
"null","","image-keyboard-response","442","693598","0.0-6.0-0.74","","img/pink.png","null","trial","32","false","0.8,0.2","3:go_c","",""
"null","","html-keyboard-response","443","694615","0.0-6.0-1.74","","<img src=""img/pink-n.png"">","null","trial","32","","0.8,0.2","3:go_c","0",""
"null","","html-keyboard-response","444","695633","0.0-6.0-2.74","","<div style=""font-size:60px;"">+</div>","null","","","","","","",""
"830.3999999761581","","image-keyboard-response","445","696465","0.0-6.0-0.75","","img/purple.png","32","trial","null","false","0.2,0.8","2:nogo_b","",""
"null","","html-keyboard-response","446","697481","0.0-6.0-1.75","","<img src=""img/purple-n.png"" border=""10"">","null","trial","null","","0.2,0.8","2:nogo_b","0",""
"null","","html-keyboard-response","447","698498","0.0-6.0-2.75","","<div style=""font-size:60px;"">+</div>","null","","","","","","",""
"null","","image-keyboard-response","448","700016","0.0-6.0-0.76","","img/purple.png","null","trial","null","true","0.2,0.8","2:nogo_b","",""
"null","","html-keyboard-response","449","701032","0.0-6.0-1.76","","<img src=""img/purple-r.png"">","null","trial","null","","0.2,0.8","2:nogo_b","1",""
"null","","html-keyboard-response","450","702045","0.0-6.0-2.76","","<div style=""font-size:60px;"">+</div>","null","","","","","","",""
"800.0999999642372","","image-keyboard-response","451","702847","0.0-6.0-0.77","","img/pink.png","32","trial","32","true","0.8,0.2","3:go_c","",""
"null","","html-keyboard-response","452","703864","0.0-6.0-1.77","","<img src=""img/pink-r.png"" border=""10"">","null","trial","32","","0.8,0.2","3:go_c","1",""
"null","","html-keyboard-response","453","704881","0.0-6.0-2.77","","<div style=""font-size:60px;"">+</div>","null","","","","","","",""
"830.8000000119209","","image-keyboard-response","454","705714","0.0-6.0-0.78","","img/red.png","32","trial","null","false","0.2,0.8","4:nogo_d","",""
"null","","html-keyboard-response","455","706729","0.0-6.0-1.78","","<img src=""img/red-n.png"" border=""10"">","null","trial","null","","0.2,0.8","4:nogo_d","0",""
"null","","html-keyboard-response","456","707732","0.0-6.0-2.78","","<div style=""font-size:60px;"">+</div>","null","","","","","","",""
"887.6000000238419","","image-keyboard-response","457","708621","0.0-6.0-0.79","","img/blue.png","32","trial","32","true","0.8,0.2","1:go_a","",""
"null","","html-keyboard-response","458","709629","0.0-6.0-1.79","","<img src=""img/blue-r.png"" border=""10"">","null","trial","32","","0.8,0.2","1:go_a","1",""
"null","","html-keyboard-response","459","710645","0.0-6.0-2.79","","<div style=""font-size:60px;"">+</div>","null","","","","","","",""
"784.4000000357628","","image-keyboard-response","460","711432","0.0-6.0-0.80","","img/pink.png","32","trial","32","true","0.8,0.2","3:go_c","",""
"null","","html-keyboard-response","461","712447","0.0-6.0-1.80","","<img src=""img/pink-r.png"" border=""10"">","null","trial","32","","0.8,0.2","3:go_c","1",""
"null","","html-keyboard-response","462","713464","0.0-6.0-2.80","","<div style=""font-size:60px;"">+</div>","null","","","","","","",""
"921.5999999642372","","image-keyboard-response","463","714387","0.0-6.0-0.81","","img/blue.png","32","trial","32","true","0.8,0.2","1:go_a","",""
"null","","html-keyboard-response","464","715396","0.0-6.0-1.81","","<img src=""img/blue-n.png"" border=""10"">","null","trial","32","","0.8,0.2","1:go_a","0",""
"null","","html-keyboard-response","465","716398","0.0-6.0-2.81","","<div style=""font-size:60px;"">+</div>","null","","","","","","",""
"1293.5","","image-keyboard-response","466","717693","0.0-6.0-0.82","","img/purple.png","32","trial","null","false","0.2,0.8","2:nogo_b","",""
"null","","html-keyboard-response","467","718711","0.0-6.0-1.82","","<img src=""img/purple-n.png"" border=""10"">","null","trial","null","","0.2,0.8","2:nogo_b","0",""
"null","","html-keyboard-response","468","719714","0.0-6.0-2.82","","<div style=""font-size:60px;"">+</div>","null","","","","","","",""
"1261.3999999761581","","image-keyboard-response","469","720977","0.0-6.0-0.83","","img/red.png","32","trial","null","false","0.2,0.8","4:nogo_d","",""
"null","","html-keyboard-response","470","721994","0.0-6.0-1.83","","<img src=""img/red-n.png"" border=""10"">","null","trial","null","","0.2,0.8","4:nogo_d","0",""
"null","","html-keyboard-response","471","723011","0.0-6.0-2.83","","<div style=""font-size:60px;"">+</div>","null","","","","","","",""
"null","","image-keyboard-response","472","724529","0.0-6.0-0.84","","img/pink.png","null","trial","32","false","0.8,0.2","3:go_c","",""
"null","","html-keyboard-response","473","725544","0.0-6.0-1.84","","<img src=""img/pink-n.png"">","null","trial","32","","0.8,0.2","3:go_c","0",""
"null","","html-keyboard-response","474","726561","0.0-6.0-2.84","","<div style=""font-size:60px;"">+</div>","null","","","","","","",""
"613","","image-keyboard-response","475","727175","0.0-6.0-0.85","","img/blue.png","32","trial","32","true","0.8,0.2","1:go_a","",""
"null","","html-keyboard-response","476","728194","0.0-6.0-1.85","","<img src=""img/blue-r.png"" border=""10"">","null","trial","32","","0.8,0.2","1:go_a","1",""
"null","","html-keyboard-response","477","729211","0.0-6.0-2.85","","<div style=""font-size:60px;"">+</div>","null","","","","","","",""
"1051","","image-keyboard-response","478","730264","0.0-6.0-0.86","","img/purple.png","32","trial","null","false","0.2,0.8","2:nogo_b","",""
"null","","html-keyboard-response","479","731277","0.0-6.0-1.86","","<img src=""img/purple-n.png"" border=""10"">","null","trial","null","","0.2,0.8","2:nogo_b","0",""
"null","","html-keyboard-response","480","732285","0.0-6.0-2.86","","<div style=""font-size:60px;"">+</div>","null","","","","","","",""
"1072","","image-keyboard-response","481","733359","0.0-6.0-0.87","","img/red.png","32","trial","null","false","0.2,0.8","4:nogo_d","",""
"null","","html-keyboard-response","482","734376","0.0-6.0-1.87","","<img src=""img/red-r.png"" border=""10"">","null","trial","null","","0.2,0.8","4:nogo_d","1",""
"null","","html-keyboard-response","483","735392","0.0-6.0-2.87","","<div style=""font-size:60px;"">+</div>","null","","","","","","",""
"534.6000000238419","","image-keyboard-response","484","735928","0.0-6.0-0.88","","img/pink.png","32","trial","32","true","0.8,0.2","3:go_c","",""
"null","","html-keyboard-response","485","736942","0.0-6.0-1.88","","<img src=""img/pink-r.png"" border=""10"">","null","trial","32","","0.8,0.2","3:go_c","1",""
"null","","html-keyboard-response","486","737959","0.0-6.0-2.88","","<div style=""font-size:60px;"">+</div>","null","","","","","","",""
"null","","image-keyboard-response","487","739475","0.0-6.0-0.89","","img/red.png","null","trial","null","true","0.2,0.8","4:nogo_d","",""
"null","","html-keyboard-response","488","740492","0.0-6.0-1.89","","<img src=""img/red-r.png"">","null","trial","null","","0.2,0.8","4:nogo_d","1",""
"null","","html-keyboard-response","489","741508","0.0-6.0-2.89","","<div style=""font-size:60px;"">+</div>","null","","","","","","",""
"1028.800000011921","","image-keyboard-response","490","742539","0.0-6.0-0.90","","img/purple.png","32","trial","null","false","0.2,0.8","2:nogo_b","",""
"null","","html-keyboard-response","491","743545","0.0-6.0-1.90","","<img src=""img/purple-r.png"" border=""10"">","null","trial","null","","0.2,0.8","2:nogo_b","1",""
"null","","html-keyboard-response","492","744561","0.0-6.0-2.90","","<div style=""font-size:60px;"">+</div>","null","","","","","","",""
"1044.6000000238419","","image-keyboard-response","493","745607","0.0-6.0-0.91","","img/blue.png","32","trial","32","true","0.8,0.2","1:go_a","",""
"null","","html-keyboard-response","494","746612","0.0-6.0-1.91","","<img src=""img/blue-r.png"" border=""10"">","null","trial","32","","0.8,0.2","1:go_a","1",""
"null","","html-keyboard-response","495","747628","0.0-6.0-2.91","","<div style=""font-size:60px;"">+</div>","null","","","","","","",""
"null","","image-keyboard-response","496","749142","0.0-6.0-0.92","","img/red.png","null","trial","null","true","0.2,0.8","4:nogo_d","",""
"null","","html-keyboard-response","497","750159","0.0-6.0-1.92","","<img src=""img/red-r.png"">","null","trial","null","","0.2,0.8","4:nogo_d","1",""
"null","","html-keyboard-response","498","751175","0.0-6.0-2.92","","<div style=""font-size:60px;"">+</div>","null","","","","","","",""
"956.6999999880791","","image-keyboard-response","499","752133","0.0-6.0-0.93","","img/blue.png","32","trial","32","true","0.8,0.2","1:go_a","",""
"null","","html-keyboard-response","500","753142","0.0-6.0-1.93","","<img src=""img/blue-r.png"" border=""10"">","null","trial","32","","0.8,0.2","1:go_a","1",""
"null","","html-keyboard-response","501","754159","0.0-6.0-2.93","","<div style=""font-size:60px;"">+</div>","null","","","","","","",""
"1022","","image-keyboard-response","502","755183","0.0-6.0-0.94","","img/pink.png","32","trial","32","true","0.8,0.2","3:go_c","",""
"null","","html-keyboard-response","503","756192","0.0-6.0-1.94","","<img src=""img/pink-r.png"" border=""10"">","null","trial","32","","0.8,0.2","3:go_c","1",""
"null","","html-keyboard-response","504","757207","0.0-6.0-2.94","","<div style=""font-size:60px;"">+</div>","null","","","","","","",""
"1346.800000011921","","image-keyboard-response","505","758556","0.0-6.0-0.95","","img/purple.png","32","trial","null","false","0.2,0.8","2:nogo_b","",""
"null","","html-keyboard-response","506","759574","0.0-6.0-1.95","","<img src=""img/purple-r.png"" border=""10"">","null","trial","null","","0.2,0.8","2:nogo_b","1",""
"null","","html-keyboard-response","507","760589","0.0-6.0-2.95","","<div style=""font-size:60px;"">+</div>","null","","","","","","",""
"null","","image-keyboard-response","508","762102","0.0-6.0-0.96","","img/red.png","null","trial","null","true","0.2,0.8","4:nogo_d","",""
"null","","html-keyboard-response","509","763109","0.0-6.0-1.96","","<img src=""img/red-r.png"">","null","trial","null","","0.2,0.8","4:nogo_d","1",""
"null","","html-keyboard-response","510","764124","0.0-6.0-2.96","","<div style=""font-size:60px;"">+</div>","null","","","","","","",""
"443.5999999642372","","image-keyboard-response","511","764569","0.0-6.0-0.97","","img/purple.png","32","trial","null","false","0.2,0.8","2:nogo_b","",""
"null","","html-keyboard-response","512","765590","0.0-6.0-1.97","","<img src=""img/purple-n.png"" border=""10"">","null","trial","null","","0.2,0.8","2:nogo_b","0",""
"null","","html-keyboard-response","513","766607","0.0-6.0-2.97","","<div style=""font-size:60px;"">+</div>","null","","","","","","",""
"783.8000000119209","","image-keyboard-response","514","767392","0.0-6.0-0.98","","img/pink.png","32","trial","32","true","0.8,0.2","3:go_c","",""
"null","","html-keyboard-response","515","768406","0.0-6.0-1.98","","<img src=""img/pink-r.png"" border=""10"">","null","trial","32","","0.8,0.2","3:go_c","1",""
"null","","html-keyboard-response","516","769423","0.0-6.0-2.98","","<div style=""font-size:60px;"">+</div>","null","","","","","","",""
"1026.699999988079","","image-keyboard-response","517","770452","0.0-6.0-0.99","","img/blue.png","32","trial","32","true","0.8,0.2","1:go_a","",""
"null","","html-keyboard-response","518","771461","0.0-6.0-1.99","","<img src=""img/blue-r.png"" border=""10"">","null","trial","32","","0.8,0.2","1:go_a","1",""
"null","","html-keyboard-response","519","772473","0.0-6.0-2.99","","<div style=""font-size:60px;"">+</div>","null","","","","","","",""
"980.8000000119209","","image-keyboard-response","520","773457","0.0-6.0-0.100","","img/red.png","32","trial","null","false","0.2,0.8","4:nogo_d","",""
"null","","html-keyboard-response","521","774473","0.0-6.0-1.100","","<img src=""img/red-n.png"" border=""10"">","null","trial","null","","0.2,0.8","4:nogo_d","0",""
"null","","html-keyboard-response","522","775488","0.0-6.0-2.100","","<div style=""font-size:60px;"">+</div>","null","","","","","","",""
"728.6999999880791","","image-keyboard-response","523","776218","0.0-6.0-0.101","","img/pink.png","32","trial","32","true","0.8,0.2","3:go_c","",""
"null","","html-keyboard-response","524","777222","0.0-6.0-1.101","","<img src=""img/pink-r.png"" border=""10"">","null","trial","32","","0.8,0.2","3:go_c","1",""
"null","","html-keyboard-response","525","778225","0.0-6.0-2.101","","<div style=""font-size:60px;"">+</div>","null","","","","","","",""
"771.1999999880791","","image-keyboard-response","526","778999","0.0-6.0-0.102","","img/blue.png","32","trial","32","true","0.8,0.2","1:go_a","",""
"null","","html-keyboard-response","527","780006","0.0-6.0-1.102","","<img src=""img/blue-r.png"" border=""10"">","null","trial","32","","0.8,0.2","1:go_a","1",""
"null","","html-keyboard-response","528","781021","0.0-6.0-2.102","","<div style=""font-size:60px;"">+</div>","null","","","","","","",""
"null","","image-keyboard-response","529","782537","0.0-6.0-0.103","","img/purple.png","null","trial","null","true","0.2,0.8","2:nogo_b","",""
"null","","html-keyboard-response","530","783556","0.0-6.0-1.103","","<img src=""img/purple-r.png"">","null","trial","null","","0.2,0.8","2:nogo_b","1",""
"null","","html-keyboard-response","531","784570","0.0-6.0-2.103","","<div style=""font-size:60px;"">+</div>","null","","","","","","",""
"854.5","","image-keyboard-response","532","785427","0.0-6.0-0.104","","img/pink.png","32","trial","32","true","0.8,0.2","3:go_c","",""
"null","","html-keyboard-response","533","786439","0.0-6.0-1.104","","<img src=""img/pink-r.png"" border=""10"">","null","trial","32","","0.8,0.2","3:go_c","1",""
"null","","html-keyboard-response","534","787454","0.0-6.0-2.104","","<div style=""font-size:60px;"">+</div>","null","","","","","","",""
"776.3999999761581","","image-keyboard-response","535","788232","0.0-6.0-0.105","","img/blue.png","32","trial","32","true","0.8,0.2","1:go_a","",""
"null","","html-keyboard-response","536","789239","0.0-6.0-1.105","","<img src=""img/blue-r.png"" border=""10"">","null","trial","32","","0.8,0.2","1:go_a","1",""
"null","","html-keyboard-response","537","790253","0.0-6.0-2.105","","<div style=""font-size:60px;"">+</div>","null","","","","","","",""
"null","","image-keyboard-response","538","791763","0.0-6.0-0.106","","img/red.png","null","trial","null","true","0.2,0.8","4:nogo_d","",""
"null","","html-keyboard-response","539","792770","0.0-6.0-1.106","","<img src=""img/red-r.png"">","null","trial","null","","0.2,0.8","4:nogo_d","1",""
"null","","html-keyboard-response","540","793787","0.0-6.0-2.106","","<div style=""font-size:60px;"">+</div>","null","","","","","","",""
"1000","","image-keyboard-response","541","794789","0.0-6.0-0.107","","img/purple.png","32","trial","null","false","0.2,0.8","2:nogo_b","",""
"null","","html-keyboard-response","542","795801","0.0-6.0-1.107","","<img src=""img/purple-n.png"" border=""10"">","null","trial","null","","0.2,0.8","2:nogo_b","0",""
"null","","html-keyboard-response","543","796819","0.0-6.0-2.107","","<div style=""font-size:60px;"">+</div>","null","","","","","","",""
"889.8000000119209","","image-keyboard-response","544","797711","0.0-6.0-0.108","","img/red.png","32","trial","null","false","0.2,0.8","4:nogo_d","",""
"null","","html-keyboard-response","545","798720","0.0-6.0-1.108","","<img src=""img/red-r.png"" border=""10"">","null","trial","null","","0.2,0.8","4:nogo_d","1",""
"null","","html-keyboard-response","546","799736","0.0-6.0-2.108","","<div style=""font-size:60px;"">+</div>","null","","","","","","",""
"965.5","","image-keyboard-response","547","800703","0.0-6.0-0.109","","img/purple.png","32","trial","null","false","0.2,0.8","2:nogo_b","",""
"null","","html-keyboard-response","548","801720","0.0-6.0-1.109","","<img src=""img/purple-n.png"" border=""10"">","null","trial","null","","0.2,0.8","2:nogo_b","0",""
"null","","html-keyboard-response","549","802734","0.0-6.0-2.109","","<div style=""font-size:60px;"">+</div>","null","","","","","","",""
"848","","image-keyboard-response","550","803585","0.0-6.0-0.110","","img/blue.png","32","trial","32","true","0.8,0.2","1:go_a","",""
"null","","html-keyboard-response","551","804602","0.0-6.0-1.110","","<img src=""img/blue-r.png"" border=""10"">","null","trial","32","","0.8,0.2","1:go_a","1",""
"null","","html-keyboard-response","552","805618","0.0-6.0-2.110","","<div style=""font-size:60px;"">+</div>","null","","","","","","",""
"734.8999999761581","","image-keyboard-response","553","806354","0.0-6.0-0.111","","img/pink.png","32","trial","32","true","0.8,0.2","3:go_c","",""
"null","","html-keyboard-response","554","807367","0.0-6.0-1.111","","<img src=""img/pink-r.png"" border=""10"">","null","trial","32","","0.8,0.2","3:go_c","1",""
"null","","html-keyboard-response","555","808384","0.0-6.0-2.111","","<div style=""font-size:60px;"">+</div>","null","","","","","","",""
"null","","image-keyboard-response","556","809899","0.0-6.0-0.112","","img/red.png","null","trial","null","true","0.2,0.8","4:nogo_d","",""
"null","","html-keyboard-response","557","810918","0.0-6.0-1.112","","<img src=""img/red-r.png"">","null","trial","null","","0.2,0.8","4:nogo_d","1",""
"null","","html-keyboard-response","558","811919","0.0-6.0-2.112","","<div style=""font-size:60px;"">+</div>","null","","","","","","",""
"1101.300000011921","","image-keyboard-response","559","813023","0.0-6.0-0.113","","img/pink.png","32","trial","32","true","0.8,0.2","3:go_c","",""
"null","","html-keyboard-response","560","814033","0.0-6.0-1.113","","<img src=""img/pink-r.png"" border=""10"">","null","trial","32","","0.8,0.2","3:go_c","1",""
"null","","html-keyboard-response","561","815050","0.0-6.0-2.113","","<div style=""font-size:60px;"">+</div>","null","","","","","","",""
"null","","image-keyboard-response","562","816566","0.0-6.0-0.114","","img/blue.png","null","trial","32","false","0.8,0.2","1:go_a","",""
"null","","html-keyboard-response","563","817582","0.0-6.0-1.114","","<img src=""img/blue-n.png"">","null","trial","32","","0.8,0.2","1:go_a","0",""
"null","","html-keyboard-response","564","818584","0.0-6.0-2.114","","<div style=""font-size:60px;"">+</div>","null","","","","","","",""
"698.5","","image-keyboard-response","565","819285","0.0-6.0-0.115","","img/purple.png","32","trial","null","false","0.2,0.8","2:nogo_b","",""
"null","","html-keyboard-response","566","820299","0.0-6.0-1.115","","<img src=""img/purple-n.png"" border=""10"">","null","trial","null","","0.2,0.8","2:nogo_b","0",""
"null","","html-keyboard-response","567","821315","0.0-6.0-2.115","","<div style=""font-size:60px;"">+</div>","null","","","","","","",""
"null","","image-keyboard-response","568","822832","0.0-6.0-0.116","","img/purple.png","null","trial","null","true","0.2,0.8","2:nogo_b","",""
"null","","html-keyboard-response","569","823850","0.0-6.0-1.116","","<img src=""img/purple-r.png"">","null","trial","null","","0.2,0.8","2:nogo_b","1",""
"null","","html-keyboard-response","570","824864","0.0-6.0-2.116","","<div style=""font-size:60px;"">+</div>","null","","","","","","",""
"955.7000000476837","","image-keyboard-response","571","825822","0.0-6.0-0.117","","img/blue.png","32","trial","32","true","0.8,0.2","1:go_a","",""
"null","","html-keyboard-response","572","826830","0.0-6.0-1.117","","<img src=""img/blue-r.png"" border=""10"">","null","trial","32","","0.8,0.2","1:go_a","1",""
"null","","html-keyboard-response","573","827847","0.0-6.0-2.117","","<div style=""font-size:60px;"">+</div>","null","","","","","","",""
"1189.5","","image-keyboard-response","574","829038","0.0-6.0-0.118","","img/red.png","32","trial","null","false","0.2,0.8","4:nogo_d","",""
"null","","html-keyboard-response","575","830049","0.0-6.0-1.118","","<img src=""img/red-n.png"" border=""10"">","null","trial","null","","0.2,0.8","4:nogo_d","0",""
"null","","html-keyboard-response","576","831063","0.0-6.0-2.118","","<div style=""font-size:60px;"">+</div>","null","","","","","","",""
"905.6999999880791","","image-keyboard-response","577","831971","0.0-6.0-0.119","","img/pink.png","32","trial","32","true","0.8,0.2","3:go_c","",""
"null","","html-keyboard-response","578","832981","0.0-6.0-1.119","","<img src=""img/pink-r.png"" border=""10"">","null","trial","32","","0.8,0.2","3:go_c","1",""
"null","","html-keyboard-response","579","833997","0.0-6.0-2.119","","<div style=""font-size:60px;"">+</div>","null","","","","","","",""
"2472.300000011921","","instructions","580","836470","0.0-7.0","[{""page_index"":0,""viewing_time"":2471.7000000476837}]","","","","","","","","",""
"979.3000000119209","","image-keyboard-response","581","837451","0.0-8.0-0.0","","img/purple.png","32","trial","null","false","0.4,0.6","4:nogo_d","",""
"null","","html-keyboard-response","582","838462","0.0-8.0-1.0","","<img src=""img/purple-n.png"" border=""10"">","null","trial","null","","0.4,0.6","4:nogo_d","0",""
"null","","html-keyboard-response","583","839480","0.0-8.0-2.0","","<div style=""font-size:60px;"">+</div>","null","","","","","","",""
"923.8000000119209","","image-keyboard-response","584","840406","0.0-8.0-0.1","","img/yellow.png","32","trial","null","false","0.4,0.6","2:nogo_b","",""
"null","","html-keyboard-response","585","841412","0.0-8.0-1.1","","<img src=""img/yellow-r.png"" border=""10"">","null","trial","null","","0.4,0.6","2:nogo_b","1",""
"null","","html-keyboard-response","586","842430","0.0-8.0-2.1","","<div style=""font-size:60px;"">+</div>","null","","","","","","",""
"967.6000000238419","","image-keyboard-response","587","843399","0.0-8.0-0.2","","img/pink.png","32","trial","32","true","0.6,0.4","3:go_c","",""
"null","","html-keyboard-response","588","844411","0.0-8.0-1.2","","<img src=""img/pink-n.png"" border=""10"">","null","trial","32","","0.6,0.4","3:go_c","0",""
"null","","html-keyboard-response","589","845414","0.0-8.0-2.2","","<div style=""font-size:60px;"">+</div>","null","","","","","","",""
"1165.8999999761581","","image-keyboard-response","590","846582","0.0-8.0-0.3","","img/red.png","32","trial","32","true","0.6,0.4","1:go_a","",""
"null","","html-keyboard-response","591","847596","0.0-8.0-1.3","","<img src=""img/red-n.png"" border=""10"">","null","trial","32","","0.6,0.4","1:go_a","0",""
"null","","html-keyboard-response","592","848611","0.0-8.0-2.3","","<div style=""font-size:60px;"">+</div>","null","","","","","","",""
"1111.699999988079","","image-keyboard-response","593","849725","0.0-8.0-0.4","","img/red.png","32","trial","32","true","0.6,0.4","1:go_a","",""
"null","","html-keyboard-response","594","850729","0.0-8.0-1.4","","<img src=""img/red-r.png"" border=""10"">","null","trial","32","","0.6,0.4","1:go_a","1",""
"null","","html-keyboard-response","595","851733","0.0-8.0-2.4","","<div style=""font-size:60px;"">+</div>","null","","","","","","",""
"null","","image-keyboard-response","596","853243","0.0-8.0-0.5","","img/purple.png","null","trial","null","true","0.4,0.6","4:nogo_d","",""
"null","","html-keyboard-response","597","854260","0.0-8.0-1.5","","<img src=""img/purple-r.png"">","null","trial","null","","0.4,0.6","4:nogo_d","1",""
"null","","html-keyboard-response","598","855278","0.0-8.0-2.5","","<div style=""font-size:60px;"">+</div>","null","","","","","","",""
"786.7000000476837","","image-keyboard-response","599","856066","0.0-8.0-0.6","","img/pink.png","32","trial","32","true","0.6,0.4","3:go_c","",""
"null","","html-keyboard-response","600","857077","0.0-8.0-1.6","","<img src=""img/pink-n.png"" border=""10"">","null","trial","32","","0.6,0.4","3:go_c","0",""
"null","","html-keyboard-response","601","858094","0.0-8.0-2.6","","<div style=""font-size:60px;"">+</div>","null","","","","","","",""
"470.9000000357628","","image-keyboard-response","602","858567","0.0-8.0-0.7","","img/yellow.png","32","trial","null","false","0.4,0.6","2:nogo_b","",""
"null","","html-keyboard-response","603","859578","0.0-8.0-1.7","","<img src=""img/yellow-n.png"" border=""10"">","null","trial","null","","0.4,0.6","2:nogo_b","0",""
"null","","html-keyboard-response","604","860593","0.0-8.0-2.7","","<div style=""font-size:60px;"">+</div>","null","","","","","","",""
"889","","image-keyboard-response","605","861484","0.0-8.0-0.8","","img/red.png","32","trial","32","true","0.6,0.4","1:go_a","",""
"null","","html-keyboard-response","606","862494","0.0-8.0-1.8","","<img src=""img/red-n.png"" border=""10"">","null","trial","32","","0.6,0.4","1:go_a","0",""
"null","","html-keyboard-response","607","863509","0.0-8.0-2.8","","<div style=""font-size:60px;"">+</div>","null","","","","","","",""
"830.2999999523163","","image-keyboard-response","608","864342","0.0-8.0-0.9","","img/yellow.png","32","trial","null","false","0.4,0.6","2:nogo_b","",""
"null","","html-keyboard-response","609","865362","0.0-8.0-1.9","","<img src=""img/yellow-n.png"" border=""10"">","null","trial","null","","0.4,0.6","2:nogo_b","0",""
"null","","html-keyboard-response","610","866365","0.0-8.0-2.9","","<div style=""font-size:60px;"">+</div>","null","","","","","","",""
"1051.699999988079","","image-keyboard-response","611","867417","0.0-8.0-0.10","","img/pink.png","32","trial","32","true","0.6,0.4","3:go_c","",""
"null","","html-keyboard-response","612","868439","0.0-8.0-1.10","","<img src=""img/pink-n.png"" border=""10"">","null","trial","32","","0.6,0.4","3:go_c","0",""
"null","","html-keyboard-response","613","869446","0.0-8.0-2.10","","<div style=""font-size:60px;"">+</div>","null","","","","","","",""
"null","","image-keyboard-response","614","870959","0.0-8.0-0.11","","img/purple.png","null","trial","null","true","0.4,0.6","4:nogo_d","",""
"null","","html-keyboard-response","615","871975","0.0-8.0-1.11","","<img src=""img/purple-n.png"">","null","trial","null","","0.4,0.6","4:nogo_d","0",""
"null","","html-keyboard-response","616","872977","0.0-8.0-2.11","","<div style=""font-size:60px;"">+</div>","null","","","","","","",""
"null","","image-keyboard-response","617","874491","0.0-8.0-0.12","","img/pink.png","null","trial","32","false","0.6,0.4","3:go_c","",""
"null","","html-keyboard-response","618","875508","0.0-8.0-1.12","","<img src=""img/pink-n.png"">","null","trial","32","","0.6,0.4","3:go_c","0",""
"null","","html-keyboard-response","619","876527","0.0-8.0-2.12","","<div style=""font-size:60px;"">+</div>","null","","","","","","",""
"null","","image-keyboard-response","620","878040","0.0-8.0-0.13","","img/red.png","null","trial","32","false","0.6,0.4","1:go_a","",""
"null","","html-keyboard-response","621","879058","0.0-8.0-1.13","","<img src=""img/red-n.png"">","null","trial","32","","0.6,0.4","1:go_a","0",""
"null","","html-keyboard-response","622","880075","0.0-8.0-2.13","","<div style=""font-size:60px;"">+</div>","null","","","","","","",""
"null","","image-keyboard-response","623","881591","0.0-8.0-0.14","","img/purple.png","null","trial","null","true","0.4,0.6","4:nogo_d","",""
"null","","html-keyboard-response","624","882604","0.0-8.0-1.14","","<img src=""img/purple-n.png"">","null","trial","null","","0.4,0.6","4:nogo_d","0",""
"null","","html-keyboard-response","625","883609","0.0-8.0-2.14","","<div style=""font-size:60px;"">+</div>","null","","","","","","",""
"888.1999999880791","","image-keyboard-response","626","884499","0.0-8.0-0.15","","img/yellow.png","32","trial","null","false","0.4,0.6","2:nogo_b","",""
"null","","html-keyboard-response","627","885507","0.0-8.0-1.15","","<img src=""img/yellow-n.png"" border=""10"">","null","trial","null","","0.4,0.6","2:nogo_b","0",""
"null","","html-keyboard-response","628","886524","0.0-8.0-2.15","","<div style=""font-size:60px;"">+</div>","null","","","","","","",""
"null","","image-keyboard-response","629","888026","0.0-8.0-0.16","","img/purple.png","null","trial","null","true","0.4,0.6","4:nogo_d","",""
"null","","html-keyboard-response","630","889035","0.0-8.0-1.16","","<img src=""img/purple-n.png"">","null","trial","null","","0.4,0.6","4:nogo_d","0",""
"null","","html-keyboard-response","631","890040","0.0-8.0-2.16","","<div style=""font-size:60px;"">+</div>","null","","","","","","",""
"null","","image-keyboard-response","632","891544","0.0-8.0-0.17","","img/pink.png","null","trial","32","false","0.6,0.4","3:go_c","",""
"null","","html-keyboard-response","633","892556","0.0-8.0-1.17","","<img src=""img/pink-n.png"">","null","trial","32","","0.6,0.4","3:go_c","0",""
"null","","html-keyboard-response","634","893558","0.0-8.0-2.17","","<div style=""font-size:60px;"">+</div>","null","","","","","","",""
"null","","image-keyboard-response","635","895072","0.0-8.0-0.18","","img/red.png","null","trial","32","false","0.6,0.4","1:go_a","",""
"null","","html-keyboard-response","636","896091","0.0-8.0-1.18","","<img src=""img/red-r.png"">","null","trial","32","","0.6,0.4","1:go_a","1",""
"null","","html-keyboard-response","637","897106","0.0-8.0-2.18","","<div style=""font-size:60px;"">+</div>","null","","","","","","",""
"840.2000000476837","","image-keyboard-response","638","897949","0.0-8.0-0.19","","img/yellow.png","32","trial","null","false","0.4,0.6","2:nogo_b","",""
"null","","html-keyboard-response","639","898957","0.0-8.0-1.19","","<img src=""img/yellow-n.png"" border=""10"">","null","trial","null","","0.4,0.6","2:nogo_b","0",""
"null","","html-keyboard-response","640","899972","0.0-8.0-2.19","","<div style=""font-size:60px;"">+</div>","null","","","","","","",""
"null","","image-keyboard-response","641","901487","0.0-8.0-0.20","","img/pink.png","null","trial","32","false","0.6,0.4","3:go_c","",""
"null","","html-keyboard-response","642","902505","0.0-8.0-1.20","","<img src=""img/pink-r.png"">","null","trial","32","","0.6,0.4","3:go_c","1",""
"null","","html-keyboard-response","643","903522","0.0-8.0-2.20","","<div style=""font-size:60px;"">+</div>","null","","","","","","",""
"779.9000000357628","","image-keyboard-response","644","904304","0.0-8.0-0.21","","img/red.png","32","trial","32","true","0.6,0.4","1:go_a","",""
"null","","html-keyboard-response","645","905322","0.0-8.0-1.21","","<img src=""img/red-n.png"" border=""10"">","null","trial","32","","0.6,0.4","1:go_a","0",""
"null","","html-keyboard-response","646","906338","0.0-8.0-2.21","","<div style=""font-size:60px;"">+</div>","null","","","","","","",""
"649.1999999880791","","image-keyboard-response","647","906989","0.0-8.0-0.22","","img/purple.png","32","trial","null","false","0.4,0.6","4:nogo_d","",""
"null","","html-keyboard-response","648","908006","0.0-8.0-1.22","","<img src=""img/purple-r.png"" border=""10"">","null","trial","null","","0.4,0.6","4:nogo_d","1",""
"null","","html-keyboard-response","649","909021","0.0-8.0-2.22","","<div style=""font-size:60px;"">+</div>","null","","","","","","",""
"768.3000000119209","","image-keyboard-response","650","909791","0.0-8.0-0.23","","img/yellow.png","32","trial","null","false","0.4,0.6","2:nogo_b","",""
"null","","html-keyboard-response","651","910803","0.0-8.0-1.23","","<img src=""img/yellow-r.png"" border=""10"">","null","trial","null","","0.4,0.6","2:nogo_b","1",""
"null","","html-keyboard-response","652","911818","0.0-8.0-2.23","","<div style=""font-size:60px;"">+</div>","null","","","","","","",""
"1219.3999999761581","","image-keyboard-response","653","913040","0.0-8.0-0.24","","img/pink.png","32","trial","32","true","0.6,0.4","3:go_c","",""
"null","","html-keyboard-response","654","914054","0.0-8.0-1.24","","<img src=""img/pink-r.png"" border=""10"">","null","trial","32","","0.6,0.4","3:go_c","1",""
"null","","html-keyboard-response","655","915071","0.0-8.0-2.24","","<div style=""font-size:60px;"">+</div>","null","","","","","","",""
"null","","image-keyboard-response","656","916586","0.0-8.0-0.25","","img/yellow.png","null","trial","null","true","0.4,0.6","2:nogo_b","",""
"null","","html-keyboard-response","657","917603","0.0-8.0-1.25","","<img src=""img/yellow-r.png"">","null","trial","null","","0.4,0.6","2:nogo_b","1",""
"null","","html-keyboard-response","658","918619","0.0-8.0-2.25","","<div style=""font-size:60px;"">+</div>","null","","","","","","",""
"980.2000000476837","","image-keyboard-response","659","919601","0.0-8.0-0.26","","img/purple.png","32","trial","null","false","0.4,0.6","4:nogo_d","",""
"null","","html-keyboard-response","660","920618","0.0-8.0-1.26","","<img src=""img/purple-r.png"" border=""10"">","null","trial","null","","0.4,0.6","4:nogo_d","1",""
"null","","html-keyboard-response","661","921622","0.0-8.0-2.26","","<div style=""font-size:60px;"">+</div>","null","","","","","","",""
"955.3000000119209","","image-keyboard-response","662","922579","0.0-8.0-0.27","","img/red.png","32","trial","32","true","0.6,0.4","1:go_a","",""
"null","","html-keyboard-response","663","923585","0.0-8.0-1.27","","<img src=""img/red-r.png"" border=""10"">","null","trial","32","","0.6,0.4","1:go_a","1",""
"null","","html-keyboard-response","664","924602","0.0-8.0-2.27","","<div style=""font-size:60px;"">+</div>","null","","","","","","",""
"1136.8999999761581","","image-keyboard-response","665","925741","0.0-8.0-0.28","","img/red.png","32","trial","32","true","0.6,0.4","1:go_a","",""
"null","","html-keyboard-response","666","926751","0.0-8.0-1.28","","<img src=""img/red-r.png"" border=""10"">","null","trial","32","","0.6,0.4","1:go_a","1",""
"null","","html-keyboard-response","667","927757","0.0-8.0-2.28","","<div style=""font-size:60px;"">+</div>","null","","","","","","",""
"828.8000000119209","","image-keyboard-response","668","928588","0.0-8.0-0.29","","img/pink.png","32","trial","32","true","0.6,0.4","3:go_c","",""
"null","","html-keyboard-response","669","929600","0.0-8.0-1.29","","<img src=""img/pink-n.png"" border=""10"">","null","trial","32","","0.6,0.4","3:go_c","0",""
"null","","html-keyboard-response","670","930601","0.0-8.0-2.29","","<div style=""font-size:60px;"">+</div>","null","","","","","","",""
"799.3000000119209","","image-keyboard-response","671","931403","0.0-8.0-0.30","","img/purple.png","32","trial","null","false","0.4,0.6","4:nogo_d","",""
"null","","html-keyboard-response","672","932417","0.0-8.0-1.30","","<img src=""img/purple-r.png"" border=""10"">","null","trial","null","","0.4,0.6","4:nogo_d","1",""
"null","","html-keyboard-response","673","933420","0.0-8.0-2.30","","<div style=""font-size:60px;"">+</div>","null","","","","","","",""
"982.6999999880791","","image-keyboard-response","674","934404","0.0-8.0-0.31","","img/yellow.png","32","trial","null","false","0.4,0.6","2:nogo_b","",""
"null","","html-keyboard-response","675","935416","0.0-8.0-1.31","","<img src=""img/yellow-r.png"" border=""10"">","null","trial","null","","0.4,0.6","2:nogo_b","1",""
"null","","html-keyboard-response","676","936434","0.0-8.0-2.31","","<div style=""font-size:60px;"">+</div>","null","","","","","","",""
"907.1999999880791","","image-keyboard-response","677","937343","0.0-8.0-0.32","","img/pink.png","32","trial","32","true","0.6,0.4","3:go_c","",""
"null","","html-keyboard-response","678","938350","0.0-8.0-1.32","","<img src=""img/pink-r.png"" border=""10"">","null","trial","32","","0.6,0.4","3:go_c","1",""
