"rt","url","trial_type","trial_index","time_elapsed","internal_node_id","view_history","stimulus","key_press","test_part","correct_response","correct","use_rew","which_stim","reward","responses"
"54833.98999995552","consent.html","external-html","0","54968","0.0-0.0","","","","","","","","","",""
"690284.9999999162","","instructions","1","745256","0.0-1.0","[{""page_index"":0,""viewing_time"":4559.020000044256},{""page_index"":1,""viewing_time"":629892.0299999882},{""page_index"":2,""viewing_time"":4078.5749999340624},{""page_index"":3,""viewing_time"":8490.650000050664},{""page_index"":4,""viewing_time"":11116.105000022799},{""page_index"":5,""viewing_time"":1433.0549999140203},{""page_index"":4,""viewing_time"":1432.0150001440197},{""page_index"":5,""viewing_time"":26204.254999989644},{""page_index"":6,""viewing_time"":3076.660000020638}]","","","","","","","","",""
"1005.2050000522286","","image-keyboard-response","2","746266","0.0-2.0-0.0","","img/test3.PNG","32","practice","null","false","","","",""
"null","","html-keyboard-response","3","747275","0.0-2.0-1.0","","<img src=""img/test3-neutral.PNG"" border=""10px; grey"">","null","","","","","","",""
"null","","html-keyboard-response","4","748292","0.0-2.0-2.0","","<div style=""font-size:60px;"">+</div>","null","","","","","","",""
"1046.0449999663979","","image-keyboard-response","5","749340","0.0-2.0-0.1","","img/test2.PNG","32","practice","null","false","","","",""
"null","","html-keyboard-response","6","750353","0.0-2.0-1.1","","<img src=""img/test2-neutral.PNG"" border=""10px; grey"">","null","","","","","","",""
"null","","html-keyboard-response","7","751361","0.0-2.0-2.1","","<div style=""font-size:60px;"">+</div>","null","","","","","","",""
"788.399999961257","","image-keyboard-response","8","752157","0.0-2.0-0.2","","img/test1.PNG","32","practice","32","true","","","",""
"null","","html-keyboard-response","9","753165","0.0-2.0-1.2","","<img src=""img/test1-reward.PNG"" border=""10px; grey"">","null","","","","","","",""
"null","","html-keyboard-response","10","754180","0.0-2.0-2.2","","<div style=""font-size:60px;"">+</div>","null","","","","","","",""
"null","","image-keyboard-response","11","755692","0.0-2.0-0.3","","img/test3.PNG","null","practice","null","true","","","",""
"null","","html-keyboard-response","12","756700","0.0-2.0-1.3","","<img src=""img/test3-reward.PNG"">","null","","","","","","",""
"null","","html-keyboard-response","13","757711","0.0-2.0-2.3","","<div style=""font-size:60px;"">+</div>","null","","","","","","",""
"null","","image-keyboard-response","14","759226","0.0-2.0-0.4","","img/test2.PNG","null","practice","null","true","","","",""
"null","","html-keyboard-response","15","760228","0.0-2.0-1.4","","<img src=""img/test2-reward.PNG"">","null","","","","","","",""
"null","","html-keyboard-response","16","761242","0.0-2.0-2.4","","<div style=""font-size:60px;"">+</div>","null","","","","","","",""
"593.8599999062717","","image-keyboard-response","17","761836","0.0-2.0-0.5","","img/test1.PNG","32","practice","32","true","","","",""
"null","","html-keyboard-response","18","762843","0.0-2.0-1.5","","<img src=""img/test1-reward.PNG"" border=""10px; grey"">","null","","","","","","",""
"null","","html-keyboard-response","19","763855","0.0-2.0-2.5","","<div style=""font-size:60px;"">+</div>","null","","","","","","",""
"872.2500000149012","","image-keyboard-response","20","764729","0.0-2.0-0.6","","img/test1.PNG","32","practice","32","true","","","",""
"null","","html-keyboard-response","21","765737","0.0-2.0-1.6","","<img src=""img/test1-reward.PNG"" border=""10px; grey"">","null","","","","","","",""
"null","","html-keyboard-response","22","766753","0.0-2.0-2.6","","<div style=""font-size:60px;"">+</div>","null","","","","","","",""
"null","","image-keyboard-response","23","768261","0.0-2.0-0.7","","img/test2.PNG","null","practice","null","true","","","",""
"null","","html-keyboard-response","24","769265","0.0-2.0-1.7","","<img src=""img/test2-reward.PNG"">","null","","","","","","",""
"null","","html-keyboard-response","25","770279","0.0-2.0-2.7","","<div style=""font-size:60px;"">+</div>","null","","","","","","",""
"null","","image-keyboard-response","26","771782","0.0-2.0-0.8","","img/test3.PNG","null","practice","null","true","","","",""
"null","","html-keyboard-response","27","772794","0.0-2.0-1.8","","<img src=""img/test3-reward.PNG"">","null","","","","","","",""
"null","","html-keyboard-response","28","773806","0.0-2.0-2.8","","<div style=""font-size:60px;"">+</div>","null","","","","","","",""
"null","","image-keyboard-response","29","775316","0.0-2.0-0.9","","img/test3.PNG","null","practice","null","true","","","",""
"null","","html-keyboard-response","30","776328","0.0-2.0-1.9","","<img src=""img/test3-reward.PNG"">","null","","","","","","",""
"null","","html-keyboard-response","31","777341","0.0-2.0-2.9","","<div style=""font-size:60px;"">+</div>","null","","","","","","",""
"null","","image-keyboard-response","32","778856","0.0-2.0-0.10","","img/test2.PNG","null","practice","null","true","","","",""
"null","","html-keyboard-response","33","779867","0.0-2.0-1.10","","<img src=""img/test2-reward.PNG"">","null","","","","","","",""
"null","","html-keyboard-response","34","780868","0.0-2.0-2.10","","<div style=""font-size:60px;"">+</div>","null","","","","","","",""
"654.6400000806898","","image-keyboard-response","35","781525","0.0-2.0-0.11","","img/test1.PNG","32","practice","32","true","","","",""
"null","","html-keyboard-response","36","782536","0.0-2.0-1.11","","<img src=""img/test1-reward.PNG"" border=""10px; grey"">","null","","","","","","",""
"null","","html-keyboard-response","37","783554","0.0-2.0-2.11","","<div style=""font-size:60px;"">+</div>","null","","","","","","",""
"24452.074999921024","","instructions","38","808008","0.0-3.0","[{""page_index"":0,""viewing_time"":24451.80999999866}]","","","","","","","","",""
"null","","image-keyboard-response","39","809517","0.0-4.0-0.0","","img/grey.png","null","trial","32","false","0.8,0.2","1:go_a","",""
"null","","html-keyboard-response","40","810530","0.0-4.0-1.0","","<img src=""img/grey-n.png"">","null","trial","32","","0.8,0.2","1:go_a","0",""
"null","","html-keyboard-response","41","811542","0.0-4.0-2.0","","<div style=""font-size:60px;"">+</div>","null","","","","","","",""
"689.5550000481308","","image-keyboard-response","42","812234","0.0-4.0-0.1","","img/red.png","32","trial","null","false","0.2,0.8","2:nogo_b","",""
"null","","html-keyboard-response","43","813239","0.0-4.0-1.1","","<img src=""img/red-n.png"" border=""10"">","null","trial","null","","0.2,0.8","2:nogo_b","0",""
"null","","html-keyboard-response","44","814254","0.0-4.0-2.1","","<div style=""font-size:60px;"">+</div>","null","","","","","","",""
"null","","image-keyboard-response","45","815769","0.0-4.0-0.2","","img/grey.png","null","trial","32","false","0.8,0.2","1:go_a","",""
"null","","html-keyboard-response","46","816780","0.0-4.0-1.2","","<img src=""img/grey-n.png"">","null","trial","32","","0.8,0.2","1:go_a","0",""
"null","","html-keyboard-response","47","817781","0.0-4.0-2.2","","<div style=""font-size:60px;"">+</div>","null","","","","","","",""
"null","","image-keyboard-response","48","819291","0.0-4.0-0.3","","img/red.png","null","trial","null","true","0.2,0.8","2:nogo_b","",""
"null","","html-keyboard-response","49","820303","0.0-4.0-1.3","","<img src=""img/red-r.png"">","null","trial","null","","0.2,0.8","2:nogo_b","1",""
"null","","html-keyboard-response","50","821315","0.0-4.0-2.3","","<div style=""font-size:60px;"">+</div>","null","","","","","","",""
"826.3550000265241","","image-keyboard-response","51","822143","0.0-4.0-0.4","","img/grey.png","32","trial","32","true","0.8,0.2","1:go_a","",""
"null","","html-keyboard-response","52","823151","0.0-4.0-1.4","","<img src=""img/grey-n.png"" border=""10"">","null","trial","32","","0.8,0.2","1:go_a","0",""
"null","","html-keyboard-response","53","824168","0.0-4.0-2.4","","<div style=""font-size:60px;"">+</div>","null","","","","","","",""
"null","","image-keyboard-response","54","825674","0.0-4.0-0.5","","img/red.png","null","trial","null","true","0.2,0.8","2:nogo_b","",""
"null","","html-keyboard-response","55","826682","0.0-4.0-1.5","","<img src=""img/red-n.png"">","null","trial","null","","0.2,0.8","2:nogo_b","0",""
"null","","html-keyboard-response","56","827695","0.0-4.0-2.5","","<div style=""font-size:60px;"">+</div>","null","","","","","","",""
"1070.4649998806417","","image-keyboard-response","57","828767","0.0-4.0-0.6","","img/red.png","32","trial","null","false","0.2,0.8","2:nogo_b","",""
"null","","html-keyboard-response","58","829774","0.0-4.0-1.6","","<img src=""img/red-n.png"" border=""10"">","null","trial","null","","0.2,0.8","2:nogo_b","0",""
"null","","html-keyboard-response","59","830786","0.0-4.0-2.6","","<div style=""font-size:60px;"">+</div>","null","","","","","","",""
"733.3700000308454","","image-keyboard-response","60","831520","0.0-4.0-0.7","","img/grey.png","32","trial","32","true","0.8,0.2","1:go_a","",""
"null","","html-keyboard-response","61","832530","0.0-4.0-1.7","","<img src=""img/grey-r.png"" border=""10"">","null","trial","32","","0.8,0.2","1:go_a","1",""
"null","","html-keyboard-response","62","833546","0.0-4.0-2.7","","<div style=""font-size:60px;"">+</div>","null","","","","","","",""
"793.6199998948723","","image-keyboard-response","63","834342","0.0-4.0-0.8","","img/grey.png","32","trial","32","true","0.8,0.2","1:go_a","",""
"null","","html-keyboard-response","64","835349","0.0-4.0-1.8","","<img src=""img/grey-r.png"" border=""10"">","null","trial","32","","0.8,0.2","1:go_a","1",""
"null","","html-keyboard-response","65","836363","0.0-4.0-2.8","","<div style=""font-size:60px;"">+</div>","null","","","","","","",""
"842.1449998859316","","image-keyboard-response","66","837206","0.0-4.0-0.9","","img/red.png","32","trial","null","false","0.2,0.8","2:nogo_b","",""
"null","","html-keyboard-response","67","838219","0.0-4.0-1.9","","<img src=""img/red-n.png"" border=""10"">","null","trial","null","","0.2,0.8","2:nogo_b","0",""
"null","","html-keyboard-response","68","839228","0.0-4.0-2.9","","<div style=""font-size:60px;"">+</div>","null","","","","","","",""
"null","","image-keyboard-response","69","840739","0.0-4.0-0.10","","img/red.png","null","trial","null","true","0.2,0.8","2:nogo_b","",""
"null","","html-keyboard-response","70","841752","0.0-4.0-1.10","","<img src=""img/red-r.png"">","null","trial","null","","0.2,0.8","2:nogo_b","1",""
"null","","html-keyboard-response","71","842768","0.0-4.0-2.10","","<div style=""font-size:60px;"">+</div>","null","","","","","","",""
"812.5299999956042","","image-keyboard-response","72","843582","0.0-4.0-0.11","","img/grey.png","32","trial","32","true","0.8,0.2","1:go_a","",""
"null","","html-keyboard-response","73","844591","0.0-4.0-1.11","","<img src=""img/grey-n.png"" border=""10"">","null","trial","32","","0.8,0.2","1:go_a","0",""
"null","","html-keyboard-response","74","845604","0.0-4.0-2.11","","<div style=""font-size:60px;"">+</div>","null","","","","","","",""
"808.9550000149757","","image-keyboard-response","75","846414","0.0-4.0-0.12","","img/grey.png","32","trial","32","true","0.8,0.2","1:go_a","",""
"null","","html-keyboard-response","76","847425","0.0-4.0-1.12","","<img src=""img/grey-n.png"" border=""10"">","null","trial","32","","0.8,0.2","1:go_a","0",""
"null","","html-keyboard-response","77","848438","0.0-4.0-2.12","","<div style=""font-size:60px;"">+</div>","null","","","","","","",""
"null","","image-keyboard-response","78","849947","0.0-4.0-0.13","","img/red.png","null","trial","null","true","0.2,0.8","2:nogo_b","",""
"null","","html-keyboard-response","79","850964","0.0-4.0-1.13","","<img src=""img/red-n.png"">","null","trial","null","","0.2,0.8","2:nogo_b","0",""
"null","","html-keyboard-response","80","851967","0.0-4.0-2.13","","<div style=""font-size:60px;"">+</div>","null","","","","","","",""
"653.3649999182671","","image-keyboard-response","81","852622","0.0-4.0-0.14","","img/grey.png","32","trial","32","true","0.8,0.2","1:go_a","",""
"null","","html-keyboard-response","82","853637","0.0-4.0-1.14","","<img src=""img/grey-r.png"" border=""10"">","null","trial","32","","0.8,0.2","1:go_a","1",""
"null","","html-keyboard-response","83","854648","0.0-4.0-2.14","","<div style=""font-size:60px;"">+</div>","null","","","","","","",""
"null","","image-keyboard-response","84","856159","0.0-4.0-0.15","","img/red.png","null","trial","null","true","0.2,0.8","2:nogo_b","",""
"null","","html-keyboard-response","85","857167","0.0-4.0-1.15","","<img src=""img/red-r.png"">","null","trial","null","","0.2,0.8","2:nogo_b","1",""
"null","","html-keyboard-response","86","858178","0.0-4.0-2.15","","<div style=""font-size:60px;"">+</div>","null","","","","","","",""
"null","","image-keyboard-response","87","859693","0.0-4.0-0.16","","img/red.png","null","trial","null","true","0.2,0.8","2:nogo_b","",""
"null","","html-keyboard-response","88","860705","0.0-4.0-1.16","","<img src=""img/red-r.png"">","null","trial","null","","0.2,0.8","2:nogo_b","1",""
"null","","html-keyboard-response","89","861715","0.0-4.0-2.16","","<div style=""font-size:60px;"">+</div>","null","","","","","","",""
"674.5449998416007","","image-keyboard-response","90","862391","0.0-4.0-0.17","","img/grey.png","32","trial","32","true","0.8,0.2","1:go_a","",""
"null","","html-keyboard-response","91","863402","0.0-4.0-1.17","","<img src=""img/grey-r.png"" border=""10"">","null","trial","32","","0.8,0.2","1:go_a","1",""
"null","","html-keyboard-response","92","864417","0.0-4.0-2.17","","<div style=""font-size:60px;"">+</div>","null","","","","","","",""
"null","","image-keyboard-response","93","865930","0.0-4.0-0.18","","img/red.png","null","trial","null","true","0.2,0.8","2:nogo_b","",""
"null","","html-keyboard-response","94","866941","0.0-4.0-1.18","","<img src=""img/red-r.png"">","null","trial","null","","0.2,0.8","2:nogo_b","1",""
"null","","html-keyboard-response","95","867954","0.0-4.0-2.18","","<div style=""font-size:60px;"">+</div>","null","","","","","","",""
"670.9999998565763","","image-keyboard-response","96","868627","0.0-4.0-0.19","","img/grey.png","32","trial","32","true","0.8,0.2","1:go_a","",""
"null","","html-keyboard-response","97","869636","0.0-4.0-1.19","","<img src=""img/grey-r.png"" border=""10"">","null","trial","32","","0.8,0.2","1:go_a","1",""
"null","","html-keyboard-response","98","870649","0.0-4.0-2.19","","<div style=""font-size:60px;"">+</div>","null","","","","","","",""
"null","","image-keyboard-response","99","872164","0.0-4.0-0.20","","img/red.png","null","trial","null","true","0.2,0.8","2:nogo_b","",""
"null","","html-keyboard-response","100","873181","0.0-4.0-1.20","","<img src=""img/red-r.png"">","null","trial","null","","0.2,0.8","2:nogo_b","1",""
"null","","html-keyboard-response","101","874191","0.0-4.0-2.20","","<div style=""font-size:60px;"">+</div>","null","","","","","","",""
"750.8549999911338","","image-keyboard-response","102","874943","0.0-4.0-0.21","","img/grey.png","32","trial","32","true","0.8,0.2","1:go_a","",""
"null","","html-keyboard-response","103","875952","0.0-4.0-1.21","","<img src=""img/grey-r.png"" border=""10"">","null","trial","32","","0.8,0.2","1:go_a","1",""
"null","","html-keyboard-response","104","876967","0.0-4.0-2.21","","<div style=""font-size:60px;"">+</div>","null","","","","","","",""
"null","","image-keyboard-response","105","878476","0.0-4.0-0.22","","img/red.png","null","trial","null","true","0.2,0.8","2:nogo_b","",""
"null","","html-keyboard-response","106","879486","0.0-4.0-1.22","","<img src=""img/red-r.png"">","null","trial","null","","0.2,0.8","2:nogo_b","1",""
"null","","html-keyboard-response","107","880497","0.0-4.0-2.22","","<div style=""font-size:60px;"">+</div>","null","","","","","","",""
"735.1199998520315","","image-keyboard-response","108","881234","0.0-4.0-0.23","","img/grey.png","32","trial","32","true","0.8,0.2","1:go_a","",""
"null","","html-keyboard-response","109","882243","0.0-4.0-1.23","","<img src=""img/grey-r.png"" border=""10"">","null","trial","32","","0.8,0.2","1:go_a","1",""
"null","","html-keyboard-response","110","883255","0.0-4.0-2.23","","<div style=""font-size:60px;"">+</div>","null","","","","","","",""
"908.0999998841435","","image-keyboard-response","111","884165","0.0-4.0-0.24","","img/grey.png","32","trial","32","true","0.8,0.2","1:go_a","",""
"null","","html-keyboard-response","112","885178","0.0-4.0-1.24","","<img src=""img/grey-r.png"" border=""10"">","null","trial","32","","0.8,0.2","1:go_a","1",""
"null","","html-keyboard-response","113","886188","0.0-4.0-2.24","","<div style=""font-size:60px;"">+</div>","null","","","","","","",""
"null","","image-keyboard-response","114","887695","0.0-4.0-0.25","","img/red.png","null","trial","null","true","0.2,0.8","2:nogo_b","",""
"null","","html-keyboard-response","115","888712","0.0-4.0-1.25","","<img src=""img/red-n.png"">","null","trial","null","","0.2,0.8","2:nogo_b","0",""
"null","","html-keyboard-response","116","889725","0.0-4.0-2.25","","<div style=""font-size:60px;"">+</div>","null","","","","","","",""
"null","","image-keyboard-response","117","891232","0.0-4.0-0.26","","img/red.png","null","trial","null","true","0.2,0.8","2:nogo_b","",""
"null","","html-keyboard-response","118","892248","0.0-4.0-1.26","","<img src=""img/red-r.png"">","null","trial","null","","0.2,0.8","2:nogo_b","1",""
"null","","html-keyboard-response","119","893258","0.0-4.0-2.26","","<div style=""font-size:60px;"">+</div>","null","","","","","","",""
"859.0649999678135","","image-keyboard-response","120","894118","0.0-4.0-0.27","","img/grey.png","32","trial","32","true","0.8,0.2","1:go_a","",""
"null","","html-keyboard-response","121","895127","0.0-4.0-1.27","","<img src=""img/grey-r.png"" border=""10"">","null","trial","32","","0.8,0.2","1:go_a","1",""
"null","","html-keyboard-response","122","896139","0.0-4.0-2.27","","<div style=""font-size:60px;"">+</div>","null","","","","","","",""
"null","","image-keyboard-response","123","897656","0.0-4.0-0.28","","img/red.png","null","trial","null","true","0.2,0.8","2:nogo_b","",""
"null","","html-keyboard-response","124","898673","0.0-4.0-1.28","","<img src=""img/red-r.png"">","null","trial","null","","0.2,0.8","2:nogo_b","1",""
"null","","html-keyboard-response","125","899687","0.0-4.0-2.28","","<div style=""font-size:60px;"">+</div>","null","","","","","","",""
"750.8650000672787","","image-keyboard-response","126","900439","0.0-4.0-0.29","","img/grey.png","32","trial","32","true","0.8,0.2","1:go_a","",""
"null","","html-keyboard-response","127","901448","0.0-4.0-1.29","","<img src=""img/grey-n.png"" border=""10"">","null","trial","32","","0.8,0.2","1:go_a","0",""
"null","","html-keyboard-response","128","902460","0.0-4.0-2.29","","<div style=""font-size:60px;"">+</div>","null","","","","","","",""
"null","","image-keyboard-response","129","903964","0.0-4.0-0.30","","img/red.png","null","trial","null","true","0.2,0.8","2:nogo_b","",""
"null","","html-keyboard-response","130","904978","0.0-4.0-1.30","","<img src=""img/red-r.png"">","null","trial","null","","0.2,0.8","2:nogo_b","1",""
"null","","html-keyboard-response","131","905989","0.0-4.0-2.30","","<div style=""font-size:60px;"">+</div>","null","","","","","","",""
"686.9099999312311","","image-keyboard-response","132","906677","0.0-4.0-0.31","","img/grey.png","32","trial","32","true","0.8,0.2","1:go_a","",""
"null","","html-keyboard-response","133","907692","0.0-4.0-1.31","","<img src=""img/grey-r.png"" border=""10"">","null","trial","32","","0.8,0.2","1:go_a","1",""
"null","","html-keyboard-response","134","908707","0.0-4.0-2.31","","<div style=""font-size:60px;"">+</div>","null","","","","","","",""
"718.8750000204891","","image-keyboard-response","135","909427","0.0-4.0-0.32","","img/grey.png","32","trial","32","true","0.8,0.2","1:go_a","",""
"null","","html-keyboard-response","136","910438","0.0-4.0-1.32","","<img src=""img/grey-r.png"" border=""10"">","null","trial","32","","0.8,0.2","1:go_a","1",""
"null","","html-keyboard-response","137","911454","0.0-4.0-2.32","","<div style=""font-size:60px;"">+</div>","null","","","","","","",""
"null","","image-keyboard-response","138","912966","0.0-4.0-0.33","","img/red.png","null","trial","null","true","0.2,0.8","2:nogo_b","",""
"null","","html-keyboard-response","139","913982","0.0-4.0-1.33","","<img src=""img/red-r.png"">","null","trial","null","","0.2,0.8","2:nogo_b","1",""
"null","","html-keyboard-response","140","914992","0.0-4.0-2.33","","<div style=""font-size:60px;"">+</div>","null","","","","","","",""
"641.4799999911338","","image-keyboard-response","141","915634","0.0-4.0-0.34","","img/grey.png","32","trial","32","true","0.8,0.2","1:go_a","",""
"null","","html-keyboard-response","142","916640","0.0-4.0-1.34","","<img src=""img/grey-n.png"" border=""10"">","null","trial","32","","0.8,0.2","1:go_a","0",""
"null","","html-keyboard-response","143","917642","0.0-4.0-2.34","","<div style=""font-size:60px;"">+</div>","null","","","","","","",""
"null","","image-keyboard-response","144","919157","0.0-4.0-0.35","","img/red.png","null","trial","null","true","0.2,0.8","2:nogo_b","",""
"null","","html-keyboard-response","145","920167","0.0-4.0-1.35","","<img src=""img/red-r.png"">","null","trial","null","","0.2,0.8","2:nogo_b","1",""
"null","","html-keyboard-response","146","921179","0.0-4.0-2.35","","<div style=""font-size:60px;"">+</div>","null","","","","","","",""
"703.8799999281764","","image-keyboard-response","147","921885","0.0-4.0-0.36","","img/grey.png","32","trial","32","true","0.8,0.2","1:go_a","",""
"null","","html-keyboard-response","148","922897","0.0-4.0-1.36","","<img src=""img/grey-r.png"" border=""10"">","null","trial","32","","0.8,0.2","1:go_a","1",""
"null","","html-keyboard-response","149","923908","0.0-4.0-2.36","","<div style=""font-size:60px;"">+</div>","null","","","","","","",""
"null","","image-keyboard-response","150","925410","0.0-4.0-0.37","","img/red.png","null","trial","null","true","0.2,0.8","2:nogo_b","",""
"null","","html-keyboard-response","151","926424","0.0-4.0-1.37","","<img src=""img/red-r.png"">","null","trial","null","","0.2,0.8","2:nogo_b","1",""
"null","","html-keyboard-response","152","927439","0.0-4.0-2.37","","<div style=""font-size:60px;"">+</div>","null","","","","","","",""
"null","","image-keyboard-response","153","928950","0.0-4.0-0.38","","img/red.png","null","trial","null","true","0.2,0.8","2:nogo_b","",""
"null","","html-keyboard-response","154","929966","0.0-4.0-1.38","","<img src=""img/red-r.png"">","null","trial","null","","0.2,0.8","2:nogo_b","1",""
"null","","html-keyboard-response","155","930981","0.0-4.0-2.38","","<div style=""font-size:60px;"">+</div>","null","","","","","","",""
"701.5400000382215","","image-keyboard-response","156","931684","0.0-4.0-0.39","","img/grey.png","32","trial","32","true","0.8,0.2","1:go_a","",""
"null","","html-keyboard-response","157","932692","0.0-4.0-1.39","","<img src=""img/grey-r.png"" border=""10"">","null","trial","32","","0.8,0.2","1:go_a","1",""
"null","","html-keyboard-response","158","933700","0.0-4.0-2.39","","<div style=""font-size:60px;"">+</div>","null","","","","","","",""
"null","","image-keyboard-response","159","935216","0.0-4.0-0.40","","img/red.png","null","trial","null","true","0.2,0.8","2:nogo_b","",""
"null","","html-keyboard-response","160","936227","0.0-4.0-1.40","","<img src=""img/red-n.png"">","null","trial","null","","0.2,0.8","2:nogo_b","0",""
"null","","html-keyboard-response","161","937240","0.0-4.0-2.40","","<div style=""font-size:60px;"">+</div>","null","","","","","","",""
"752.3650000803173","","image-keyboard-response","162","937994","0.0-4.0-0.41","","img/grey.png","32","trial","32","true","0.8,0.2","1:go_a","",""
"null","","html-keyboard-response","163","939003","0.0-4.0-1.41","","<img src=""img/grey-r.png"" border=""10"">","null","trial","32","","0.8,0.2","1:go_a","1",""
"null","","html-keyboard-response","164","940014","0.0-4.0-2.41","","<div style=""font-size:60px;"">+</div>","null","","","","","","",""
"null","","image-keyboard-response","165","941525","0.0-4.0-0.42","","img/red.png","null","trial","null","true","0.2,0.8","2:nogo_b","",""
"null","","html-keyboard-response","166","942541","0.0-4.0-1.42","","<img src=""img/red-n.png"">","null","trial","null","","0.2,0.8","2:nogo_b","0",""
"null","","html-keyboard-response","167","943550","0.0-4.0-2.42","","<div style=""font-size:60px;"">+</div>","null","","","","","","",""
"749.0000000689179","","image-keyboard-response","168","944300","0.0-4.0-0.43","","img/grey.png","32","trial","32","true","0.8,0.2","1:go_a","",""
"null","","html-keyboard-response","169","945307","0.0-4.0-1.43","","<img src=""img/grey-n.png"" border=""10"">","null","trial","32","","0.8,0.2","1:go_a","0",""
"null","","html-keyboard-response","170","946311","0.0-4.0-2.43","","<div style=""font-size:60px;"">+</div>","null","","","","","","",""
"782.5800001155585","","image-keyboard-response","171","947095","0.0-4.0-0.44","","img/grey.png","32","trial","32","true","0.8,0.2","1:go_a","",""
"null","","html-keyboard-response","172","948108","0.0-4.0-1.44","","<img src=""img/grey-r.png"" border=""10"">","null","trial","32","","0.8,0.2","1:go_a","1",""
"null","","html-keyboard-response","173","949120","0.0-4.0-2.44","","<div style=""font-size:60px;"">+</div>","null","","","","","","",""
"null","","image-keyboard-response","174","950633","0.0-4.0-0.45","","img/red.png","null","trial","null","true","0.2,0.8","2:nogo_b","",""
"null","","html-keyboard-response","175","951649","0.0-4.0-1.45","","<img src=""img/red-r.png"">","null","trial","null","","0.2,0.8","2:nogo_b","1",""
"null","","html-keyboard-response","176","952663","0.0-4.0-2.45","","<div style=""font-size:60px;"">+</div>","null","","","","","","",""
"687.679999973625","","image-keyboard-response","177","953352","0.0-4.0-0.46","","img/grey.png","32","trial","32","true","0.8,0.2","1:go_a","",""
"null","","html-keyboard-response","178","954362","0.0-4.0-1.46","","<img src=""img/grey-r.png"" border=""10"">","null","trial","32","","0.8,0.2","1:go_a","1",""
"null","","html-keyboard-response","179","955381","0.0-4.0-2.46","","<div style=""font-size:60px;"">+</div>","null","","","","","","",""
"null","","image-keyboard-response","180","956896","0.0-4.0-0.47","","img/red.png","null","trial","null","true","0.2,0.8","2:nogo_b","",""
"null","","html-keyboard-response","181","957907","0.0-4.0-1.47","","<img src=""img/red-r.png"">","null","trial","null","","0.2,0.8","2:nogo_b","1",""
"null","","html-keyboard-response","182","958921","0.0-4.0-2.47","","<div style=""font-size:60px;"">+</div>","null","","","","","","",""
"678.709999890998","","image-keyboard-response","183","959601","0.0-4.0-0.48","","img/grey.png","32","trial","32","true","0.8,0.2","1:go_a","",""
"null","","html-keyboard-response","184","960610","0.0-4.0-1.48","","<img src=""img/grey-r.png"" border=""10"">","null","trial","32","","0.8,0.2","1:go_a","1",""
"null","","html-keyboard-response","185","961620","0.0-4.0-2.48","","<div style=""font-size:60px;"">+</div>","null","","","","","","",""
"null","","image-keyboard-response","186","963134","0.0-4.0-0.49","","img/red.png","null","trial","null","true","0.2,0.8","2:nogo_b","",""
"null","","html-keyboard-response","187","964148","0.0-4.0-1.49","","<img src=""img/red-n.png"">","null","trial","null","","0.2,0.8","2:nogo_b","0",""
"null","","html-keyboard-response","188","965161","0.0-4.0-2.49","","<div style=""font-size:60px;"">+</div>","null","","","","","","",""
"null","","image-keyboard-response","189","966678","0.0-4.0-0.50","","img/red.png","null","trial","null","true","0.2,0.8","2:nogo_b","",""
"null","","html-keyboard-response","190","967691","0.0-4.0-1.50","","<img src=""img/red-r.png"">","null","trial","null","","0.2,0.8","2:nogo_b","1",""
"null","","html-keyboard-response","191","968706","0.0-4.0-2.50","","<div style=""font-size:60px;"">+</div>","null","","","","","","",""
"704.2050000745803","","image-keyboard-response","192","969411","0.0-4.0-0.51","","img/grey.png","32","trial","32","true","0.8,0.2","1:go_a","",""
"null","","html-keyboard-response","193","970416","0.0-4.0-1.51","","<img src=""img/grey-r.png"" border=""10"">","null","trial","32","","0.8,0.2","1:go_a","1",""
"null","","html-keyboard-response","194","971430","0.0-4.0-2.51","","<div style=""font-size:60px;"">+</div>","null","","","","","","",""
"732.8649999108166","","image-keyboard-response","195","972164","0.0-4.0-0.52","","img/grey.png","32","trial","32","true","0.8,0.2","1:go_a","",""
"null","","html-keyboard-response","196","973177","0.0-4.0-1.52","","<img src=""img/grey-n.png"" border=""10"">","null","trial","32","","0.8,0.2","1:go_a","0",""
"null","","html-keyboard-response","197","974187","0.0-4.0-2.52","","<div style=""font-size:60px;"">+</div>","null","","","","","","",""
"null","","image-keyboard-response","198","975695","0.0-4.0-0.53","","img/red.png","null","trial","null","true","0.2,0.8","2:nogo_b","",""
"null","","html-keyboard-response","199","976710","0.0-4.0-1.53","","<img src=""img/red-r.png"">","null","trial","null","","0.2,0.8","2:nogo_b","1",""
"null","","html-keyboard-response","200","977721","0.0-4.0-2.53","","<div style=""font-size:60px;"">+</div>","null","","","","","","",""
"null","","image-keyboard-response","201","979237","0.0-4.0-0.54","","img/red.png","null","trial","null","true","0.2,0.8","2:nogo_b","",""
"null","","html-keyboard-response","202","980249","0.0-4.0-1.54","","<img src=""img/red-r.png"">","null","trial","null","","0.2,0.8","2:nogo_b","1",""
"null","","html-keyboard-response","203","981261","0.0-4.0-2.54","","<div style=""font-size:60px;"">+</div>","null","","","","","","",""
"null","","image-keyboard-response","204","982763","0.0-4.0-0.55","","img/grey.png","null","trial","32","false","0.8,0.2","1:go_a","",""
"null","","html-keyboard-response","205","983769","0.0-4.0-1.55","","<img src=""img/grey-r.png"">","null","trial","32","","0.8,0.2","1:go_a","1",""
"null","","html-keyboard-response","206","984783","0.0-4.0-2.55","","<div style=""font-size:60px;"">+</div>","null","","","","","","",""
"null","","image-keyboard-response","207","986299","0.0-4.0-0.56","","img/red.png","null","trial","null","true","0.2,0.8","2:nogo_b","",""
"null","","html-keyboard-response","208","987306","0.0-4.0-1.56","","<img src=""img/red-r.png"">","null","trial","null","","0.2,0.8","2:nogo_b","1",""
"null","","html-keyboard-response","209","988321","0.0-4.0-2.56","","<div style=""font-size:60px;"">+</div>","null","","","","","","",""
"778.7450000178069","","image-keyboard-response","210","989101","0.0-4.0-0.57","","img/grey.png","32","trial","32","true","0.8,0.2","1:go_a","",""
"null","","html-keyboard-response","211","990118","0.0-4.0-1.57","","<img src=""img/grey-r.png"" border=""10"">","null","trial","32","","0.8,0.2","1:go_a","1",""
"null","","html-keyboard-response","212","991130","0.0-4.0-2.57","","<div style=""font-size:60px;"">+</div>","null","","","","","","",""
"null","","image-keyboard-response","213","992640","0.0-4.0-0.58","","img/red.png","null","trial","null","true","0.2,0.8","2:nogo_b","",""
"null","","html-keyboard-response","214","993649","0.0-4.0-1.58","","<img src=""img/red-n.png"">","null","trial","null","","0.2,0.8","2:nogo_b","0",""
"null","","html-keyboard-response","215","994662","0.0-4.0-2.58","","<div style=""font-size:60px;"">+</div>","null","","","","","","",""
"688.8500000350177","","image-keyboard-response","216","995352","0.0-4.0-0.59","","img/grey.png","32","trial","32","true","0.8,0.2","1:go_a","",""
"null","","html-keyboard-response","217","996364","0.0-4.0-1.59","","<img src=""img/grey-r.png"" border=""10"">","null","trial","32","","0.8,0.2","1:go_a","1",""
"null","","html-keyboard-response","218","997379","0.0-4.0-2.59","","<div style=""font-size:60px;"">+</div>","null","","","","","","",""
"3421.2299999780953","","instructions","219","1000800","0.0-5.0","[{""page_index"":0,""viewing_time"":3420.875000068918}]","","","","","","","","",""
"null","","image-keyboard-response","220","1002307","0.0-6.0-0.0","","img/red.png","null","trial","32","false","0.6,0.4","3:go_c","",""
"null","","html-keyboard-response","221","1003320","0.0-6.0-1.0","","<img src=""img/red-n.png"">","null","trial","32","","0.6,0.4","3:go_c","0",""
"null","","html-keyboard-response","222","1004336","0.0-6.0-2.0","","<div style=""font-size:60px;"">+</div>","null","","","","","","",""
"1032.585000153631","","image-keyboard-response","223","1005370","0.0-6.0-0.1","","img/yellow.png","32","trial","null","false","0.4,0.6","4:nogo_d","",""
"null","","html-keyboard-response","224","1006379","0.0-6.0-1.1","","<img src=""img/yellow-n.png"" border=""10"">","null","trial","null","","0.4,0.6","4:nogo_d","0",""
"null","","html-keyboard-response","225","1007393","0.0-6.0-2.1","","<div style=""font-size:60px;"">+</div>","null","","","","","","",""
"850.7350001018494","","image-keyboard-response","226","1008245","0.0-6.0-0.2","","img/blue.png","32","trial","32","true","0.8,0.2","1:go_a","",""
"null","","html-keyboard-response","227","1009261","0.0-6.0-1.2","","<img src=""img/blue-r.png"" border=""10"">","null","trial","32","","0.8,0.2","1:go_a","1",""
"null","","html-keyboard-response","228","1010273","0.0-6.0-2.2","","<div style=""font-size:60px;"">+</div>","null","","","","","","",""
"970.9300000686198","","image-keyboard-response","229","1011244","0.0-6.0-0.3","","img/grey.png","32","trial","null","false","0.2,0.8","2:nogo_b","",""
"null","","html-keyboard-response","230","1012254","0.0-6.0-1.3","","<img src=""img/grey-r.png"" border=""10"">","null","trial","null","","0.2,0.8","2:nogo_b","1",""
"null","","html-keyboard-response","231","1013269","0.0-6.0-2.3","","<div style=""font-size:60px;"">+</div>","null","","","","","","",""
"null","","image-keyboard-response","232","1014780","0.0-6.0-0.4","","img/red.png","null","trial","32","false","0.6,0.4","3:go_c","",""
"null","","html-keyboard-response","233","1015793","0.0-6.0-1.4","","<img src=""img/red-n.png"">","null","trial","32","","0.6,0.4","3:go_c","0",""
"null","","html-keyboard-response","234","1016810","0.0-6.0-2.4","","<div style=""font-size:60px;"">+</div>","null","","","","","","",""
"933.8549999520183","","image-keyboard-response","235","1017745","0.0-6.0-0.5","","img/grey.png","32","trial","null","false","0.2,0.8","2:nogo_b","",""
"null","","html-keyboard-response","236","1018749","0.0-6.0-1.5","","<img src=""img/grey-n.png"" border=""10"">","null","trial","null","","0.2,0.8","2:nogo_b","0",""
"null","","html-keyboard-response","237","1019764","0.0-6.0-2.5","","<div style=""font-size:60px;"">+</div>","null","","","","","","",""
"969.1049999091774","","image-keyboard-response","238","1020735","0.0-6.0-0.6","","img/yellow.png","32","trial","null","false","0.4,0.6","4:nogo_d","",""
"null","","html-keyboard-response","239","1021746","0.0-6.0-1.6","","<img src=""img/yellow-n.png"" border=""10"">","null","trial","null","","0.4,0.6","4:nogo_d","0",""
"null","","html-keyboard-response","240","1022748","0.0-6.0-2.6","","<div style=""font-size:60px;"">+</div>","null","","","","","","",""
"860.3250000160187","","image-keyboard-response","241","1023609","0.0-6.0-0.7","","img/blue.png","32","trial","32","true","0.8,0.2","1:go_a","",""
"null","","html-keyboard-response","242","1024621","0.0-6.0-1.7","","<img src=""img/blue-r.png"" border=""10"">","null","trial","32","","0.8,0.2","1:go_a","1",""
"null","","html-keyboard-response","243","1025637","0.0-6.0-2.7","","<div style=""font-size:60px;"">+</div>","null","","","","","","",""
"968.7600000761449","","image-keyboard-response","244","1026607","0.0-6.0-0.8","","img/red.png","32","trial","32","true","0.6,0.4","3:go_c","",""
"null","","html-keyboard-response","245","1027621","0.0-6.0-1.8","","<img src=""img/red-n.png"" border=""10"">","null","trial","32","","0.6,0.4","3:go_c","0",""
"null","","html-keyboard-response","246","1028633","0.0-6.0-2.8","","<div style=""font-size:60px;"">+</div>","null","","","","","","",""
"1089.5849999506027","","image-keyboard-response","247","1029725","0.0-6.0-0.9","","img/grey.png","32","trial","null","false","0.2,0.8","2:nogo_b","",""
"null","","html-keyboard-response","248","1030736","0.0-6.0-1.9","","<img src=""img/grey-n.png"" border=""10"">","null","trial","null","","0.2,0.8","2:nogo_b","0",""
"null","","html-keyboard-response","249","1031739","0.0-6.0-2.9","","<div style=""font-size:60px;"">+</div>","null","","","","","","",""
"922.275000018999","","image-keyboard-response","250","1032663","0.0-6.0-0.10","","img/blue.png","32","trial","32","true","0.8,0.2","1:go_a","",""
"null","","html-keyboard-response","251","1033671","0.0-6.0-1.10","","<img src=""img/blue-n.png"" border=""10"">","null","trial","32","","0.8,0.2","1:go_a","0",""
"null","","html-keyboard-response","252","1034673","0.0-6.0-2.10","","<div style=""font-size:60px;"">+</div>","null","","","","","","",""
"null","","image-keyboard-response","253","1036189","0.0-6.0-0.11","","img/yellow.png","null","trial","null","true","0.4,0.6","4:nogo_d","",""
"null","","html-keyboard-response","254","1037203","0.0-6.0-1.11","","<img src=""img/yellow-n.png"">","null","trial","null","","0.4,0.6","4:nogo_d","0",""
"null","","html-keyboard-response","255","1038218","0.0-6.0-2.11","","<div style=""font-size:60px;"">+</div>","null","","","","","","",""
"null","","image-keyboard-response","256","1039724","0.0-6.0-0.12","","img/grey.png","null","trial","null","true","0.2,0.8","2:nogo_b","",""
"null","","html-keyboard-response","257","1040741","0.0-6.0-1.12","","<img src=""img/grey-r.png"">","null","trial","null","","0.2,0.8","2:nogo_b","1",""
"null","","html-keyboard-response","258","1041750","0.0-6.0-2.12","","<div style=""font-size:60px;"">+</div>","null","","","","","","",""
"922.8249997831881","","image-keyboard-response","259","1042674","0.0-6.0-0.13","","img/blue.png","32","trial","32","true","0.8,0.2","1:go_a","",""
"null","","html-keyboard-response","260","1043680","0.0-6.0-1.13","","<img src=""img/blue-r.png"" border=""10"">","null","trial","32","","0.8,0.2","1:go_a","1",""
"null","","html-keyboard-response","261","1044698","0.0-6.0-2.13","","<div style=""font-size:60px;"">+</div>","null","","","","","","",""
"null","","image-keyboard-response","262","1046209","0.0-6.0-0.14","","img/yellow.png","null","trial","null","true","0.4,0.6","4:nogo_d","",""
"null","","html-keyboard-response","263","1047226","0.0-6.0-1.14","","<img src=""img/yellow-n.png"">","null","trial","null","","0.4,0.6","4:nogo_d","0",""
"null","","html-keyboard-response","264","1048239","0.0-6.0-2.14","","<div style=""font-size:60px;"">+</div>","null","","","","","","",""
"null","","image-keyboard-response","265","1049743","0.0-6.0-0.15","","img/red.png","null","trial","32","false","0.6,0.4","3:go_c","",""
"null","","html-keyboard-response","266","1050755","0.0-6.0-1.15","","<img src=""img/red-r.png"">","null","trial","32","","0.6,0.4","3:go_c","1",""
"null","","html-keyboard-response","267","1051769","0.0-6.0-2.15","","<div style=""font-size:60px;"">+</div>","null","","","","","","",""
"null","","image-keyboard-response","268","1053285","0.0-6.0-0.16","","img/red.png","null","trial","32","false","0.6,0.4","3:go_c","",""
"null","","html-keyboard-response","269","1054298","0.0-6.0-1.16","","<img src=""img/red-n.png"">","null","trial","32","","0.6,0.4","3:go_c","0",""
"null","","html-keyboard-response","270","1055312","0.0-6.0-2.16","","<div style=""font-size:60px;"">+</div>","null","","","","","","",""
"null","","image-keyboard-response","271","1056826","0.0-6.0-0.17","","img/yellow.png","null","trial","null","true","0.4,0.6","4:nogo_d","",""
"null","","html-keyboard-response","272","1057828","0.0-6.0-1.17","","<img src=""img/yellow-n.png"">","null","trial","null","","0.4,0.6","4:nogo_d","0",""
"null","","html-keyboard-response","273","1058838","0.0-6.0-2.17","","<div style=""font-size:60px;"">+</div>","null","","","","","","",""
"null","","image-keyboard-response","274","1060352","0.0-6.0-0.18","","img/grey.png","null","trial","null","true","0.2,0.8","2:nogo_b","",""
"null","","html-keyboard-response","275","1061362","0.0-6.0-1.18","","<img src=""img/grey-r.png"">","null","trial","null","","0.2,0.8","2:nogo_b","1",""
"null","","html-keyboard-response","276","1062377","0.0-6.0-2.18","","<div style=""font-size:60px;"">+</div>","null","","","","","","",""
"642.5099999178201","","image-keyboard-response","277","1063020","0.0-6.0-0.19","","img/blue.png","32","trial","32","true","0.8,0.2","1:go_a","",""
"null","","html-keyboard-response","278","1064030","0.0-6.0-1.19","","<img src=""img/blue-r.png"" border=""10"">","null","trial","32","","0.8,0.2","1:go_a","1",""
"null","","html-keyboard-response","279","1065044","0.0-6.0-2.19","","<div style=""font-size:60px;"">+</div>","null","","","","","","",""
"null","","image-keyboard-response","280","1066555","0.0-6.0-0.20","","img/red.png","null","trial","32","false","0.6,0.4","3:go_c","",""
"null","","html-keyboard-response","281","1067569","0.0-6.0-1.20","","<img src=""img/red-r.png"">","null","trial","32","","0.6,0.4","3:go_c","1",""
"null","","html-keyboard-response","282","1068585","0.0-6.0-2.20","","<div style=""font-size:60px;"">+</div>","null","","","","","","",""
"976.2450000271201","","image-keyboard-response","283","1069562","0.0-6.0-0.21","","img/blue.png","32","trial","32","true","0.8,0.2","1:go_a","",""
"null","","html-keyboard-response","284","1070570","0.0-6.0-1.21","","<img src=""img/blue-r.png"" border=""10"">","null","trial","32","","0.8,0.2","1:go_a","1",""
"null","","html-keyboard-response","285","1071585","0.0-6.0-2.21","","<div style=""font-size:60px;"">+</div>","null","","","","","","",""
"null","","image-keyboard-response","286","1073096","0.0-6.0-0.22","","img/grey.png","null","trial","null","true","0.2,0.8","2:nogo_b","",""
"null","","html-keyboard-response","287","1074106","0.0-6.0-1.22","","<img src=""img/grey-r.png"">","null","trial","null","","0.2,0.8","2:nogo_b","1",""
"null","","html-keyboard-response","288","1075122","0.0-6.0-2.22","","<div style=""font-size:60px;"">+</div>","null","","","","","","",""
"769.7450001724064","","image-keyboard-response","289","1075893","0.0-6.0-0.23","","img/yellow.png","32","trial","null","false","0.4,0.6","4:nogo_d","",""
"null","","html-keyboard-response","290","1076903","0.0-6.0-1.23","","<img src=""img/yellow-r.png"" border=""10"">","null","trial","null","","0.4,0.6","4:nogo_d","1",""
"null","","html-keyboard-response","291","1077917","0.0-6.0-2.23","","<div style=""font-size:60px;"">+</div>","null","","","","","","",""
"null","","image-keyboard-response","292","1079433","0.0-6.0-0.24","","img/red.png","null","trial","32","false","0.6,0.4","3:go_c","",""
"null","","html-keyboard-response","293","1080448","0.0-6.0-1.24","","<img src=""img/red-n.png"">","null","trial","32","","0.6,0.4","3:go_c","0",""
"null","","html-keyboard-response","294","1081451","0.0-6.0-2.24","","<div style=""font-size:60px;"">+</div>","null","","","","","","",""
"887.7149999607354","","image-keyboard-response","295","1082340","0.0-6.0-0.25","","img/blue.png","32","trial","32","true","0.8,0.2","1:go_a","",""
"null","","html-keyboard-response","296","1083352","0.0-6.0-1.25","","<img src=""img/blue-n.png"" border=""10"">","null","trial","32","","0.8,0.2","1:go_a","0",""
"null","","html-keyboard-response","297","1084368","0.0-6.0-2.25","","<div style=""font-size:60px;"">+</div>","null","","","","","","",""
"null","","image-keyboard-response","298","1085883","0.0-6.0-0.26","","img/grey.png","null","trial","null","true","0.2,0.8","2:nogo_b","",""
"null","","html-keyboard-response","299","1086885","0.0-6.0-1.26","","<img src=""img/grey-r.png"">","null","trial","null","","0.2,0.8","2:nogo_b","1",""
"null","","html-keyboard-response","300","1087902","0.0-6.0-2.26","","<div style=""font-size:60px;"">+</div>","null","","","","","","",""
"811.3799998536706","","image-keyboard-response","301","1088714","0.0-6.0-0.27","","img/yellow.png","32","trial","null","false","0.4,0.6","4:nogo_d","",""
"null","","html-keyboard-response","302","1089722","0.0-6.0-1.27","","<img src=""img/yellow-r.png"" border=""10"">","null","trial","null","","0.4,0.6","4:nogo_d","1",""
"null","","html-keyboard-response","303","1090735","0.0-6.0-2.27","","<div style=""font-size:60px;"">+</div>","null","","","","","","",""
"null","","image-keyboard-response","304","1092248","0.0-6.0-0.28","","img/red.png","null","trial","32","false","0.6,0.4","3:go_c","",""
"null","","html-keyboard-response","305","1093263","0.0-6.0-1.28","","<img src=""img/red-n.png"">","null","trial","32","","0.6,0.4","3:go_c","0",""
"null","","html-keyboard-response","306","1094266","0.0-6.0-2.28","","<div style=""font-size:60px;"">+</div>","null","","","","","","",""
"794.0899999812245","","image-keyboard-response","307","1095062","0.0-6.0-0.29","","img/blue.png","32","trial","32","true","0.8,0.2","1:go_a","",""
"null","","html-keyboard-response","308","1096070","0.0-6.0-1.29","","<img src=""img/blue-r.png"" border=""10"">","null","trial","32","","0.8,0.2","1:go_a","1",""
"null","","html-keyboard-response","309","1097083","0.0-6.0-2.29","","<div style=""font-size:60px;"">+</div>","null","","","","","","",""
"843.3900000527501","","image-keyboard-response","310","1097928","0.0-6.0-0.30","","img/yellow.png","32","trial","null","false","0.4,0.6","4:nogo_d","",""
"null","","html-keyboard-response","311","1098939","0.0-6.0-1.30","","<img src=""img/yellow-n.png"" border=""10"">","null","trial","null","","0.4,0.6","4:nogo_d","0",""
"null","","html-keyboard-response","312","1099956","0.0-6.0-2.30","","<div style=""font-size:60px;"">+</div>","null","","","","","","",""
"null","","image-keyboard-response","313","1101464","0.0-6.0-0.31","","img/grey.png","null","trial","null","true","0.2,0.8","2:nogo_b","",""
"null","","html-keyboard-response","314","1102476","0.0-6.0-1.31","","<img src=""img/grey-r.png"">","null","trial","null","","0.2,0.8","2:nogo_b","1",""
"null","","html-keyboard-response","315","1103489","0.0-6.0-2.31","","<div style=""font-size:60px;"">+</div>","null","","","","","","",""
"1007.420000154525","","image-keyboard-response","316","1104498","0.0-6.0-0.32","","img/yellow.png","32","trial","null","false","0.4,0.6","4:nogo_d","",""
"null","","html-keyboard-response","317","1105504","0.0-6.0-1.32","","<img src=""img/yellow-r.png"" border=""10"">","null","trial","null","","0.4,0.6","4:nogo_d","1",""
"null","","html-keyboard-response","318","1106515","0.0-6.0-2.32","","<div style=""font-size:60px;"">+</div>","null","","","","","","",""
"null","","image-keyboard-response","319","1108023","0.0-6.0-0.33","","img/grey.png","null","trial","null","true","0.2,0.8","2:nogo_b","",""
"null","","html-keyboard-response","320","1109039","0.0-6.0-1.33","","<img src=""img/grey-r.png"">","null","trial","null","","0.2,0.8","2:nogo_b","1",""
"null","","html-keyboard-response","321","1110052","0.0-6.0-2.33","","<div style=""font-size:60px;"">+</div>","null","","","","","","",""
"815.2300000656396","","image-keyboard-response","322","1110869","0.0-6.0-0.34","","img/blue.png","32","trial","32","true","0.8,0.2","1:go_a","",""
"null","","html-keyboard-response","323","1111875","0.0-6.0-1.34","","<img src=""img/blue-r.png"" border=""10"">","null","trial","32","","0.8,0.2","1:go_a","1",""
"null","","html-keyboard-response","324","1112886","0.0-6.0-2.34","","<div style=""font-size:60px;"">+</div>","null","","","","","","",""
"null","","image-keyboard-response","325","1114395","0.0-6.0-0.35","","img/red.png","null","trial","32","false","0.6,0.4","3:go_c","",""
"null","","html-keyboard-response","326","1115407","0.0-6.0-1.35","","<img src=""img/red-r.png"">","null","trial","32","","0.6,0.4","3:go_c","1",""
"null","","html-keyboard-response","327","1116417","0.0-6.0-2.35","","<div style=""font-size:60px;"">+</div>","null","","","","","","",""
"773.7499999348074","","image-keyboard-response","328","1117192","0.0-6.0-0.36","","img/yellow.png","32","trial","null","false","0.4,0.6","4:nogo_d","",""
"null","","html-keyboard-response","329","1118204","0.0-6.0-1.36","","<img src=""img/yellow-r.png"" border=""10"">","null","trial","null","","0.4,0.6","4:nogo_d","1",""
"null","","html-keyboard-response","330","1119217","0.0-6.0-2.36","","<div style=""font-size:60px;"">+</div>","null","","","","","","",""
"null","","image-keyboard-response","331","1120724","0.0-6.0-0.37","","img/red.png","null","trial","32","false","0.6,0.4","3:go_c","",""
"null","","html-keyboard-response","332","1121727","0.0-6.0-1.37","","<img src=""img/red-n.png"">","null","trial","32","","0.6,0.4","3:go_c","0",""
"null","","html-keyboard-response","333","1122742","0.0-6.0-2.37","","<div style=""font-size:60px;"">+</div>","null","","","","","","",""
"null","","image-keyboard-response","334","1124250","0.0-6.0-0.38","","img/grey.png","null","trial","null","true","0.2,0.8","2:nogo_b","",""
"null","","html-keyboard-response","335","1125264","0.0-6.0-1.38","","<img src=""img/grey-r.png"">","null","trial","null","","0.2,0.8","2:nogo_b","1",""
"null","","html-keyboard-response","336","1126279","0.0-6.0-2.38","","<div style=""font-size:60px;"">+</div>","null","","","","","","",""
"639.9049998726696","","image-keyboard-response","337","1126923","0.0-6.0-0.39","","img/blue.png","32","trial","32","true","0.8,0.2","1:go_a","",""
"null","","html-keyboard-response","338","1127933","0.0-6.0-1.39","","<img src=""img/blue-r.png"" border=""10"">","null","trial","32","","0.8,0.2","1:go_a","1",""
"null","","html-keyboard-response","339","1128946","0.0-6.0-2.39","","<div style=""font-size:60px;"">+</div>","null","","","","","","",""
"null","","image-keyboard-response","340","1130457","0.0-6.0-0.40","","img/grey.png","null","trial","null","true","0.2,0.8","2:nogo_b","",""
"null","","html-keyboard-response","341","1131470","0.0-6.0-1.40","","<img src=""img/grey-n.png"">","null","trial","null","","0.2,0.8","2:nogo_b","0",""
"null","","html-keyboard-response","342","1132483","0.0-6.0-2.40","","<div style=""font-size:60px;"">+</div>","null","","","","","","",""
"877.3000000510365","","image-keyboard-response","343","1133362","0.0-6.0-0.41","","img/yellow.png","32","trial","null","false","0.4,0.6","4:nogo_d","",""
"null","","html-keyboard-response","344","1134368","0.0-6.0-1.41","","<img src=""img/yellow-n.png"" border=""10"">","null","trial","null","","0.4,0.6","4:nogo_d","0",""
"null","","html-keyboard-response","345","1135379","0.0-6.0-2.41","","<div style=""font-size:60px;"">+</div>","null","","","","","","",""
"null","","image-keyboard-response","346","1136887","0.0-6.0-0.42","","img/red.png","null","trial","32","false","0.6,0.4","3:go_c","",""
"null","","html-keyboard-response","347","1137902","0.0-6.0-1.42","","<img src=""img/red-n.png"">","null","trial","32","","0.6,0.4","3:go_c","0",""
"null","","html-keyboard-response","348","1138914","0.0-6.0-2.42","","<div style=""font-size:60px;"">+</div>","null","","","","","","",""
"622.1449999138713","","image-keyboard-response","349","1139537","0.0-6.0-0.43","","img/blue.png","32","trial","32","true","0.8,0.2","1:go_a","",""
"null","","html-keyboard-response","350","1140546","0.0-6.0-1.43","","<img src=""img/blue-r.png"" border=""10"">","null","trial","32","","0.8,0.2","1:go_a","1",""
"null","","html-keyboard-response","351","1141562","0.0-6.0-2.43","","<div style=""font-size:60px;"">+</div>","null","","","","","","",""
"null","","image-keyboard-response","352","1143073","0.0-6.0-0.44","","img/red.png","null","trial","32","false","0.6,0.4","3:go_c","",""
"null","","html-keyboard-response","353","1144086","0.0-6.0-1.44","","<img src=""img/red-n.png"">","null","trial","32","","0.6,0.4","3:go_c","0",""
"null","","html-keyboard-response","354","1145098","0.0-6.0-2.44","","<div style=""font-size:60px;"">+</div>","null","","","","","","",""
"null","","image-keyboard-response","355","1146602","0.0-6.0-0.45","","img/grey.png","null","trial","null","true","0.2,0.8","2:nogo_b","",""
"null","","html-keyboard-response","356","1147616","0.0-6.0-1.45","","<img src=""img/grey-r.png"">","null","trial","null","","0.2,0.8","2:nogo_b","1",""
"null","","html-keyboard-response","357","1148628","0.0-6.0-2.45","","<div style=""font-size:60px;"">+</div>","null","","","","","","",""
"800.1099999528378","","image-keyboard-response","358","1149429","0.0-6.0-0.46","","img/blue.png","32","trial","32","true","0.8,0.2","1:go_a","",""
"null","","html-keyboard-response","359","1150437","0.0-6.0-1.46","","<img src=""img/blue-r.png"" border=""10"">","null","trial","32","","0.8,0.2","1:go_a","1",""
"null","","html-keyboard-response","360","1151453","0.0-6.0-2.46","","<div style=""font-size:60px;"">+</div>","null","","","","","","",""
"813.5649999603629","","image-keyboard-response","361","1152267","0.0-6.0-0.47","","img/yellow.png","32","trial","null","false","0.4,0.6","4:nogo_d","",""
"null","","html-keyboard-response","362","1153281","0.0-6.0-1.47","","<img src=""img/yellow-r.png"" border=""10"">","null","trial","null","","0.4,0.6","4:nogo_d","1",""
"null","","html-keyboard-response","363","1154297","0.0-6.0-2.47","","<div style=""font-size:60px;"">+</div>","null","","","","","","",""
"1345.1849999837577","","image-keyboard-response","364","1155643","0.0-6.0-0.48","","img/blue.png","32","trial","32","true","0.8,0.2","1:go_a","",""
"null","","html-keyboard-response","365","1156660","0.0-6.0-1.48","","<img src=""img/blue-r.png"" border=""10"">","null","trial","32","","0.8,0.2","1:go_a","1",""
"null","","html-keyboard-response","366","1157670","0.0-6.0-2.48","","<div style=""font-size:60px;"">+</div>","null","","","","","","",""
"null","","image-keyboard-response","367","1159179","0.0-6.0-0.49","","img/red.png","null","trial","32","false","0.6,0.4","3:go_c","",""
"null","","html-keyboard-response","368","1160198","0.0-6.0-1.49","","<img src=""img/red-n.png"">","null","trial","32","","0.6,0.4","3:go_c","0",""
"null","","html-keyboard-response","369","1161205","0.0-6.0-2.49","","<div style=""font-size:60px;"">+</div>","null","","","","","","",""
"1277.3800001014024","","image-keyboard-response","370","1162484","0.0-6.0-0.50","","img/yellow.png","32","trial","null","false","0.4,0.6","4:nogo_d","",""
"null","","html-keyboard-response","371","1163496","0.0-6.0-1.50","","<img src=""img/yellow-r.png"" border=""10"">","null","trial","null","","0.4,0.6","4:nogo_d","1",""
"null","","html-keyboard-response","372","1164506","0.0-6.0-2.50","","<div style=""font-size:60px;"">+</div>","null","","","","","","",""
"null","","image-keyboard-response","373","1166018","0.0-6.0-0.51","","img/grey.png","null","trial","null","true","0.2,0.8","2:nogo_b","",""
"null","","html-keyboard-response","374","1167033","0.0-6.0-1.51","","<img src=""img/grey-r.png"">","null","trial","null","","0.2,0.8","2:nogo_b","1",""
"null","","html-keyboard-response","375","1168045","0.0-6.0-2.51","","<div style=""font-size:60px;"">+</div>","null","","","","","","",""
"1057.7149998862296","","image-keyboard-response","376","1169106","0.0-6.0-0.52","","img/yellow.png","32","trial","null","false","0.4,0.6","4:nogo_d","",""
"null","","html-keyboard-response","377","1170115","0.0-6.0-1.52","","<img src=""img/yellow-n.png"" border=""10"">","null","trial","null","","0.4,0.6","4:nogo_d","0",""
"null","","html-keyboard-response","378","1171130","0.0-6.0-2.52","","<div style=""font-size:60px;"">+</div>","null","","","","","","",""
"777.7899999637157","","image-keyboard-response","379","1171909","0.0-6.0-0.53","","img/blue.png","32","trial","32","true","0.8,0.2","1:go_a","",""
"null","","html-keyboard-response","380","1172919","0.0-6.0-1.53","","<img src=""img/blue-n.png"" border=""10"">","null","trial","32","","0.8,0.2","1:go_a","0",""
"null","","html-keyboard-response","381","1173928","0.0-6.0-2.53","","<div style=""font-size:60px;"">+</div>","null","","","","","","",""
"null","","image-keyboard-response","382","1175442","0.0-6.0-0.54","","img/red.png","null","trial","32","false","0.6,0.4","3:go_c","",""
"null","","html-keyboard-response","383","1176454","0.0-6.0-1.54","","<img src=""img/red-r.png"">","null","trial","32","","0.6,0.4","3:go_c","1",""
"null","","html-keyboard-response","384","1177455","0.0-6.0-2.54","","<div style=""font-size:60px;"">+</div>","null","","","","","","",""
"1154.4799997936934","","image-keyboard-response","385","1178611","0.0-6.0-0.55","","img/grey.png","32","trial","null","false","0.2,0.8","2:nogo_b","",""
"null","","html-keyboard-response","386","1179618","0.0-6.0-1.55","","<img src=""img/grey-n.png"" border=""10"">","null","trial","null","","0.2,0.8","2:nogo_b","0",""
"null","","html-keyboard-response","387","1180634","0.0-6.0-2.55","","<div style=""font-size:60px;"">+</div>","null","","","","","","",""
"780.1200000103563","","image-keyboard-response","388","1181416","0.0-6.0-0.56","","img/yellow.png","32","trial","null","false","0.4,0.6","4:nogo_d","",""
"null","","html-keyboard-response","389","1182423","0.0-6.0-1.56","","<img src=""img/yellow-n.png"" border=""10"">","null","trial","null","","0.4,0.6","4:nogo_d","0",""
"null","","html-keyboard-response","390","1183437","0.0-6.0-2.56","","<div style=""font-size:60px;"">+</div>","null","","","","","","",""
"null","","image-keyboard-response","391","1184950","0.0-6.0-0.57","","img/red.png","null","trial","32","false","0.6,0.4","3:go_c","",""
"null","","html-keyboard-response","392","1185960","0.0-6.0-1.57","","<img src=""img/red-r.png"">","null","trial","32","","0.6,0.4","3:go_c","1",""
"null","","html-keyboard-response","393","1186974","0.0-6.0-2.57","","<div style=""font-size:60px;"">+</div>","null","","","","","","",""
"null","","image-keyboard-response","394","1188483","0.0-6.0-0.58","","img/grey.png","null","trial","null","true","0.2,0.8","2:nogo_b","",""
"null","","html-keyboard-response","395","1189493","0.0-6.0-1.58","","<img src=""img/grey-n.png"">","null","trial","null","","0.2,0.8","2:nogo_b","0",""
"null","","html-keyboard-response","396","1190507","0.0-6.0-2.58","","<div style=""font-size:60px;"">+</div>","null","","","","","","",""
"672.5149999838322","","image-keyboard-response","397","1191181","0.0-6.0-0.59","","img/blue.png","32","trial","32","true","0.8,0.2","1:go_a","",""
"null","","html-keyboard-response","398","1192193","0.0-6.0-1.59","","<img src=""img/blue-r.png"" border=""10"">","null","trial","32","","0.8,0.2","1:go_a","1",""
"null","","html-keyboard-response","399","1193227","0.0-6.0-2.59","","<div style=""font-size:60px;"">+</div>","null","","","","","","",""
"null","","image-keyboard-response","400","1194736","0.0-6.0-0.60","","img/red.png","null","trial","32","false","0.6,0.4","3:go_c","",""
"null","","html-keyboard-response","401","1195752","0.0-6.0-1.60","","<img src=""img/red-r.png"">","null","trial","32","","0.6,0.4","3:go_c","1",""
"null","","html-keyboard-response","402","1196764","0.0-6.0-2.60","","<div style=""font-size:60px;"">+</div>","null","","","","","","",""
"null","","image-keyboard-response","403","1198266","0.0-6.0-0.61","","img/grey.png","null","trial","null","true","0.2,0.8","2:nogo_b","",""
"null","","html-keyboard-response","404","1199278","0.0-6.0-1.61","","<img src=""img/grey-r.png"">","null","trial","null","","0.2,0.8","2:nogo_b","1",""
"null","","html-keyboard-response","405","1200292","0.0-6.0-2.61","","<div style=""font-size:60px;"">+</div>","null","","","","","","",""
"936.4049998112023","","image-keyboard-response","406","1201230","0.0-6.0-0.62","","img/yellow.png","32","trial","null","false","0.4,0.6","4:nogo_d","",""
"null","","html-keyboard-response","407","1202240","0.0-6.0-1.62","","<img src=""img/yellow-r.png"" border=""10"">","null","trial","null","","0.4,0.6","4:nogo_d","1",""
"null","","html-keyboard-response","408","1203244","0.0-6.0-2.62","","<div style=""font-size:60px;"">+</div>","null","","","","","","",""
"925.8400001563132","","image-keyboard-response","409","1204171","0.0-6.0-0.63","","img/blue.png","32","trial","32","true","0.8,0.2","1:go_a","",""
"null","","html-keyboard-response","410","1205189","0.0-6.0-1.63","","<img src=""img/blue-r.png"" border=""10"">","null","trial","32","","0.8,0.2","1:go_a","1",""
"null","","html-keyboard-response","411","1206202","0.0-6.0-2.63","","<div style=""font-size:60px;"">+</div>","null","","","","","","",""
"875.0449998769909","","image-keyboard-response","412","1207078","0.0-6.0-0.64","","img/blue.png","32","trial","32","true","0.8,0.2","1:go_a","",""
"null","","html-keyboard-response","413","1208090","0.0-6.0-1.64","","<img src=""img/blue-r.png"" border=""10"">","null","trial","32","","0.8,0.2","1:go_a","1",""
"null","","html-keyboard-response","414","1209105","0.0-6.0-2.64","","<div style=""font-size:60px;"">+</div>","null","","","","","","",""
"null","","image-keyboard-response","415","1210616","0.0-6.0-0.65","","img/red.png","null","trial","32","false","0.6,0.4","3:go_c","",""
"null","","html-keyboard-response","416","1211631","0.0-6.0-1.65","","<img src=""img/red-r.png"">","null","trial","32","","0.6,0.4","3:go_c","1",""
"null","","html-keyboard-response","417","1212645","0.0-6.0-2.65","","<div style=""font-size:60px;"">+</div>","null","","","","","","",""
"797.6749998051673","","image-keyboard-response","418","1213444","0.0-6.0-0.66","","img/yellow.png","32","trial","null","false","0.4,0.6","4:nogo_d","",""
"null","","html-keyboard-response","419","1214452","0.0-6.0-1.66","","<img src=""img/yellow-n.png"" border=""10"">","null","trial","null","","0.4,0.6","4:nogo_d","0",""
"null","","html-keyboard-response","420","1215462","0.0-6.0-2.66","","<div style=""font-size:60px;"">+</div>","null","","","","","","",""
"null","","image-keyboard-response","421","1216973","0.0-6.0-0.67","","img/grey.png","null","trial","null","true","0.2,0.8","2:nogo_b","",""
"null","","html-keyboard-response","422","1217987","0.0-6.0-1.67","","<img src=""img/grey-n.png"">","null","trial","null","","0.2,0.8","2:nogo_b","0",""
"null","","html-keyboard-response","423","1218998","0.0-6.0-2.67","","<div style=""font-size:60px;"">+</div>","null","","","","","","",""
"null","","image-keyboard-response","424","1220508","0.0-6.0-0.68","","img/yellow.png","null","trial","null","true","0.4,0.6","4:nogo_d","",""
"null","","html-keyboard-response","425","1221523","0.0-6.0-1.68","","<img src=""img/yellow-r.png"">","null","trial","null","","0.4,0.6","4:nogo_d","1",""
"null","","html-keyboard-response","426","1222538","0.0-6.0-2.68","","<div style=""font-size:60px;"">+</div>","null","","","","","","",""
"null","","image-keyboard-response","427","1224039","0.0-6.0-0.69","","img/grey.png","null","trial","null","true","0.2,0.8","2:nogo_b","",""
"null","","html-keyboard-response","428","1225051","0.0-6.0-1.69","","<img src=""img/grey-r.png"">","null","trial","null","","0.2,0.8","2:nogo_b","1",""
"null","","html-keyboard-response","429","1226052","0.0-6.0-2.69","","<div style=""font-size:60px;"">+</div>","null","","","","","","",""
"null","","image-keyboard-response","430","1227565","0.0-6.0-0.70","","img/red.png","null","trial","32","false","0.6,0.4","3:go_c","",""
"null","","html-keyboard-response","431","1228579","0.0-6.0-1.70","","<img src=""img/red-r.png"">","null","trial","32","","0.6,0.4","3:go_c","1",""
"null","","html-keyboard-response","432","1229592","0.0-6.0-2.70","","<div style=""font-size:60px;"">+</div>","null","","","","","","",""
"794.1600000485778","","image-keyboard-response","433","1230388","0.0-6.0-0.71","","img/blue.png","32","trial","32","true","0.8,0.2","1:go_a","",""
"null","","html-keyboard-response","434","1231399","0.0-6.0-1.71","","<img src=""img/blue-r.png"" border=""10"">","null","trial","32","","0.8,0.2","1:go_a","1",""
"null","","html-keyboard-response","435","1232411","0.0-6.0-2.71","","<div style=""font-size:60px;"">+</div>","null","","","","","","",""
"null","","image-keyboard-response","436","1233928","0.0-6.0-0.72","","img/red.png","null","trial","32","false","0.6,0.4","3:go_c","",""
"null","","html-keyboard-response","437","1234930","0.0-6.0-1.72","","<img src=""img/red-n.png"">","null","trial","32","","0.6,0.4","3:go_c","0",""
"null","","html-keyboard-response","438","1235939","0.0-6.0-2.72","","<div style=""font-size:60px;"">+</div>","null","","","","","","",""
"950.3199998289347","","image-keyboard-response","439","1236890","0.0-6.0-0.73","","img/blue.png","32","trial","32","true","0.8,0.2","1:go_a","",""
"null","","html-keyboard-response","440","1237899","0.0-6.0-1.73","","<img src=""img/blue-r.png"" border=""10"">","null","trial","32","","0.8,0.2","1:go_a","1",""
"null","","html-keyboard-response","441","1238912","0.0-6.0-2.73","","<div style=""font-size:60px;"">+</div>","null","","","","","","",""
"null","","image-keyboard-response","442","1240423","0.0-6.0-0.74","","img/grey.png","null","trial","null","true","0.2,0.8","2:nogo_b","",""
"null","","html-keyboard-response","443","1241440","0.0-6.0-1.74","","<img src=""img/grey-n.png"">","null","trial","null","","0.2,0.8","2:nogo_b","0",""
"null","","html-keyboard-response","444","1242454","0.0-6.0-2.74","","<div style=""font-size:60px;"">+</div>","null","","","","","","",""
"870.725000044331","","image-keyboard-response","445","1243326","0.0-6.0-0.75","","img/yellow.png","32","trial","null","false","0.4,0.6","4:nogo_d","",""
"null","","html-keyboard-response","446","1244339","0.0-6.0-1.75","","<img src=""img/yellow-n.png"" border=""10"">","null","trial","null","","0.4,0.6","4:nogo_d","0",""
"null","","html-keyboard-response","447","1245345","0.0-6.0-2.75","","<div style=""font-size:60px;"">+</div>","null","","","","","","",""
"919.8200001846999","","image-keyboard-response","448","1246266","0.0-6.0-0.76","","img/yellow.png","32","trial","null","false","0.4,0.6","4:nogo_d","",""
"null","","html-keyboard-response","449","1247278","0.0-6.0-1.76","","<img src=""img/yellow-n.png"" border=""10"">","null","trial","null","","0.4,0.6","4:nogo_d","0",""
"null","","html-keyboard-response","450","1248292","0.0-6.0-2.76","","<div style=""font-size:60px;"">+</div>","null","","","","","","",""
"null","","image-keyboard-response","451","1249805","0.0-6.0-0.77","","img/red.png","null","trial","32","false","0.6,0.4","3:go_c","",""
"null","","html-keyboard-response","452","1250817","0.0-6.0-1.77","","<img src=""img/red-r.png"">","null","trial","32","","0.6,0.4","3:go_c","1",""
"null","","html-keyboard-response","453","1251834","0.0-6.0-2.77","","<div style=""font-size:60px;"">+</div>","null","","","","","","",""
"null","","image-keyboard-response","454","1253342","0.0-6.0-0.78","","img/grey.png","null","trial","null","true","0.2,0.8","2:nogo_b","",""
"null","","html-keyboard-response","455","1254353","0.0-6.0-1.78","","<img src=""img/grey-r.png"">","null","trial","null","","0.2,0.8","2:nogo_b","1",""
"null","","html-keyboard-response","456","1255364","0.0-6.0-2.78","","<div style=""font-size:60px;"">+</div>","null","","","","","","",""
"968.8099999912083","","image-keyboard-response","457","1256334","0.0-6.0-0.79","","img/blue.png","32","trial","32","true","0.8,0.2","1:go_a","",""
"null","","html-keyboard-response","458","1257345","0.0-6.0-1.79","","<img src=""img/blue-r.png"" border=""10"">","null","trial","32","","0.8,0.2","1:go_a","1",""
"null","","html-keyboard-response","459","1258360","0.0-6.0-2.79","","<div style=""font-size:60px;"">+</div>","null","","","","","","",""
"858.7600002065301","","image-keyboard-response","460","1259220","0.0-6.0-0.80","","img/blue.png","32","trial","32","true","0.8,0.2","1:go_a","",""
"null","","html-keyboard-response","461","1260234","0.0-6.0-1.80","","<img src=""img/blue-r.png"" border=""10"">","null","trial","32","","0.8,0.2","1:go_a","1",""
"null","","html-keyboard-response","462","1261249","0.0-6.0-2.80","","<div style=""font-size:60px;"">+</div>","null","","","","","","",""
"732.0449999533594","","image-keyboard-response","463","1261982","0.0-6.0-0.81","","img/yellow.png","32","trial","null","false","0.4,0.6","4:nogo_d","",""
"null","","html-keyboard-response","464","1262993","0.0-6.0-1.81","","<img src=""img/yellow-n.png"" border=""10"">","null","trial","null","","0.4,0.6","4:nogo_d","0",""
"null","","html-keyboard-response","465","1264009","0.0-6.0-2.81","","<div style=""font-size:60px;"">+</div>","null","","","","","","",""
"null","","image-keyboard-response","466","1265520","0.0-6.0-0.82","","img/grey.png","null","trial","null","true","0.2,0.8","2:nogo_b","",""
"null","","html-keyboard-response","467","1266534","0.0-6.0-1.82","","<img src=""img/grey-n.png"">","null","trial","null","","0.2,0.8","2:nogo_b","0",""
"null","","html-keyboard-response","468","1267546","0.0-6.0-2.82","","<div style=""font-size:60px;"">+</div>","null","","","","","","",""
"null","","image-keyboard-response","469","1269056","0.0-6.0-0.83","","img/red.png","null","trial","32","false","0.6,0.4","3:go_c","",""
"null","","html-keyboard-response","470","1270071","0.0-6.0-1.83","","<img src=""img/red-n.png"">","null","trial","32","","0.6,0.4","3:go_c","0",""
"null","","html-keyboard-response","471","1271084","0.0-6.0-2.83","","<div style=""font-size:60px;"">+</div>","null","","","","","","",""
"null","","image-keyboard-response","472","1272590","0.0-6.0-0.84","","img/grey.png","null","trial","null","true","0.2,0.8","2:nogo_b","",""
"null","","html-keyboard-response","473","1273602","0.0-6.0-1.84","","<img src=""img/grey-n.png"">","null","trial","null","","0.2,0.8","2:nogo_b","0",""
"null","","html-keyboard-response","474","1274615","0.0-6.0-2.84","","<div style=""font-size:60px;"">+</div>","null","","","","","","",""
"826.0249998420477","","image-keyboard-response","475","1275442","0.0-6.0-0.85","","img/yellow.png","32","trial","null","false","0.4,0.6","4:nogo_d","",""
"null","","html-keyboard-response","476","1276451","0.0-6.0-1.85","","<img src=""img/yellow-r.png"" border=""10"">","null","trial","null","","0.4,0.6","4:nogo_d","1",""
"null","","html-keyboard-response","477","1277467","0.0-6.0-2.85","","<div style=""font-size:60px;"">+</div>","null","","","","","","",""
"null","","image-keyboard-response","478","1278978","0.0-6.0-0.86","","img/red.png","null","trial","32","false","0.6,0.4","3:go_c","",""
"null","","html-keyboard-response","479","1279990","0.0-6.0-1.86","","<img src=""img/red-n.png"">","null","trial","32","","0.6,0.4","3:go_c","0",""
"null","","html-keyboard-response","480","1281004","0.0-6.0-2.86","","<div style=""font-size:60px;"">+</div>","null","","","","","","",""
"748.3500000089407","","image-keyboard-response","481","1281754","0.0-6.0-0.87","","img/blue.png","32","trial","32","true","0.8,0.2","1:go_a","",""
"null","","html-keyboard-response","482","1282765","0.0-6.0-1.87","","<img src=""img/blue-r.png"" border=""10"">","null","trial","32","","0.8,0.2","1:go_a","1",""
"null","","html-keyboard-response","483","1283775","0.0-6.0-2.87","","<div style=""font-size:60px;"">+</div>","null","","","","","","",""
"null","","image-keyboard-response","484","1285288","0.0-6.0-0.88","","img/red.png","null","trial","32","false","0.6,0.4","3:go_c","",""
"null","","html-keyboard-response","485","1286298","0.0-6.0-1.88","","<img src=""img/red-n.png"">","null","trial","32","","0.6,0.4","3:go_c","0",""
"null","","html-keyboard-response","486","1287312","0.0-6.0-2.88","","<div style=""font-size:60px;"">+</div>","null","","","","","","",""
"952.0749999210238","","image-keyboard-response","487","1288265","0.0-6.0-0.89","","img/yellow.png","32","trial","null","false","0.4,0.6","4:nogo_d","",""
"null","","html-keyboard-response","488","1289271","0.0-6.0-1.89","","<img src=""img/yellow-r.png"" border=""10"">","null","trial","null","","0.4,0.6","4:nogo_d","1",""
"null","","html-keyboard-response","489","1290285","0.0-6.0-2.89","","<div style=""font-size:60px;"">+</div>","null","","","","","","",""
"null","","image-keyboard-response","490","1291799","0.0-6.0-0.90","","img/grey.png","null","trial","null","true","0.2,0.8","2:nogo_b","",""
"null","","html-keyboard-response","491","1292809","0.0-6.0-1.90","","<img src=""img/grey-r.png"">","null","trial","null","","0.2,0.8","2:nogo_b","1",""
"null","","html-keyboard-response","492","1293821","0.0-6.0-2.90","","<div style=""font-size:60px;"">+</div>","null","","","","","","",""
"843.4699999634176","","image-keyboard-response","493","1294666","0.0-6.0-0.91","","img/blue.png","32","trial","32","true","0.8,0.2","1:go_a","",""
"null","","html-keyboard-response","494","1295678","0.0-6.0-1.91","","<img src=""img/blue-n.png"" border=""10"">","null","trial","32","","0.8,0.2","1:go_a","0",""
"null","","html-keyboard-response","495","1296688","0.0-6.0-2.91","","<div style=""font-size:60px;"">+</div>","null","","","","","","",""
"935.6450000777841","","image-keyboard-response","496","1297625","0.0-6.0-0.92","","img/yellow.png","32","trial","null","false","0.4,0.6","4:nogo_d","",""
"null","","html-keyboard-response","497","1298631","0.0-6.0-1.92","","<img src=""img/yellow-n.png"" border=""10"">","null","trial","null","","0.4,0.6","4:nogo_d","0",""
"null","","html-keyboard-response","498","1299641","0.0-6.0-2.92","","<div style=""font-size:60px;"">+</div>","null","","","","","","",""
"null","","image-keyboard-response","499","1301144","0.0-6.0-0.93","","img/grey.png","null","trial","null","true","0.2,0.8","2:nogo_b","",""
"null","","html-keyboard-response","500","1302159","0.0-6.0-1.93","","<img src=""img/grey-r.png"">","null","trial","null","","0.2,0.8","2:nogo_b","1",""
"null","","html-keyboard-response","501","1303174","0.0-6.0-2.93","","<div style=""font-size:60px;"">+</div>","null","","","","","","",""
"null","","image-keyboard-response","502","1304687","0.0-6.0-0.94","","img/red.png","null","trial","32","false","0.6,0.4","3:go_c","",""
"null","","html-keyboard-response","503","1305690","0.0-6.0-1.94","","<img src=""img/red-n.png"">","null","trial","32","","0.6,0.4","3:go_c","0",""
"null","","html-keyboard-response","504","1306705","0.0-6.0-2.94","","<div style=""font-size:60px;"">+</div>","null","","","","","","",""
"799.4350001681596","","image-keyboard-response","505","1307505","0.0-6.0-0.95","","img/blue.png","32","trial","32","true","0.8,0.2","1:go_a","",""
"null","","html-keyboard-response","506","1308518","0.0-6.0-1.95","","<img src=""img/blue-r.png"" border=""10"">","null","trial","32","","0.8,0.2","1:go_a","1",""
"null","","html-keyboard-response","507","1309530","0.0-6.0-2.95","","<div style=""font-size:60px;"">+</div>","null","","","","","","",""
"1230.0249999389052","","image-keyboard-response","508","1310762","0.0-6.0-0.96","","img/yellow.png","32","trial","null","false","0.4,0.6","4:nogo_d","",""
"null","","html-keyboard-response","509","1311775","0.0-6.0-1.96","","<img src=""img/yellow-r.png"" border=""10"">","null","trial","null","","0.4,0.6","4:nogo_d","1",""
"null","","html-keyboard-response","510","1312790","0.0-6.0-2.96","","<div style=""font-size:60px;"">+</div>","null","","","","","","",""
"846.5849999338388","","image-keyboard-response","511","1313638","0.0-6.0-0.97","","img/blue.png","32","trial","32","true","0.8,0.2","1:go_a","",""
"null","","html-keyboard-response","512","1314650","0.0-6.0-1.97","","<img src=""img/blue-r.png"" border=""10"">","null","trial","32","","0.8,0.2","1:go_a","1",""
"null","","html-keyboard-response","513","1315652","0.0-6.0-2.97","","<div style=""font-size:60px;"">+</div>","null","","","","","","",""
"null","","image-keyboard-response","514","1317160","0.0-6.0-0.98","","img/red.png","null","trial","32","false","0.6,0.4","3:go_c","",""
"null","","html-keyboard-response","515","1318202","0.0-6.0-1.98","","<img src=""img/red-n.png"">","null","trial","32","","0.6,0.4","3:go_c","0",""
"null","","html-keyboard-response","516","1319206","0.0-6.0-2.98","","<div style=""font-size:60px;"">+</div>","null","","","","","","",""
"null","","image-keyboard-response","517","1320722","0.0-6.0-0.99","","img/grey.png","null","trial","null","true","0.2,0.8","2:nogo_b","",""
"null","","html-keyboard-response","518","1321740","0.0-6.0-1.99","","<img src=""img/grey-r.png"">","null","trial","null","","0.2,0.8","2:nogo_b","1",""
"null","","html-keyboard-response","519","1322751","0.0-6.0-2.99","","<div style=""font-size:60px;"">+</div>","null","","","","","","",""
"null","","image-keyboard-response","520","1324256","0.0-6.0-0.100","","img/grey.png","null","trial","null","true","0.2,0.8","2:nogo_b","",""
"null","","html-keyboard-response","521","1325273","0.0-6.0-1.100","","<img src=""img/grey-r.png"">","null","trial","null","","0.2,0.8","2:nogo_b","1",""
"null","","html-keyboard-response","522","1326285","0.0-6.0-2.100","","<div style=""font-size:60px;"">+</div>","null","","","","","","",""
"null","","image-keyboard-response","523","1327794","0.0-6.0-0.101","","img/red.png","null","trial","32","false","0.6,0.4","3:go_c","",""
"null","","html-keyboard-response","524","1328812","0.0-6.0-1.101","","<img src=""img/red-r.png"">","null","trial","32","","0.6,0.4","3:go_c","1",""
"null","","html-keyboard-response","525","1329820","0.0-6.0-2.101","","<div style=""font-size:60px;"">+</div>","null","","","","","","",""
"910.219999961555","","image-keyboard-response","526","1330732","0.0-6.0-0.102","","img/yellow.png","32","trial","null","false","0.4,0.6","4:nogo_d","",""
"null","","html-keyboard-response","527","1331739","0.0-6.0-1.102","","<img src=""img/yellow-n.png"" border=""10"">","null","trial","null","","0.4,0.6","4:nogo_d","0",""
"null","","html-keyboard-response","528","1332746","0.0-6.0-2.102","","<div style=""font-size:60px;"">+</div>","null","","","","","","",""
"859.8299999721348","","image-keyboard-response","529","1333607","0.0-6.0-0.103","","img/blue.png","32","trial","32","true","0.8,0.2","1:go_a","",""
"null","","html-keyboard-response","530","1334617","0.0-6.0-1.103","","<img src=""img/blue-r.png"" border=""10"">","null","trial","32","","0.8,0.2","1:go_a","1",""
"null","","html-keyboard-response","531","1335632","0.0-6.0-2.103","","<div style=""font-size:60px;"">+</div>","null","","","","","","",""
"1163.6150002013892","","image-keyboard-response","532","1336797","0.0-6.0-0.104","","img/blue.png","32","trial","32","true","0.8,0.2","1:go_a","",""
"null","","html-keyboard-response","533","1337799","0.0-6.0-1.104","","<img src=""img/blue-r.png"" border=""10"">","null","trial","32","","0.8,0.2","1:go_a","1",""
"null","","html-keyboard-response","534","1338807","0.0-6.0-2.104","","<div style=""font-size:60px;"">+</div>","null","","","","","","",""
"null","","image-keyboard-response","535","1340310","0.0-6.0-0.105","","img/red.png","null","trial","32","false","0.6,0.4","3:go_c","",""
"null","","html-keyboard-response","536","1341322","0.0-6.0-1.105","","<img src=""img/red-n.png"">","null","trial","32","","0.6,0.4","3:go_c","0",""
"null","","html-keyboard-response","537","1342337","0.0-6.0-2.105","","<div style=""font-size:60px;"">+</div>","null","","","","","","",""
"null","","image-keyboard-response","538","1343850","0.0-6.0-0.106","","img/grey.png","null","trial","null","true","0.2,0.8","2:nogo_b","",""
"null","","html-keyboard-response","539","1344864","0.0-6.0-1.106","","<img src=""img/grey-r.png"">","null","trial","null","","0.2,0.8","2:nogo_b","1",""
"null","","html-keyboard-response","540","1345877","0.0-6.0-2.106","","<div style=""font-size:60px;"">+</div>","null","","","","","","",""
"875.9149999823421","","image-keyboard-response","541","1346753","0.0-6.0-0.107","","img/yellow.png","32","trial","null","false","0.4,0.6","4:nogo_d","",""
"null","","html-keyboard-response","542","1347768","0.0-6.0-1.107","","<img src=""img/yellow-n.png"" border=""10"">","null","trial","null","","0.4,0.6","4:nogo_d","0",""
"null","","html-keyboard-response","543","1348770","0.0-6.0-2.107","","<div style=""font-size:60px;"">+</div>","null","","","","","","",""
"794.8300000280142","","image-keyboard-response","544","1349565","0.0-6.0-0.108","","img/blue.png","32","trial","32","true","0.8,0.2","1:go_a","",""
"null","","html-keyboard-response","545","1350573","0.0-6.0-1.108","","<img src=""img/blue-r.png"" border=""10"">","null","trial","32","","0.8,0.2","1:go_a","1",""
"null","","html-keyboard-response","546","1351584","0.0-6.0-2.108","","<div style=""font-size:60px;"">+</div>","null","","","","","","",""
"1046.5500000864267","","image-keyboard-response","547","1352631","0.0-6.0-0.109","","img/yellow.png","32","trial","null","false","0.4,0.6","4:nogo_d","",""
"null","","html-keyboard-response","548","1353647","0.0-6.0-1.109","","<img src=""img/yellow-n.png"" border=""10"">","null","trial","null","","0.4,0.6","4:nogo_d","0",""
"null","","html-keyboard-response","549","1354663","0.0-6.0-2.109","","<div style=""font-size:60px;"">+</div>","null","","","","","","",""
"null","","image-keyboard-response","550","1356174","0.0-6.0-0.110","","img/grey.png","null","trial","null","true","0.2,0.8","2:nogo_b","",""
"null","","html-keyboard-response","551","1357183","0.0-6.0-1.110","","<img src=""img/grey-r.png"">","null","trial","null","","0.2,0.8","2:nogo_b","1",""
"null","","html-keyboard-response","552","1358196","0.0-6.0-2.110","","<div style=""font-size:60px;"">+</div>","null","","","","","","",""
"null","","image-keyboard-response","553","1359705","0.0-6.0-0.111","","img/red.png","null","trial","32","false","0.6,0.4","3:go_c","",""
"null","","html-keyboard-response","554","1360718","0.0-6.0-1.111","","<img src=""img/red-n.png"">","null","trial","32","","0.6,0.4","3:go_c","0",""
"null","","html-keyboard-response","555","1361728","0.0-6.0-2.111","","<div style=""font-size:60px;"">+</div>","null","","","","","","",""
"null","","image-keyboard-response","556","1363243","0.0-6.0-0.112","","img/red.png","null","trial","32","false","0.6,0.4","3:go_c","",""
"null","","html-keyboard-response","557","1364258","0.0-6.0-1.112","","<img src=""img/red-r.png"">","null","trial","32","","0.6,0.4","3:go_c","1",""
"null","","html-keyboard-response","558","1365260","0.0-6.0-2.112","","<div style=""font-size:60px;"">+</div>","null","","","","","","",""
"null","","image-keyboard-response","559","1366776","0.0-6.0-0.113","","img/grey.png","null","trial","null","true","0.2,0.8","2:nogo_b","",""
"null","","html-keyboard-response","560","1367785","0.0-6.0-1.113","","<img src=""img/grey-r.png"">","null","trial","null","","0.2,0.8","2:nogo_b","1",""
"null","","html-keyboard-response","561","1368796","0.0-6.0-2.113","","<div style=""font-size:60px;"">+</div>","null","","","","","","",""
"1116.9700000900775","","image-keyboard-response","562","1369914","0.0-6.0-0.114","","img/blue.png","32","trial","32","true","0.8,0.2","1:go_a","",""
"null","","html-keyboard-response","563","1370930","0.0-6.0-1.114","","<img src=""img/blue-r.png"" border=""10"">","null","trial","32","","0.8,0.2","1:go_a","1",""
"null","","html-keyboard-response","564","1371946","0.0-6.0-2.114","","<div style=""font-size:60px;"">+</div>","null","","","","","","",""
"909.7500001080334","","image-keyboard-response","565","1372857","0.0-6.0-0.115","","img/yellow.png","32","trial","null","false","0.4,0.6","4:nogo_d","",""
"null","","html-keyboard-response","566","1373867","0.0-6.0-1.115","","<img src=""img/yellow-n.png"" border=""10"">","null","trial","null","","0.4,0.6","4:nogo_d","0",""
"null","","html-keyboard-response","567","1374874","0.0-6.0-2.115","","<div style=""font-size:60px;"">+</div>","null","","","","","","",""
"null","","image-keyboard-response","568","1376389","0.0-6.0-0.116","","img/grey.png","null","trial","null","true","0.2,0.8","2:nogo_b","",""
"null","","html-keyboard-response","569","1377406","0.0-6.0-1.116","","<img src=""img/grey-r.png"">","null","trial","null","","0.2,0.8","2:nogo_b","1",""
"null","","html-keyboard-response","570","1378415","0.0-6.0-2.116","","<div style=""font-size:60px;"">+</div>","null","","","","","","",""
"795.9149999078363","","image-keyboard-response","571","1379212","0.0-6.0-0.117","","img/blue.png","32","trial","32","true","0.8,0.2","1:go_a","",""
"null","","html-keyboard-response","572","1380225","0.0-6.0-1.117","","<img src=""img/blue-r.png"" border=""10"">","null","trial","32","","0.8,0.2","1:go_a","1",""
"null","","html-keyboard-response","573","1381235","0.0-6.0-2.117","","<div style=""font-size:60px;"">+</div>","null","","","","","","",""
"null","","image-keyboard-response","574","1382743","0.0-6.0-0.118","","img/yellow.png","null","trial","null","true","0.4,0.6","4:nogo_d","",""
"null","","html-keyboard-response","575","1383747","0.0-6.0-1.118","","<img src=""img/yellow-r.png"">","null","trial","null","","0.4,0.6","4:nogo_d","1",""
"null","","html-keyboard-response","576","1384761","0.0-6.0-2.118","","<div style=""font-size:60px;"">+</div>","null","","","","","","",""
"1323.4350001439452","","image-keyboard-response","577","1386086","0.0-6.0-0.119","","img/red.png","32","trial","32","true","0.6,0.4","3:go_c","",""
"null","","html-keyboard-response","578","1387089","0.0-6.0-1.119","","<img src=""img/red-r.png"" border=""10"">","null","trial","32","","0.6,0.4","3:go_c","1",""
"null","","html-keyboard-response","579","1388099","0.0-6.0-2.119","","<div style=""font-size:60px;"">+</div>","null","","","","","","",""
"833126.494999975","","instructions","580","2221227","0.0-7.0","[{""page_index"":0,""viewing_time"":833124.9450000469}]","","","","","","","","",""
"null","","image-keyboard-response","581","2222735","0.0-8.0-0.0","","img/pink.png","null","trial","null","true","0.2,0.8","2:nogo_b","",""
"null","","html-keyboard-response","582","2223749","0.0-8.0-1.0","","<img src=""img/pink-r.png"">","null","trial","null","","0.2,0.8","2:nogo_b","1",""
"null","","html-keyboard-response","583","2224763","0.0-8.0-2.0","","<div style=""font-size:60px;"">+</div>","null","","","","","","",""
"717.8700000513345","","image-keyboard-response","584","2225483","0.0-8.0-0.1","","img/yellow.png","32","trial","32","true","0.8,0.2","3:go_c","",""
"null","","html-keyboard-response","585","2226493","0.0-8.0-1.1","","<img src=""img/yellow-n.png"" border=""10"">","null","trial","32","","0.8,0.2","3:go_c","0",""
"null","","html-keyboard-response","586","2227509","0.0-8.0-2.1","","<div style=""font-size:60px;"">+</div>","null","","","","","","",""
"906.2699999194592","","image-keyboard-response","587","2228417","0.0-8.0-0.2","","img/purple.png","32","trial","null","false","0.2,0.8","4:nogo_d","",""
"null","","html-keyboard-response","588","2229428","0.0-8.0-1.2","","<img src=""img/purple-n.png"" border=""10"">","null","trial","null","","0.2,0.8","4:nogo_d","0",""
"null","","html-keyboard-response","589","2230438","0.0-8.0-2.2","","<div style=""font-size:60px;"">+</div>","null","","","","","","",""
"981.2600000295788","","image-keyboard-response","590","2231421","0.0-8.0-0.3","","img/red.png","32","trial","32","true","0.8,0.2","1:go_a","",""
"null","","html-keyboard-response","591","2232433","0.0-8.0-1.3","","<img src=""img/red-r.png"" border=""10"">","null","trial","32","","0.8,0.2","1:go_a","1",""
"null","","html-keyboard-response","592","2233445","0.0-8.0-2.3","","<div style=""font-size:60px;"">+</div>","null","","","","","","",""
"null","","image-keyboard-response","593","2234958","0.0-8.0-0.4","","img/pink.png","null","trial","null","true","0.2,0.8","2:nogo_b","",""
"null","","html-keyboard-response","594","2235970","0.0-8.0-1.4","","<img src=""img/pink-r.png"">","null","trial","null","","0.2,0.8","2:nogo_b","1",""
"null","","html-keyboard-response","595","2236983","0.0-8.0-2.4","","<div style=""font-size:60px;"">+</div>","null","","","","","","",""
"null","","image-keyboard-response","596","2238495","0.0-8.0-0.5","","img/purple.png","null","trial","null","true","0.2,0.8","4:nogo_d","",""
"null","","html-keyboard-response","597","2239506","0.0-8.0-1.5","","<img src=""img/purple-r.png"">","null","trial","null","","0.2,0.8","4:nogo_d","1",""
"null","","html-keyboard-response","598","2240519","0.0-8.0-2.5","","<div style=""font-size:60px;"">+</div>","null","","","","","","",""
"null","","image-keyboard-response","599","2242030","0.0-8.0-0.6","","img/yellow.png","null","trial","32","false","0.8,0.2","3:go_c","",""
"null","","html-keyboard-response","600","2243035","0.0-8.0-1.6","","<img src=""img/yellow-n.png"">","null","trial","32","","0.8,0.2","3:go_c","0",""
"null","","html-keyboard-response","601","2244050","0.0-8.0-2.6","","<div style=""font-size:60px;"">+</div>","null","","","","","","",""
"750.4999998491257","","image-keyboard-response","602","2244802","0.0-8.0-0.7","","img/red.png","32","trial","32","true","0.8,0.2","1:go_a","",""
"null","","html-keyboard-response","603","2245812","0.0-8.0-1.7","","<img src=""img/red-r.png"" border=""10"">","null","trial","32","","0.8,0.2","1:go_a","1",""
"null","","html-keyboard-response","604","2246823","0.0-8.0-2.7","","<div style=""font-size:60px;"">+</div>","null","","","","","","",""
"null","","image-keyboard-response","605","2248333","0.0-8.0-0.8","","img/pink.png","null","trial","null","true","0.2,0.8","2:nogo_b","",""
"null","","html-keyboard-response","606","2249349","0.0-8.0-1.8","","<img src=""img/pink-r.png"">","null","trial","null","","0.2,0.8","2:nogo_b","1",""
"null","","html-keyboard-response","607","2250359","0.0-8.0-2.8","","<div style=""font-size:60px;"">+</div>","null","","","","","","",""
"null","","image-keyboard-response","608","2251861","0.0-8.0-0.9","","img/yellow.png","null","trial","32","false","0.8,0.2","3:go_c","",""
"null","","html-keyboard-response","609","2252864","0.0-8.0-1.9","","<img src=""img/yellow-n.png"">","null","trial","32","","0.8,0.2","3:go_c","0",""
"null","","html-keyboard-response","610","2253873","0.0-8.0-2.9","","<div style=""font-size:60px;"">+</div>","null","","","","","","",""
"null","","image-keyboard-response","611","2255383","0.0-8.0-0.10","","img/purple.png","null","trial","null","true","0.2,0.8","4:nogo_d","",""
"null","","html-keyboard-response","612","2256396","0.0-8.0-1.10","","<img src=""img/purple-r.png"">","null","trial","null","","0.2,0.8","4:nogo_d","1",""
"null","","html-keyboard-response","613","2257410","0.0-8.0-2.10","","<div style=""font-size:60px;"">+</div>","null","","","","","","",""
"640.9899999853224","","image-keyboard-response","614","2258053","0.0-8.0-0.11","","img/red.png","32","trial","32","true","0.8,0.2","1:go_a","",""
"null","","html-keyboard-response","615","2259063","0.0-8.0-1.11","","<img src=""img/red-n.png"" border=""10"">","null","trial","32","","0.8,0.2","1:go_a","0",""
"null","","html-keyboard-response","616","2260066","0.0-8.0-2.11","","<div style=""font-size:60px;"">+</div>","null","","","","","","",""
"745.230000000447","","image-keyboard-response","617","2260812","0.0-8.0-0.12","","img/yellow.png","32","trial","32","true","0.8,0.2","3:go_c","",""
"null","","html-keyboard-response","618","2261825","0.0-8.0-1.12","","<img src=""img/yellow-r.png"" border=""10"">","null","trial","32","","0.8,0.2","3:go_c","1",""
"null","","html-keyboard-response","619","2262838","0.0-8.0-2.12","","<div style=""font-size:60px;"">+</div>","null","","","","","","",""
"905.3550001699477","","image-keyboard-response","620","2263744","0.0-8.0-0.13","","img/red.png","32","trial","32","true","0.8,0.2","1:go_a","",""
"null","","html-keyboard-response","621","2264754","0.0-8.0-1.13","","<img src=""img/red-n.png"" border=""10"">","null","trial","32","","0.8,0.2","1:go_a","0",""
"null","","html-keyboard-response","622","2265768","0.0-8.0-2.13","","<div style=""font-size:60px;"">+</div>","null","","","","","","",""
"null","","image-keyboard-response","623","2267273","0.0-8.0-0.14","","img/pink.png","null","trial","null","true","0.2,0.8","2:nogo_b","",""
"null","","html-keyboard-response","624","2268287","0.0-8.0-1.14","","<img src=""img/pink-n.png"">","null","trial","null","","0.2,0.8","2:nogo_b","0",""
"null","","html-keyboard-response","625","2269297","0.0-8.0-2.14","","<div style=""font-size:60px;"">+</div>","null","","","","","","",""
"null","","image-keyboard-response","626","2270808","0.0-8.0-0.15","","img/purple.png","null","trial","null","true","0.2,0.8","4:nogo_d","",""
"null","","html-keyboard-response","627","2271819","0.0-8.0-1.15","","<img src=""img/purple-r.png"">","null","trial","null","","0.2,0.8","4:nogo_d","1",""
"null","","html-keyboard-response","628","2272830","0.0-8.0-2.15","","<div style=""font-size:60px;"">+</div>","null","","","","","","",""
"null","","image-keyboard-response","629","2274343","0.0-8.0-0.16","","img/pink.png","null","trial","null","true","0.2,0.8","2:nogo_b","",""
"null","","html-keyboard-response","630","2275353","0.0-8.0-1.16","","<img src=""img/pink-r.png"">","null","trial","null","","0.2,0.8","2:nogo_b","1",""
"null","","html-keyboard-response","631","2276366","0.0-8.0-2.16","","<div style=""font-size:60px;"">+</div>","null","","","","","","",""
"826.2950000353158","","image-keyboard-response","632","2277193","0.0-8.0-0.17","","img/red.png","32","trial","32","true","0.8,0.2","1:go_a","",""
"null","","html-keyboard-response","633","2278201","0.0-8.0-1.17","","<img src=""img/red-r.png"" border=""10"">","null","trial","32","","0.8,0.2","1:go_a","1",""
"null","","html-keyboard-response","634","2279215","0.0-8.0-2.17","","<div style=""font-size:60px;"">+</div>","null","","","","","","",""
"null","","image-keyboard-response","635","2280729","0.0-8.0-0.18","","img/purple.png","null","trial","null","true","0.2,0.8","4:nogo_d","",""
"null","","html-keyboard-response","636","2281745","0.0-8.0-1.18","","<img src=""img/purple-r.png"">","null","trial","null","","0.2,0.8","4:nogo_d","1",""
"null","","html-keyboard-response","637","2282762","0.0-8.0-2.18","","<div style=""font-size:60px;"">+</div>","null","","","","","","",""
"812.6700001303107","","image-keyboard-response","638","2283576","0.0-8.0-0.19","","img/yellow.png","32","trial","32","true","0.8,0.2","3:go_c","",""
"null","","html-keyboard-response","639","2284584","0.0-8.0-1.19","","<img src=""img/yellow-r.png"" border=""10"">","null","trial","32","","0.8,0.2","3:go_c","1",""
"null","","html-keyboard-response","640","2285594","0.0-8.0-2.19","","<div style=""font-size:60px;"">+</div>","null","","","","","","",""
"795.7499998155981","","image-keyboard-response","641","2286391","0.0-8.0-0.20","","img/red.png","32","trial","32","true","0.8,0.2","1:go_a","",""
"null","","html-keyboard-response","642","2287406","0.0-8.0-1.20","","<img src=""img/red-r.png"" border=""10"">","null","trial","32","","0.8,0.2","1:go_a","1",""
"null","","html-keyboard-response","643","2288423","0.0-8.0-2.20","","<div style=""font-size:60px;"">+</div>","null","","","","","","",""
"null","","image-keyboard-response","644","2289933","0.0-8.0-0.21","","img/purple.png","null","trial","null","true","0.2,0.8","4:nogo_d","",""
"null","","html-keyboard-response","645","2290946","0.0-8.0-1.21","","<img src=""img/purple-n.png"">","null","trial","null","","0.2,0.8","4:nogo_d","0",""
"null","","html-keyboard-response","646","2291957","0.0-8.0-2.21","","<div style=""font-size:60px;"">+</div>","null","","","","","","",""
"null","","image-keyboard-response","647","2293472","0.0-8.0-0.22","","img/pink.png","null","trial","null","true","0.2,0.8","2:nogo_b","",""
"null","","html-keyboard-response","648","2294481","0.0-8.0-1.22","","<img src=""img/pink-r.png"">","null","trial","null","","0.2,0.8","2:nogo_b","1",""
"null","","html-keyboard-response","649","2295495","0.0-8.0-2.22","","<div style=""font-size:60px;"">+</div>","null","","","","","","",""
"824.1099999286234","","image-keyboard-response","650","2296320","0.0-8.0-0.23","","img/yellow.png","32","trial","32","true","0.8,0.2","3:go_c","",""
"null","","html-keyboard-response","651","2297323","0.0-8.0-1.23","","<img src=""img/yellow-r.png"" border=""10"">","null","trial","32","","0.8,0.2","3:go_c","1",""
"null","","html-keyboard-response","652","2298326","0.0-8.0-2.23","","<div style=""font-size:60px;"">+</div>","null","","","","","","",""
"null","","image-keyboard-response","653","2299837","0.0-8.0-0.24","","img/pink.png","null","trial","null","true","0.2,0.8","2:nogo_b","",""
"null","","html-keyboard-response","654","2300849","0.0-8.0-1.24","","<img src=""img/pink-n.png"">","null","trial","null","","0.2,0.8","2:nogo_b","0",""
"null","","html-keyboard-response","655","2301863","0.0-8.0-2.24","","<div style=""font-size:60px;"">+</div>","null","","","","","","",""
"1154.8300001304597","","image-keyboard-response","656","2303019","0.0-8.0-0.25","","img/red.png","32","trial","32","true","0.8,0.2","1:go_a","",""
"null","","html-keyboard-response","657","2304031","0.0-8.0-1.25","","<img src=""img/red-n.png"" border=""10"">","null","trial","32","","0.8,0.2","1:go_a","0",""
"null","","html-keyboard-response","658","2305046","0.0-8.0-2.25","","<div style=""font-size:60px;"">+</div>","null","","","","","","",""
"787.8600000403821","","image-keyboard-response","659","2305836","0.0-8.0-0.26","","img/yellow.png","32","trial","32","true","0.8,0.2","3:go_c","",""
"null","","html-keyboard-response","660","2306847","0.0-8.0-1.26","","<img src=""img/yellow-r.png"" border=""10"">","null","trial","32","","0.8,0.2","3:go_c","1",""
"null","","html-keyboard-response","661","2307853","0.0-8.0-2.26","","<div style=""font-size:60px;"">+</div>","null","","","","","","",""
"null","","image-keyboard-response","662","2309364","0.0-8.0-0.27","","img/purple.png","null","trial","null","true","0.2,0.8","4:nogo_d","",""
"null","","html-keyboard-response","663","2310375","0.0-8.0-1.27","","<img src=""img/purple-r.png"">","null","trial","null","","0.2,0.8","4:nogo_d","1",""
"null","","html-keyboard-response","664","2311387","0.0-8.0-2.27","","<div style=""font-size:60px;"">+</div>","null","","","","","","",""
"706.3749998342246","","image-keyboard-response","665","2312095","0.0-8.0-0.28","","img/yellow.png","32","trial","32","true","0.8,0.2","3:go_c","",""
"null","","html-keyboard-response","666","2313106","0.0-8.0-1.28","","<img src=""img/yellow-r.png"" border=""10"">","null","trial","32","","0.8,0.2","3:go_c","1",""
"null","","html-keyboard-response","667","2314119","0.0-8.0-2.28","","<div style=""font-size:60px;"">+</div>","null","","","","","","",""
"null","","image-keyboard-response","668","2315627","0.0-8.0-0.29","","img/red.png","null","trial","32","false","0.8,0.2","1:go_a","",""
"null","","html-keyboard-response","669","2316641","0.0-8.0-1.29","","<img src=""img/red-n.png"">","null","trial","32","","0.8,0.2","1:go_a","0",""
"null","","html-keyboard-response","670","2317649","0.0-8.0-2.29","","<div style=""font-size:60px;"">+</div>","null","","","","","","",""
"null","","image-keyboard-response","671","2319162","0.0-8.0-0.30","","img/purple.png","null","trial","null","true","0.2,0.8","4:nogo_d","",""
"null","","html-keyboard-response","672","2320169","0.0-8.0-1.30","","<img src=""img/purple-r.png"">","null","trial","null","","0.2,0.8","4:nogo_d","1",""
"null","","html-keyboard-response","673","2321182","0.0-8.0-2.30","","<div style=""font-size:60px;"">+</div>","null","","","","","","",""
"null","","image-keyboard-response","674","2322689","0.0-8.0-0.31","","img/pink.png","null","trial","null","true","0.2,0.8","2:nogo_b","",""
"null","","html-keyboard-response","675","2323698","0.0-8.0-1.31","","<img src=""img/pink-r.png"">","null","trial","null","","0.2,0.8","2:nogo_b","1",""
"null","","html-keyboard-response","676","2324713","0.0-8.0-2.31","","<div style=""font-size:60px;"">+</div>","null","","","","","","",""
"null","","image-keyboard-response","677","2326229","0.0-8.0-0.32","","img/purple.png","null","trial","null","true","0.2,0.8","4:nogo_d","",""
"null","","html-keyboard-response","678","2327241","0.0-8.0-1.32","","<img src=""img/purple-r.png"">","null","trial","null","","0.2,0.8","4:nogo_d","1",""
"null","","html-keyboard-response","679","2328256","0.0-8.0-2.32","","<div style=""font-size:60px;"">+</div>","null","","","","","","",""
