"rt","url","trial_type","trial_index","time_elapsed","internal_node_id","view_history","stimulus","key_press","test_part","correct_response","correct","use_rew","which_stim","reward","responses"
"13669.174999988172","consent.html","external-html","0","13860","0.0-0.0","","","","","","","","","",""
"82055.77500001527","","instructions","1","95920","0.0-1.0","[{""page_index"":0,""viewing_time"":3597.5650000036694},{""page_index"":1,""viewing_time"":18393.679999979213},{""page_index"":2,""viewing_time"":6617.765000031795},{""page_index"":3,""viewing_time"":25883.394999953452},{""page_index"":4,""viewing_time"":12145.095000043511},{""page_index"":5,""viewing_time"":6176.110000000335},{""page_index"":6,""viewing_time"":9240.999999979977}]","","","","","","","","",""
"null","","image-keyboard-response","2","97429","0.0-2.0-0.0","","img/test2.PNG","null","practice","null","true","","","",""
"null","","html-keyboard-response","3","98433","0.0-2.0-1.0","","<img src=""img/test2-reward.PNG"">","null","","","","","","",""
"null","","html-keyboard-response","4","99436","0.0-2.0-2.0","","<div style=""font-size:60px;"">+</div>","null","","","","","","",""
"null","","image-keyboard-response","5","100948","0.0-2.0-0.1","","img/test3.PNG","null","practice","null","true","","","",""
"null","","html-keyboard-response","6","101954","0.0-2.0-1.1","","<img src=""img/test3-reward.PNG"">","null","","","","","","",""
"null","","html-keyboard-response","7","102959","0.0-2.0-2.1","","<div style=""font-size:60px;"">+</div>","null","","","","","","",""
"349.8249999829568","","image-keyboard-response","8","103310","0.0-2.0-0.2","","img/test1.PNG","32","practice","32","true","","","",""
"null","","html-keyboard-response","9","104316","0.0-2.0-1.2","","<img src=""img/test1-reward.PNG"" border=""10px; grey"">","null","","","","","","",""
"null","","html-keyboard-response","10","105321","0.0-2.0-2.2","","<div style=""font-size:60px;"">+</div>","null","","","","","","",""
"null","","image-keyboard-response","11","106822","0.0-2.0-0.3","","img/test2.PNG","null","practice","null","true","","","",""
"null","","html-keyboard-response","12","107836","0.0-2.0-1.3","","<img src=""img/test2-reward.PNG"">","null","","","","","","",""
"null","","html-keyboard-response","13","108840","0.0-2.0-2.3","","<div style=""font-size:60px;"">+</div>","null","","","","","","",""
"null","","image-keyboard-response","14","110355","0.0-2.0-0.4","","img/test3.PNG","null","practice","null","true","","","",""
"null","","html-keyboard-response","15","111373","0.0-2.0-1.4","","<img src=""img/test3-reward.PNG"">","null","","","","","","",""
"null","","html-keyboard-response","16","112378","0.0-2.0-2.4","","<div style=""font-size:60px;"">+</div>","null","","","","","","",""
"339.6650000358932","","image-keyboard-response","17","112719","0.0-2.0-0.5","","img/test1.PNG","32","practice","32","true","","","",""
"null","","html-keyboard-response","18","113730","0.0-2.0-1.5","","<img src=""img/test1-reward.PNG"" border=""10px; grey"">","null","","","","","","",""
"null","","html-keyboard-response","19","114745","0.0-2.0-2.5","","<div style=""font-size:60px;"">+</div>","null","","","","","","",""
"null","","image-keyboard-response","20","116255","0.0-2.0-0.6","","img/test2.PNG","null","practice","null","true","","","",""
"null","","html-keyboard-response","21","117268","0.0-2.0-1.6","","<img src=""img/test2-reward.PNG"">","null","","","","","","",""
"null","","html-keyboard-response","22","118278","0.0-2.0-2.6","","<div style=""font-size:60px;"">+</div>","null","","","","","","",""
"373.8550000125542","","image-keyboard-response","23","118654","0.0-2.0-0.7","","img/test1.PNG","32","practice","32","true","","","",""
"null","","html-keyboard-response","24","119662","0.0-2.0-1.7","","<img src=""img/test1-reward.PNG"" border=""10px; grey"">","null","","","","","","",""
"null","","html-keyboard-response","25","120676","0.0-2.0-2.7","","<div style=""font-size:60px;"">+</div>","null","","","","","","",""
"null","","image-keyboard-response","26","122210","0.0-2.0-0.8","","img/test3.PNG","null","practice","null","true","","","",""
"null","","html-keyboard-response","27","123213","0.0-2.0-1.8","","<img src=""img/test3-reward.PNG"">","null","","","","","","",""
"null","","html-keyboard-response","28","124224","0.0-2.0-2.8","","<div style=""font-size:60px;"">+</div>","null","","","","","","",""
"null","","image-keyboard-response","29","125741","0.0-2.0-0.9","","img/test3.PNG","null","practice","null","true","","","",""
"null","","html-keyboard-response","30","126743","0.0-2.0-1.9","","<img src=""img/test3-reward.PNG"">","null","","","","","","",""
"null","","html-keyboard-response","31","127755","0.0-2.0-2.9","","<div style=""font-size:60px;"">+</div>","null","","","","","","",""
"null","","image-keyboard-response","32","129267","0.0-2.0-0.10","","img/test2.PNG","null","practice","null","true","","","",""
"null","","html-keyboard-response","33","130290","0.0-2.0-1.10","","<img src=""img/test2-reward.PNG"">","null","","","","","","",""
"null","","html-keyboard-response","34","131303","0.0-2.0-2.10","","<div style=""font-size:60px;"">+</div>","null","","","","","","",""
"371.36499996995553","","image-keyboard-response","35","131678","0.0-2.0-0.11","","img/test1.PNG","32","practice","32","true","","","",""
"null","","html-keyboard-response","36","132690","0.0-2.0-1.11","","<img src=""img/test1-reward.PNG"" border=""10px; grey"">","null","","","","","","",""
"null","","html-keyboard-response","37","133696","0.0-2.0-2.11","","<div style=""font-size:60px;"">+</div>","null","","","","","","",""
"3401.7799999564886","","instructions","38","137099","0.0-3.0","[{""page_index"":0,""viewing_time"":3401.0449999477714}]","","","","","","","","",""
"736.1699999892153","","image-keyboard-response","39","137837","0.0-4.0-0.0","","img/pink.png","32","trial","null","false","0.2,0.8","2:nogo_b","",""
"null","","html-keyboard-response","40","138852","0.0-4.0-1.0","","<img src=""img/pink-n.png"" border=""10"">","null","trial","null","","0.2,0.8","2:nogo_b","0",""
"null","","html-keyboard-response","41","139919","0.0-4.0-2.0","","<div style=""font-size:60px;"">+</div>","null","","","","","","",""
"652.364999987185","","image-keyboard-response","42","140573","0.0-4.0-0.1","","img/green.png","32","trial","32","true","0.8,0.2","1:go_a","",""
"null","","html-keyboard-response","43","141590","0.0-4.0-1.1","","<img src=""img/green-r.png"" border=""10"">","null","trial","32","","0.8,0.2","1:go_a","1",""
"null","","html-keyboard-response","44","142595","0.0-4.0-2.1","","<div style=""font-size:60px;"">+</div>","null","","","","","","",""
"null","","image-keyboard-response","45","144098","0.0-4.0-0.2","","img/pink.png","null","trial","null","true","0.2,0.8","2:nogo_b","",""
"null","","html-keyboard-response","46","145110","0.0-4.0-1.2","","<img src=""img/pink-r.png"">","null","trial","null","","0.2,0.8","2:nogo_b","1",""
"null","","html-keyboard-response","47","146127","0.0-4.0-2.2","","<div style=""font-size:60px;"">+</div>","null","","","","","","",""
"728.2399999676272","","image-keyboard-response","48","146859","0.0-4.0-0.3","","img/green.png","32","trial","32","true","0.8,0.2","1:go_a","",""
"null","","html-keyboard-response","49","147863","0.0-4.0-1.3","","<img src=""img/green-n.png"" border=""10"">","null","trial","32","","0.8,0.2","1:go_a","0",""
"null","","html-keyboard-response","50","148879","0.0-4.0-2.3","","<div style=""font-size:60px;"">+</div>","null","","","","","","",""
"596.1499999975786","","image-keyboard-response","51","149477","0.0-4.0-0.4","","img/green.png","32","trial","32","true","0.8,0.2","1:go_a","",""
"null","","html-keyboard-response","52","150486","0.0-4.0-1.4","","<img src=""img/green-r.png"" border=""10"">","null","trial","32","","0.8,0.2","1:go_a","1",""
"null","","html-keyboard-response","53","151495","0.0-4.0-2.4","","<div style=""font-size:60px;"">+</div>","null","","","","","","",""
"null","","image-keyboard-response","54","153007","0.0-4.0-0.5","","img/pink.png","null","trial","null","true","0.2,0.8","2:nogo_b","",""
"null","","html-keyboard-response","55","154018","0.0-4.0-1.5","","<img src=""img/pink-r.png"">","null","trial","null","","0.2,0.8","2:nogo_b","1",""
"null","","html-keyboard-response","56","155023","0.0-4.0-2.5","","<div style=""font-size:60px;"">+</div>","null","","","","","","",""
"620.5750000081025","","image-keyboard-response","57","155647","0.0-4.0-0.6","","img/green.png","32","trial","32","true","0.8,0.2","1:go_a","",""
"null","","html-keyboard-response","58","156654","0.0-4.0-1.6","","<img src=""img/green-n.png"" border=""10"">","null","trial","32","","0.8,0.2","1:go_a","0",""
"null","","html-keyboard-response","59","157666","0.0-4.0-2.6","","<div style=""font-size:60px;"">+</div>","null","","","","","","",""
"null","","image-keyboard-response","60","159171","0.0-4.0-0.7","","img/pink.png","null","trial","null","true","0.2,0.8","2:nogo_b","",""
"null","","html-keyboard-response","61","160177","0.0-4.0-1.7","","<img src=""img/pink-n.png"">","null","trial","null","","0.2,0.8","2:nogo_b","0",""
"null","","html-keyboard-response","62","161182","0.0-4.0-2.7","","<div style=""font-size:60px;"">+</div>","null","","","","","","",""
"432.4499999638647","","image-keyboard-response","63","161618","0.0-4.0-0.8","","img/green.png","32","trial","32","true","0.8,0.2","1:go_a","",""
"null","","html-keyboard-response","64","162637","0.0-4.0-1.8","","<img src=""img/green-r.png"" border=""10"">","null","trial","32","","0.8,0.2","1:go_a","1",""
"null","","html-keyboard-response","65","163639","0.0-4.0-2.8","","<div style=""font-size:60px;"">+</div>","null","","","","","","",""
"null","","image-keyboard-response","66","165152","0.0-4.0-0.9","","img/pink.png","null","trial","null","true","0.2,0.8","2:nogo_b","",""
"null","","html-keyboard-response","67","166166","0.0-4.0-1.9","","<img src=""img/pink-r.png"">","null","trial","null","","0.2,0.8","2:nogo_b","1",""
"null","","html-keyboard-response","68","167184","0.0-4.0-2.9","","<div style=""font-size:60px;"">+</div>","null","","","","","","",""
"null","","image-keyboard-response","69","168702","0.0-4.0-0.10","","img/pink.png","null","trial","null","true","0.2,0.8","2:nogo_b","",""
"null","","html-keyboard-response","70","169715","0.0-4.0-1.10","","<img src=""img/pink-r.png"">","null","trial","null","","0.2,0.8","2:nogo_b","1",""
"null","","html-keyboard-response","71","170717","0.0-4.0-2.10","","<div style=""font-size:60px;"">+</div>","null","","","","","","",""
"365.69999996572733","","image-keyboard-response","72","171087","0.0-4.0-0.11","","img/green.png","32","trial","32","true","0.8,0.2","1:go_a","",""
"null","","html-keyboard-response","73","172105","0.0-4.0-1.11","","<img src=""img/green-n.png"" border=""10"">","null","trial","32","","0.8,0.2","1:go_a","0",""
"null","","html-keyboard-response","74","173119","0.0-4.0-2.11","","<div style=""font-size:60px;"">+</div>","null","","","","","","",""
"null","","image-keyboard-response","75","174634","0.0-4.0-0.12","","img/pink.png","null","trial","null","true","0.2,0.8","2:nogo_b","",""
"null","","html-keyboard-response","76","175659","0.0-4.0-1.12","","<img src=""img/pink-r.png"">","null","trial","null","","0.2,0.8","2:nogo_b","1",""
"null","","html-keyboard-response","77","176670","0.0-4.0-2.12","","<div style=""font-size:60px;"">+</div>","null","","","","","","",""
"414.6949999849312","","image-keyboard-response","78","177086","0.0-4.0-0.13","","img/green.png","32","trial","32","true","0.8,0.2","1:go_a","",""
"null","","html-keyboard-response","79","178090","0.0-4.0-1.13","","<img src=""img/green-r.png"" border=""10"">","null","trial","32","","0.8,0.2","1:go_a","1",""
"null","","html-keyboard-response","80","179095","0.0-4.0-2.13","","<div style=""font-size:60px;"">+</div>","null","","","","","","",""
"null","","image-keyboard-response","81","180604","0.0-4.0-0.14","","img/pink.png","null","trial","null","true","0.2,0.8","2:nogo_b","",""
"null","","html-keyboard-response","82","181620","0.0-4.0-1.14","","<img src=""img/pink-r.png"">","null","trial","null","","0.2,0.8","2:nogo_b","1",""
"null","","html-keyboard-response","83","182629","0.0-4.0-2.14","","<div style=""font-size:60px;"">+</div>","null","","","","","","",""
"444.71499999053776","","image-keyboard-response","84","183075","0.0-4.0-0.15","","img/green.png","32","trial","32","true","0.8,0.2","1:go_a","",""
"null","","html-keyboard-response","85","184093","0.0-4.0-1.15","","<img src=""img/green-n.png"" border=""10"">","null","trial","32","","0.8,0.2","1:go_a","0",""
"null","","html-keyboard-response","86","185097","0.0-4.0-2.15","","<div style=""font-size:60px;"">+</div>","null","","","","","","",""
"null","","image-keyboard-response","87","186603","0.0-4.0-0.16","","img/pink.png","null","trial","null","true","0.2,0.8","2:nogo_b","",""
"null","","html-keyboard-response","88","187616","0.0-4.0-1.16","","<img src=""img/pink-r.png"">","null","trial","null","","0.2,0.8","2:nogo_b","1",""
"null","","html-keyboard-response","89","188628","0.0-4.0-2.16","","<div style=""font-size:60px;"">+</div>","null","","","","","","",""
"null","","image-keyboard-response","90","190144","0.0-4.0-0.17","","img/green.png","null","trial","32","false","0.8,0.2","1:go_a","",""
"null","","html-keyboard-response","91","191169","0.0-4.0-1.17","","<img src=""img/green-n.png"">","null","trial","32","","0.8,0.2","1:go_a","0",""
"null","","html-keyboard-response","92","192174","0.0-4.0-2.17","","<div style=""font-size:60px;"">+</div>","null","","","","","","",""
"null","","image-keyboard-response","93","193685","0.0-4.0-0.18","","img/pink.png","null","trial","null","true","0.2,0.8","2:nogo_b","",""
"null","","html-keyboard-response","94","194702","0.0-4.0-1.18","","<img src=""img/pink-r.png"">","null","trial","null","","0.2,0.8","2:nogo_b","1",""
"null","","html-keyboard-response","95","195709","0.0-4.0-2.18","","<div style=""font-size:60px;"">+</div>","null","","","","","","",""
"482.9499999759719","","image-keyboard-response","96","196197","0.0-4.0-0.19","","img/green.png","32","trial","32","true","0.8,0.2","1:go_a","",""
"null","","html-keyboard-response","97","197207","0.0-4.0-1.19","","<img src=""img/green-r.png"" border=""10"">","null","trial","32","","0.8,0.2","1:go_a","1",""
"null","","html-keyboard-response","98","198214","0.0-4.0-2.19","","<div style=""font-size:60px;"">+</div>","null","","","","","","",""
"644.655000010971","","image-keyboard-response","99","198860","0.0-4.0-0.20","","img/green.png","32","trial","32","true","0.8,0.2","1:go_a","",""
"null","","html-keyboard-response","100","199883","0.0-4.0-1.20","","<img src=""img/green-r.png"" border=""10"">","null","trial","32","","0.8,0.2","1:go_a","1",""
"null","","html-keyboard-response","101","200890","0.0-4.0-2.20","","<div style=""font-size:60px;"">+</div>","null","","","","","","",""
"null","","image-keyboard-response","102","202397","0.0-4.0-0.21","","img/pink.png","null","trial","null","true","0.2,0.8","2:nogo_b","",""
"null","","html-keyboard-response","103","203418","0.0-4.0-1.21","","<img src=""img/pink-r.png"">","null","trial","null","","0.2,0.8","2:nogo_b","1",""
"null","","html-keyboard-response","104","204433","0.0-4.0-2.21","","<div style=""font-size:60px;"">+</div>","null","","","","","","",""
"321.315000008326","","image-keyboard-response","105","204757","0.0-4.0-0.22","","img/green.png","32","trial","32","true","0.8,0.2","1:go_a","",""
"null","","html-keyboard-response","106","205761","0.0-4.0-1.22","","<img src=""img/green-r.png"" border=""10"">","null","trial","32","","0.8,0.2","1:go_a","1",""
"null","","html-keyboard-response","107","206783","0.0-4.0-2.22","","<div style=""font-size:60px;"">+</div>","null","","","","","","",""
"null","","image-keyboard-response","108","208286","0.0-4.0-0.23","","img/pink.png","null","trial","null","true","0.2,0.8","2:nogo_b","",""
"null","","html-keyboard-response","109","209307","0.0-4.0-1.23","","<img src=""img/pink-n.png"">","null","trial","null","","0.2,0.8","2:nogo_b","0",""
"null","","html-keyboard-response","110","210311","0.0-4.0-2.23","","<div style=""font-size:60px;"">+</div>","null","","","","","","",""
"352.4350000079721","","image-keyboard-response","111","210665","0.0-4.0-0.24","","img/green.png","32","trial","32","true","0.8,0.2","1:go_a","",""
"null","","html-keyboard-response","112","211678","0.0-4.0-1.24","","<img src=""img/green-n.png"" border=""10"">","null","trial","32","","0.8,0.2","1:go_a","0",""
"null","","html-keyboard-response","113","212703","0.0-4.0-2.24","","<div style=""font-size:60px;"">+</div>","null","","","","","","",""
"null","","image-keyboard-response","114","214206","0.0-4.0-0.25","","img/pink.png","null","trial","null","true","0.2,0.8","2:nogo_b","",""
"null","","html-keyboard-response","115","215216","0.0-4.0-1.25","","<img src=""img/pink-r.png"">","null","trial","null","","0.2,0.8","2:nogo_b","1",""
"null","","html-keyboard-response","116","216226","0.0-4.0-2.25","","<div style=""font-size:60px;"">+</div>","null","","","","","","",""
"382.0350000169128","","image-keyboard-response","117","216612","0.0-4.0-0.26","","img/green.png","32","trial","32","true","0.8,0.2","1:go_a","",""
"null","","html-keyboard-response","118","217627","0.0-4.0-1.26","","<img src=""img/green-r.png"" border=""10"">","null","trial","32","","0.8,0.2","1:go_a","1",""
"null","","html-keyboard-response","119","218631","0.0-4.0-2.26","","<div style=""font-size:60px;"">+</div>","null","","","","","","",""
"null","","image-keyboard-response","120","220135","0.0-4.0-0.27","","img/pink.png","null","trial","null","true","0.2,0.8","2:nogo_b","",""
"null","","html-keyboard-response","121","221147","0.0-4.0-1.27","","<img src=""img/pink-r.png"">","null","trial","null","","0.2,0.8","2:nogo_b","1",""
"null","","html-keyboard-response","122","222178","0.0-4.0-2.27","","<div style=""font-size:60px;"">+</div>","null","","","","","","",""
"461.44500002264977","","image-keyboard-response","123","222641","0.0-4.0-0.28","","img/green.png","32","trial","32","true","0.8,0.2","1:go_a","",""
"null","","html-keyboard-response","124","223645","0.0-4.0-1.28","","<img src=""img/green-n.png"" border=""10"">","null","trial","32","","0.8,0.2","1:go_a","0",""
"null","","html-keyboard-response","125","224661","0.0-4.0-2.28","","<div style=""font-size:60px;"">+</div>","null","","","","","","",""
"null","","image-keyboard-response","126","226166","0.0-4.0-0.29","","img/pink.png","null","trial","null","true","0.2,0.8","2:nogo_b","",""
"null","","html-keyboard-response","127","227178","0.0-4.0-1.29","","<img src=""img/pink-r.png"">","null","trial","null","","0.2,0.8","2:nogo_b","1",""
"null","","html-keyboard-response","128","228197","0.0-4.0-2.29","","<div style=""font-size:60px;"">+</div>","null","","","","","","",""
"null","","image-keyboard-response","129","229709","0.0-4.0-0.30","","img/pink.png","null","trial","null","true","0.2,0.8","2:nogo_b","",""
"null","","html-keyboard-response","130","230724","0.0-4.0-1.30","","<img src=""img/pink-r.png"">","null","trial","null","","0.2,0.8","2:nogo_b","1",""
"null","","html-keyboard-response","131","231737","0.0-4.0-2.30","","<div style=""font-size:60px;"">+</div>","null","","","","","","",""
"381.2550000147894","","image-keyboard-response","132","232119","0.0-4.0-0.31","","img/green.png","32","trial","32","true","0.8,0.2","1:go_a","",""
"null","","html-keyboard-response","133","233128","0.0-4.0-1.31","","<img src=""img/green-r.png"" border=""10"">","null","trial","32","","0.8,0.2","1:go_a","1",""
"null","","html-keyboard-response","134","234142","0.0-4.0-2.31","","<div style=""font-size:60px;"">+</div>","null","","","","","","",""
"386.4949999842793","","image-keyboard-response","135","234530","0.0-4.0-0.32","","img/green.png","32","trial","32","true","0.8,0.2","1:go_a","",""
"null","","html-keyboard-response","136","235539","0.0-4.0-1.32","","<img src=""img/green-r.png"" border=""10"">","null","trial","32","","0.8,0.2","1:go_a","1",""
"null","","html-keyboard-response","137","236543","0.0-4.0-2.32","","<div style=""font-size:60px;"">+</div>","null","","","","","","",""
"null","","image-keyboard-response","138","238053","0.0-4.0-0.33","","img/pink.png","null","trial","null","true","0.2,0.8","2:nogo_b","",""
"null","","html-keyboard-response","139","239059","0.0-4.0-1.33","","<img src=""img/pink-r.png"">","null","trial","null","","0.2,0.8","2:nogo_b","1",""
"null","","html-keyboard-response","140","240078","0.0-4.0-2.33","","<div style=""font-size:60px;"">+</div>","null","","","","","","",""
"null","","image-keyboard-response","141","241596","0.0-4.0-0.34","","img/pink.png","null","trial","null","true","0.2,0.8","2:nogo_b","",""
"null","","html-keyboard-response","142","242608","0.0-4.0-1.34","","<img src=""img/pink-r.png"">","null","trial","null","","0.2,0.8","2:nogo_b","1",""
"null","","html-keyboard-response","143","243614","0.0-4.0-2.34","","<div style=""font-size:60px;"">+</div>","null","","","","","","",""
"384.0349999954924","","image-keyboard-response","144","244000","0.0-4.0-0.35","","img/green.png","32","trial","32","true","0.8,0.2","1:go_a","",""
"null","","html-keyboard-response","145","245024","0.0-4.0-1.35","","<img src=""img/green-r.png"" border=""10"">","null","trial","32","","0.8,0.2","1:go_a","1",""
"null","","html-keyboard-response","146","246044","0.0-4.0-2.35","","<div style=""font-size:60px;"">+</div>","null","","","","","","",""
"464.35999998357147","","image-keyboard-response","147","246510","0.0-4.0-0.36","","img/green.png","32","trial","32","true","0.8,0.2","1:go_a","",""
"null","","html-keyboard-response","148","247526","0.0-4.0-1.36","","<img src=""img/green-r.png"" border=""10"">","null","trial","32","","0.8,0.2","1:go_a","1",""
"null","","html-keyboard-response","149","248543","0.0-4.0-2.36","","<div style=""font-size:60px;"">+</div>","null","","","","","","",""
"null","","image-keyboard-response","150","250054","0.0-4.0-0.37","","img/pink.png","null","trial","null","true","0.2,0.8","2:nogo_b","",""
"null","","html-keyboard-response","151","251066","0.0-4.0-1.37","","<img src=""img/pink-n.png"">","null","trial","null","","0.2,0.8","2:nogo_b","0",""
"null","","html-keyboard-response","152","252076","0.0-4.0-2.37","","<div style=""font-size:60px;"">+</div>","null","","","","","","",""
"null","","image-keyboard-response","153","253588","0.0-4.0-0.38","","img/pink.png","null","trial","null","true","0.2,0.8","2:nogo_b","",""
"null","","html-keyboard-response","154","254593","0.0-4.0-1.38","","<img src=""img/pink-r.png"">","null","trial","null","","0.2,0.8","2:nogo_b","1",""
"null","","html-keyboard-response","155","255609","0.0-4.0-2.38","","<div style=""font-size:60px;"">+</div>","null","","","","","","",""
"358.34500001510605","","image-keyboard-response","156","255972","0.0-4.0-0.39","","img/green.png","32","trial","32","true","0.8,0.2","1:go_a","",""
"null","","html-keyboard-response","157","256990","0.0-4.0-1.39","","<img src=""img/green-r.png"" border=""10"">","null","trial","32","","0.8,0.2","1:go_a","1",""
"null","","html-keyboard-response","158","258003","0.0-4.0-2.39","","<div style=""font-size:60px;"">+</div>","null","","","","","","",""
"392.0849999994971","","image-keyboard-response","159","258398","0.0-4.0-0.40","","img/green.png","32","trial","32","true","0.8,0.2","1:go_a","",""
"null","","html-keyboard-response","160","259416","0.0-4.0-1.40","","<img src=""img/green-r.png"" border=""10"">","null","trial","32","","0.8,0.2","1:go_a","1",""
"null","","html-keyboard-response","161","260429","0.0-4.0-2.40","","<div style=""font-size:60px;"">+</div>","null","","","","","","",""
"null","","image-keyboard-response","162","261935","0.0-4.0-0.41","","img/pink.png","null","trial","null","true","0.2,0.8","2:nogo_b","",""
"null","","html-keyboard-response","163","262949","0.0-4.0-1.41","","<img src=""img/pink-r.png"">","null","trial","null","","0.2,0.8","2:nogo_b","1",""
"null","","html-keyboard-response","164","263958","0.0-4.0-2.41","","<div style=""font-size:60px;"">+</div>","null","","","","","","",""
"null","","image-keyboard-response","165","265463","0.0-4.0-0.42","","img/pink.png","null","trial","null","true","0.2,0.8","2:nogo_b","",""
"null","","html-keyboard-response","166","266475","0.0-4.0-1.42","","<img src=""img/pink-r.png"">","null","trial","null","","0.2,0.8","2:nogo_b","1",""
"null","","html-keyboard-response","167","267481","0.0-4.0-2.42","","<div style=""font-size:60px;"">+</div>","null","","","","","","",""
"380.68500004010275","","image-keyboard-response","168","267866","0.0-4.0-0.43","","img/green.png","32","trial","32","true","0.8,0.2","1:go_a","",""
"null","","html-keyboard-response","169","268883","0.0-4.0-1.43","","<img src=""img/green-r.png"" border=""10"">","null","trial","32","","0.8,0.2","1:go_a","1",""
"null","","html-keyboard-response","170","269897","0.0-4.0-2.43","","<div style=""font-size:60px;"">+</div>","null","","","","","","",""
"418.92000002553686","","image-keyboard-response","171","270320","0.0-4.0-0.44","","img/green.png","32","trial","32","true","0.8,0.2","1:go_a","",""
"null","","html-keyboard-response","172","271329","0.0-4.0-1.44","","<img src=""img/green-r.png"" border=""10"">","null","trial","32","","0.8,0.2","1:go_a","1",""
"null","","html-keyboard-response","173","272343","0.0-4.0-2.44","","<div style=""font-size:60px;"">+</div>","null","","","","","","",""
"null","","image-keyboard-response","174","273848","0.0-4.0-0.45","","img/pink.png","null","trial","null","true","0.2,0.8","2:nogo_b","",""
"null","","html-keyboard-response","175","274863","0.0-4.0-1.45","","<img src=""img/pink-r.png"">","null","trial","null","","0.2,0.8","2:nogo_b","1",""
"null","","html-keyboard-response","176","275879","0.0-4.0-2.45","","<div style=""font-size:60px;"">+</div>","null","","","","","","",""
"519.4149999879301","","image-keyboard-response","177","276403","0.0-4.0-0.46","","img/green.png","32","trial","32","true","0.8,0.2","1:go_a","",""
"null","","html-keyboard-response","178","277422","0.0-4.0-1.46","","<img src=""img/green-r.png"" border=""10"">","null","trial","32","","0.8,0.2","1:go_a","1",""
"null","","html-keyboard-response","179","278435","0.0-4.0-2.46","","<div style=""font-size:60px;"">+</div>","null","","","","","","",""
"null","","image-keyboard-response","180","279954","0.0-4.0-0.47","","img/pink.png","null","trial","null","true","0.2,0.8","2:nogo_b","",""
"null","","html-keyboard-response","181","280967","0.0-4.0-1.47","","<img src=""img/pink-r.png"">","null","trial","null","","0.2,0.8","2:nogo_b","1",""
"null","","html-keyboard-response","182","281977","0.0-4.0-2.47","","<div style=""font-size:60px;"">+</div>","null","","","","","","",""
"null","","image-keyboard-response","183","283485","0.0-4.0-0.48","","img/pink.png","null","trial","null","true","0.2,0.8","2:nogo_b","",""
"null","","html-keyboard-response","184","284495","0.0-4.0-1.48","","<img src=""img/pink-r.png"">","null","trial","null","","0.2,0.8","2:nogo_b","1",""
"null","","html-keyboard-response","185","285508","0.0-4.0-2.48","","<div style=""font-size:60px;"">+</div>","null","","","","","","",""
"432.14499996975064","","image-keyboard-response","186","285946","0.0-4.0-0.49","","img/green.png","32","trial","32","true","0.8,0.2","1:go_a","",""
"null","","html-keyboard-response","187","286961","0.0-4.0-1.49","","<img src=""img/green-r.png"" border=""10"">","null","trial","32","","0.8,0.2","1:go_a","1",""
"null","","html-keyboard-response","188","287973","0.0-4.0-2.49","","<div style=""font-size:60px;"">+</div>","null","","","","","","",""
"482.274999958463","","image-keyboard-response","189","288458","0.0-4.0-0.50","","img/green.png","32","trial","32","true","0.8,0.2","1:go_a","",""
"null","","html-keyboard-response","190","289479","0.0-4.0-1.50","","<img src=""img/green-r.png"" border=""10"">","null","trial","32","","0.8,0.2","1:go_a","1",""
"null","","html-keyboard-response","191","290503","0.0-4.0-2.50","","<div style=""font-size:60px;"">+</div>","null","","","","","","",""
"null","","image-keyboard-response","192","292020","0.0-4.0-0.51","","img/pink.png","null","trial","null","true","0.2,0.8","2:nogo_b","",""
"null","","html-keyboard-response","193","293036","0.0-4.0-1.51","","<img src=""img/pink-r.png"">","null","trial","null","","0.2,0.8","2:nogo_b","1",""
"null","","html-keyboard-response","194","294037","0.0-4.0-2.51","","<div style=""font-size:60px;"">+</div>","null","","","","","","",""
"null","","image-keyboard-response","195","295555","0.0-4.0-0.52","","img/pink.png","null","trial","null","true","0.2,0.8","2:nogo_b","",""
"null","","html-keyboard-response","196","296564","0.0-4.0-1.52","","<img src=""img/pink-r.png"">","null","trial","null","","0.2,0.8","2:nogo_b","1",""
"null","","html-keyboard-response","197","297574","0.0-4.0-2.52","","<div style=""font-size:60px;"">+</div>","null","","","","","","",""
"370.4250000300817","","image-keyboard-response","198","297947","0.0-4.0-0.53","","img/green.png","32","trial","32","true","0.8,0.2","1:go_a","",""
"null","","html-keyboard-response","199","298957","0.0-4.0-1.53","","<img src=""img/green-r.png"" border=""10"">","null","trial","32","","0.8,0.2","1:go_a","1",""
"null","","html-keyboard-response","200","299973","0.0-4.0-2.53","","<div style=""font-size:60px;"">+</div>","null","","","","","","",""
"null","","image-keyboard-response","201","301478","0.0-4.0-0.54","","img/pink.png","null","trial","null","true","0.2,0.8","2:nogo_b","",""
"null","","html-keyboard-response","202","302482","0.0-4.0-1.54","","<img src=""img/pink-r.png"">","null","trial","null","","0.2,0.8","2:nogo_b","1",""
"null","","html-keyboard-response","203","303494","0.0-4.0-2.54","","<div style=""font-size:60px;"">+</div>","null","","","","","","",""
"391.98499999474734","","image-keyboard-response","204","303888","0.0-4.0-0.55","","img/green.png","32","trial","32","true","0.8,0.2","1:go_a","",""
"null","","html-keyboard-response","205","304910","0.0-4.0-1.55","","<img src=""img/green-r.png"" border=""10"">","null","trial","32","","0.8,0.2","1:go_a","1",""
"null","","html-keyboard-response","206","305911","0.0-4.0-2.55","","<div style=""font-size:60px;"">+</div>","null","","","","","","",""
"null","","image-keyboard-response","207","307419","0.0-4.0-0.56","","img/pink.png","null","trial","null","true","0.2,0.8","2:nogo_b","",""
"null","","html-keyboard-response","208","308429","0.0-4.0-1.56","","<img src=""img/pink-r.png"">","null","trial","null","","0.2,0.8","2:nogo_b","1",""
"null","","html-keyboard-response","209","309438","0.0-4.0-2.56","","<div style=""font-size:60px;"">+</div>","null","","","","","","",""
"360.84500001743436","","image-keyboard-response","210","309802","0.0-4.0-0.57","","img/green.png","32","trial","32","true","0.8,0.2","1:go_a","",""
"null","","html-keyboard-response","211","310826","0.0-4.0-1.57","","<img src=""img/green-r.png"" border=""10"">","null","trial","32","","0.8,0.2","1:go_a","1",""
"null","","html-keyboard-response","212","311846","0.0-4.0-2.57","","<div style=""font-size:60px;"">+</div>","null","","","","","","",""
"351.9850000157021","","image-keyboard-response","213","312200","0.0-4.0-0.58","","img/green.png","32","trial","32","true","0.8,0.2","1:go_a","",""
"null","","html-keyboard-response","214","313214","0.0-4.0-1.58","","<img src=""img/green-r.png"" border=""10"">","null","trial","32","","0.8,0.2","1:go_a","1",""
"null","","html-keyboard-response","215","314227","0.0-4.0-2.58","","<div style=""font-size:60px;"">+</div>","null","","","","","","",""
"null","","image-keyboard-response","216","315734","0.0-4.0-0.59","","img/pink.png","null","trial","null","true","0.2,0.8","2:nogo_b","",""
"null","","html-keyboard-response","217","316753","0.0-4.0-1.59","","<img src=""img/pink-r.png"">","null","trial","null","","0.2,0.8","2:nogo_b","1",""
"null","","html-keyboard-response","218","317757","0.0-4.0-2.59","","<div style=""font-size:60px;"">+</div>","null","","","","","","",""
"5316.609999979846","","instructions","219","323074","0.0-5.0","[{""page_index"":0,""viewing_time"":5315.434999996796}]","","","","","","","","",""
"718.4750000014901","","image-keyboard-response","220","323794","0.0-6.0-0.0","","img/grey.png","32","trial","32","true","0.6,0.4","3:go_c","",""
"null","","html-keyboard-response","221","324810","0.0-6.0-1.0","","<img src=""img/grey-n.png"" border=""10"">","null","trial","32","","0.6,0.4","3:go_c","0",""
"null","","html-keyboard-response","222","325832","0.0-6.0-2.0","","<div style=""font-size:60px;"">+</div>","null","","","","","","",""
"534.8050000029616","","image-keyboard-response","223","326368","0.0-6.0-0.1","","img/red.png","32","trial","32","true","0.8,0.2","1:go_a","",""
"null","","html-keyboard-response","224","327380","0.0-6.0-1.1","","<img src=""img/red-r.png"" border=""10"">","null","trial","32","","0.8,0.2","1:go_a","1",""
"null","","html-keyboard-response","225","328395","0.0-6.0-2.1","","<div style=""font-size:60px;"">+</div>","null","","","","","","",""
"null","","image-keyboard-response","226","329912","0.0-6.0-0.2","","img/pink.png","null","trial","null","true","0.2,0.8","2:nogo_b","",""
"null","","html-keyboard-response","227","330926","0.0-6.0-1.2","","<img src=""img/pink-r.png"">","null","trial","null","","0.2,0.8","2:nogo_b","1",""
"null","","html-keyboard-response","228","331928","0.0-6.0-2.2","","<div style=""font-size:60px;"">+</div>","null","","","","","","",""
"917.0199999934994","","image-keyboard-response","229","332847","0.0-6.0-0.3","","img/green.png","32","trial","null","false","0.4,0.6","4:nogo_d","",""
"null","","html-keyboard-response","230","333862","0.0-6.0-1.3","","<img src=""img/green-r.png"" border=""10"">","null","trial","null","","0.4,0.6","4:nogo_d","1",""
"null","","html-keyboard-response","231","334881","0.0-6.0-2.3","","<div style=""font-size:60px;"">+</div>","null","","","","","","",""
"483.7200000183657","","image-keyboard-response","232","335369","0.0-6.0-0.4","","img/red.png","32","trial","32","true","0.8,0.2","1:go_a","",""
"null","","html-keyboard-response","233","336386","0.0-6.0-1.4","","<img src=""img/red-r.png"" border=""10"">","null","trial","32","","0.8,0.2","1:go_a","1",""
"null","","html-keyboard-response","234","337401","0.0-6.0-2.4","","<div style=""font-size:60px;"">+</div>","null","","","","","","",""
"null","","image-keyboard-response","235","338914","0.0-6.0-0.5","","img/grey.png","null","trial","32","false","0.6,0.4","3:go_c","",""
"null","","html-keyboard-response","236","339931","0.0-6.0-1.5","","<img src=""img/grey-r.png"">","null","trial","32","","0.6,0.4","3:go_c","1",""
"null","","html-keyboard-response","237","340948","0.0-6.0-2.5","","<div style=""font-size:60px;"">+</div>","null","","","","","","",""
"null","","image-keyboard-response","238","342455","0.0-6.0-0.6","","img/pink.png","null","trial","null","true","0.2,0.8","2:nogo_b","",""
"null","","html-keyboard-response","239","343473","0.0-6.0-1.6","","<img src=""img/pink-r.png"">","null","trial","null","","0.2,0.8","2:nogo_b","1",""
"null","","html-keyboard-response","240","344494","0.0-6.0-2.6","","<div style=""font-size:60px;"">+</div>","null","","","","","","",""
"592.8599999751896","","image-keyboard-response","241","345092","0.0-6.0-0.7","","img/green.png","32","trial","null","false","0.4,0.6","4:nogo_d","",""
"null","","html-keyboard-response","242","346100","0.0-6.0-1.7","","<img src=""img/green-n.png"" border=""10"">","null","trial","null","","0.4,0.6","4:nogo_d","0",""
"null","","html-keyboard-response","243","347115","0.0-6.0-2.7","","<div style=""font-size:60px;"">+</div>","null","","","","","","",""
"381.1299999943003","","image-keyboard-response","244","347504","0.0-6.0-0.8","","img/red.png","32","trial","32","true","0.8,0.2","1:go_a","",""
"null","","html-keyboard-response","245","348516","0.0-6.0-1.8","","<img src=""img/red-r.png"" border=""10"">","null","trial","32","","0.8,0.2","1:go_a","1",""
"null","","html-keyboard-response","246","349531","0.0-6.0-2.8","","<div style=""font-size:60px;"">+</div>","null","","","","","","",""
"699.9749999959022","","image-keyboard-response","247","350235","0.0-6.0-0.9","","img/green.png","32","trial","null","false","0.4,0.6","4:nogo_d","",""
"null","","html-keyboard-response","248","351259","0.0-6.0-1.9","","<img src=""img/green-n.png"" border=""10"">","null","trial","null","","0.4,0.6","4:nogo_d","0",""
"null","","html-keyboard-response","249","352272","0.0-6.0-2.9","","<div style=""font-size:60px;"">+</div>","null","","","","","","",""
"null","","image-keyboard-response","250","353789","0.0-6.0-0.10","","img/pink.png","null","trial","null","true","0.2,0.8","2:nogo_b","",""
"null","","html-keyboard-response","251","354799","0.0-6.0-1.10","","<img src=""img/pink-r.png"">","null","trial","null","","0.2,0.8","2:nogo_b","1",""
"null","","html-keyboard-response","252","355816","0.0-6.0-2.10","","<div style=""font-size:60px;"">+</div>","null","","","","","","",""
"null","","image-keyboard-response","253","357322","0.0-6.0-0.11","","img/grey.png","null","trial","32","false","0.6,0.4","3:go_c","",""
"null","","html-keyboard-response","254","358331","0.0-6.0-1.11","","<img src=""img/grey-r.png"">","null","trial","32","","0.6,0.4","3:go_c","1",""
"null","","html-keyboard-response","255","359334","0.0-6.0-2.11","","<div style=""font-size:60px;"">+</div>","null","","","","","","",""
"null","","image-keyboard-response","256","360839","0.0-6.0-0.12","","img/grey.png","null","trial","32","false","0.6,0.4","3:go_c","",""
"null","","html-keyboard-response","257","361847","0.0-6.0-1.12","","<img src=""img/grey-n.png"">","null","trial","32","","0.6,0.4","3:go_c","0",""
"null","","html-keyboard-response","258","362860","0.0-6.0-2.12","","<div style=""font-size:60px;"">+</div>","null","","","","","","",""
"null","","image-keyboard-response","259","364378","0.0-6.0-0.13","","img/green.png","null","trial","null","true","0.4,0.6","4:nogo_d","",""
"null","","html-keyboard-response","260","365399","0.0-6.0-1.13","","<img src=""img/green-n.png"">","null","trial","null","","0.4,0.6","4:nogo_d","0",""
"null","","html-keyboard-response","261","366418","0.0-6.0-2.13","","<div style=""font-size:60px;"">+</div>","null","","","","","","",""
"null","","image-keyboard-response","262","367921","0.0-6.0-0.14","","img/pink.png","null","trial","null","true","0.2,0.8","2:nogo_b","",""
"null","","html-keyboard-response","263","368928","0.0-6.0-1.14","","<img src=""img/pink-r.png"">","null","trial","null","","0.2,0.8","2:nogo_b","1",""
"null","","html-keyboard-response","264","369946","0.0-6.0-2.14","","<div style=""font-size:60px;"">+</div>","null","","","","","","",""
"390.00999997369945","","image-keyboard-response","265","370343","0.0-6.0-0.15","","img/red.png","32","trial","32","true","0.8,0.2","1:go_a","",""
"null","","html-keyboard-response","266","371365","0.0-6.0-1.15","","<img src=""img/red-r.png"" border=""10"">","null","trial","32","","0.8,0.2","1:go_a","1",""
"null","","html-keyboard-response","267","372381","0.0-6.0-2.15","","<div style=""font-size:60px;"">+</div>","null","","","","","","",""
"null","","image-keyboard-response","268","373894","0.0-6.0-0.16","","img/pink.png","null","trial","null","true","0.2,0.8","2:nogo_b","",""
"null","","html-keyboard-response","269","374909","0.0-6.0-1.16","","<img src=""img/pink-r.png"">","null","trial","null","","0.2,0.8","2:nogo_b","1",""
"null","","html-keyboard-response","270","375923","0.0-6.0-2.16","","<div style=""font-size:60px;"">+</div>","null","","","","","","",""
"999.6850000461563","","image-keyboard-response","271","376928","0.0-6.0-0.17","","img/green.png","32","trial","null","false","0.4,0.6","4:nogo_d","",""
"null","","html-keyboard-response","272","377930","0.0-6.0-1.17","","<img src=""img/green-n.png"" border=""10"">","null","trial","null","","0.4,0.6","4:nogo_d","0",""
"null","","html-keyboard-response","273","378936","0.0-6.0-2.17","","<div style=""font-size:60px;"">+</div>","null","","","","","","",""
"null","","image-keyboard-response","274","380449","0.0-6.0-0.18","","img/grey.png","null","trial","32","false","0.6,0.4","3:go_c","",""
"null","","html-keyboard-response","275","381483","0.0-6.0-1.18","","<img src=""img/grey-n.png"">","null","trial","32","","0.6,0.4","3:go_c","0",""
"null","","html-keyboard-response","276","382498","0.0-6.0-2.18","","<div style=""font-size:60px;"">+</div>","null","","","","","","",""
"575.6149999797344","","image-keyboard-response","277","383077","0.0-6.0-0.19","","img/red.png","32","trial","32","true","0.8,0.2","1:go_a","",""
"null","","html-keyboard-response","278","384096","0.0-6.0-1.19","","<img src=""img/red-r.png"" border=""10"">","null","trial","32","","0.8,0.2","1:go_a","1",""
"null","","html-keyboard-response","279","385112","0.0-6.0-2.19","","<div style=""font-size:60px;"">+</div>","null","","","","","","",""
"null","","image-keyboard-response","280","386617","0.0-6.0-0.20","","img/pink.png","null","trial","null","true","0.2,0.8","2:nogo_b","",""
"null","","html-keyboard-response","281","387629","0.0-6.0-1.20","","<img src=""img/pink-n.png"">","null","trial","null","","0.2,0.8","2:nogo_b","0",""
"null","","html-keyboard-response","282","388636","0.0-6.0-2.20","","<div style=""font-size:60px;"">+</div>","null","","","","","","",""
"null","","image-keyboard-response","283","390147","0.0-6.0-0.21","","img/green.png","null","trial","null","true","0.4,0.6","4:nogo_d","",""
"null","","html-keyboard-response","284","391160","0.0-6.0-1.21","","<img src=""img/green-r.png"">","null","trial","null","","0.4,0.6","4:nogo_d","1",""
"null","","html-keyboard-response","285","392182","0.0-6.0-2.21","","<div style=""font-size:60px;"">+</div>","null","","","","","","",""
"null","","image-keyboard-response","286","393692","0.0-6.0-0.22","","img/grey.png","null","trial","32","false","0.6,0.4","3:go_c","",""
"null","","html-keyboard-response","287","394697","0.0-6.0-1.22","","<img src=""img/grey-r.png"">","null","trial","32","","0.6,0.4","3:go_c","1",""
"null","","html-keyboard-response","288","395717","0.0-6.0-2.22","","<div style=""font-size:60px;"">+</div>","null","","","","","","",""
"1514.165000000503","","image-keyboard-response","289","397234","0.0-6.0-0.23","","img/red.png","32","trial","32","true","0.8,0.2","1:go_a","",""
"null","","html-keyboard-response","290","398255","0.0-6.0-1.23","","<img src=""img/red-r.png"" border=""10"">","null","trial","32","","0.8,0.2","1:go_a","1",""
"null","","html-keyboard-response","291","399273","0.0-6.0-2.23","","<div style=""font-size:60px;"">+</div>","null","","","","","","",""
"null","","image-keyboard-response","292","400785","0.0-6.0-0.24","","img/pink.png","null","trial","null","true","0.2,0.8","2:nogo_b","",""
"null","","html-keyboard-response","293","401799","0.0-6.0-1.24","","<img src=""img/pink-n.png"">","null","trial","null","","0.2,0.8","2:nogo_b","0",""
"null","","html-keyboard-response","294","402809","0.0-6.0-2.24","","<div style=""font-size:60px;"">+</div>","null","","","","","","",""
"null","","image-keyboard-response","295","404321","0.0-6.0-0.25","","img/green.png","null","trial","null","true","0.4,0.6","4:nogo_d","",""
"null","","html-keyboard-response","296","405343","0.0-6.0-1.25","","<img src=""img/green-n.png"">","null","trial","null","","0.4,0.6","4:nogo_d","0",""
"null","","html-keyboard-response","297","406363","0.0-6.0-2.25","","<div style=""font-size:60px;"">+</div>","null","","","","","","",""
"null","","image-keyboard-response","298","407874","0.0-6.0-0.26","","img/grey.png","null","trial","32","false","0.6,0.4","3:go_c","",""
"null","","html-keyboard-response","299","408891","0.0-6.0-1.26","","<img src=""img/grey-r.png"">","null","trial","32","","0.6,0.4","3:go_c","1",""
"null","","html-keyboard-response","300","409910","0.0-6.0-2.26","","<div style=""font-size:60px;"">+</div>","null","","","","","","",""
"499.59499994292855","","image-keyboard-response","301","410411","0.0-6.0-0.27","","img/red.png","32","trial","32","true","0.8,0.2","1:go_a","",""
"null","","html-keyboard-response","302","411414","0.0-6.0-1.27","","<img src=""img/red-r.png"" border=""10"">","null","trial","32","","0.8,0.2","1:go_a","1",""
"null","","html-keyboard-response","303","412427","0.0-6.0-2.27","","<div style=""font-size:60px;"">+</div>","null","","","","","","",""
"489.93999999947846","","image-keyboard-response","304","412919","0.0-6.0-0.28","","img/red.png","32","trial","32","true","0.8,0.2","1:go_a","",""
"null","","html-keyboard-response","305","413930","0.0-6.0-1.28","","<img src=""img/red-n.png"" border=""10"">","null","trial","32","","0.8,0.2","1:go_a","0",""
"null","","html-keyboard-response","306","414948","0.0-6.0-2.28","","<div style=""font-size:60px;"">+</div>","null","","","","","","",""
"435.204999987036","","image-keyboard-response","307","415385","0.0-6.0-0.29","","img/green.png","32","trial","null","false","0.4,0.6","4:nogo_d","",""
"null","","html-keyboard-response","308","416398","0.0-6.0-1.29","","<img src=""img/green-n.png"" border=""10"">","null","trial","null","","0.4,0.6","4:nogo_d","0",""
"null","","html-keyboard-response","309","417419","0.0-6.0-2.29","","<div style=""font-size:60px;"">+</div>","null","","","","","","",""
"null","","image-keyboard-response","310","418932","0.0-6.0-0.30","","img/grey.png","null","trial","32","false","0.6,0.4","3:go_c","",""
"null","","html-keyboard-response","311","419954","0.0-6.0-1.30","","<img src=""img/grey-r.png"">","null","trial","32","","0.6,0.4","3:go_c","1",""
"null","","html-keyboard-response","312","420970","0.0-6.0-2.30","","<div style=""font-size:60px;"">+</div>","null","","","","","","",""
"null","","image-keyboard-response","313","422475","0.0-6.0-0.31","","img/pink.png","null","trial","null","true","0.2,0.8","2:nogo_b","",""
"null","","html-keyboard-response","314","423484","0.0-6.0-1.31","","<img src=""img/pink-r.png"">","null","trial","null","","0.2,0.8","2:nogo_b","1",""
"null","","html-keyboard-response","315","424495","0.0-6.0-2.31","","<div style=""font-size:60px;"">+</div>","null","","","","","","",""
"612.1999999741092","","image-keyboard-response","316","425112","0.0-6.0-0.32","","img/green.png","32","trial","null","false","0.4,0.6","4:nogo_d","",""
"null","","html-keyboard-response","317","426122","0.0-6.0-1.32","","<img src=""img/green-r.png"" border=""10"">","null","trial","null","","0.4,0.6","4:nogo_d","1",""
"null","","html-keyboard-response","318","427138","0.0-6.0-2.32","","<div style=""font-size:60px;"">+</div>","null","","","","","","",""
"null","","image-keyboard-response","319","428643","0.0-6.0-0.33","","img/grey.png","null","trial","32","false","0.6,0.4","3:go_c","",""
"null","","html-keyboard-response","320","429647","0.0-6.0-1.33","","<img src=""img/grey-n.png"">","null","trial","32","","0.6,0.4","3:go_c","0",""
"null","","html-keyboard-response","321","430669","0.0-6.0-2.33","","<div style=""font-size:60px;"">+</div>","null","","","","","","",""
"null","","image-keyboard-response","322","432180","0.0-6.0-0.34","","img/pink.png","null","trial","null","true","0.2,0.8","2:nogo_b","",""
"null","","html-keyboard-response","323","433205","0.0-6.0-1.34","","<img src=""img/pink-r.png"">","null","trial","null","","0.2,0.8","2:nogo_b","1",""
"null","","html-keyboard-response","324","434208","0.0-6.0-2.34","","<div style=""font-size:60px;"">+</div>","null","","","","","","",""
"390.24500001687557","","image-keyboard-response","325","434604","0.0-6.0-0.35","","img/red.png","32","trial","32","true","0.8,0.2","1:go_a","",""
"null","","html-keyboard-response","326","435617","0.0-6.0-1.35","","<img src=""img/red-r.png"" border=""10"">","null","trial","32","","0.8,0.2","1:go_a","1",""
"null","","html-keyboard-response","327","436622","0.0-6.0-2.35","","<div style=""font-size:60px;"">+</div>","null","","","","","","",""
"null","","image-keyboard-response","328","438137","0.0-6.0-0.36","","img/green.png","null","trial","null","true","0.4,0.6","4:nogo_d","",""
"null","","html-keyboard-response","329","439166","0.0-6.0-1.36","","<img src=""img/green-n.png"">","null","trial","null","","0.4,0.6","4:nogo_d","0",""
"null","","html-keyboard-response","330","440179","0.0-6.0-2.36","","<div style=""font-size:60px;"">+</div>","null","","","","","","",""
"543.550000002142","","image-keyboard-response","331","440724","0.0-6.0-0.37","","img/red.png","32","trial","32","true","0.8,0.2","1:go_a","",""
"null","","html-keyboard-response","332","441735","0.0-6.0-1.37","","<img src=""img/red-r.png"" border=""10"">","null","trial","32","","0.8,0.2","1:go_a","1",""
"null","","html-keyboard-response","333","442738","0.0-6.0-2.37","","<div style=""font-size:60px;"">+</div>","null","","","","","","",""
"null","","image-keyboard-response","334","444241","0.0-6.0-0.38","","img/grey.png","null","trial","32","false","0.6,0.4","3:go_c","",""
"null","","html-keyboard-response","335","445248","0.0-6.0-1.38","","<img src=""img/grey-n.png"">","null","trial","32","","0.6,0.4","3:go_c","0",""
"null","","html-keyboard-response","336","446254","0.0-6.0-2.38","","<div style=""font-size:60px;"">+</div>","null","","","","","","",""
"null","","image-keyboard-response","337","447770","0.0-6.0-0.39","","img/pink.png","null","trial","null","true","0.2,0.8","2:nogo_b","",""
"null","","html-keyboard-response","338","448785","0.0-6.0-1.39","","<img src=""img/pink-r.png"">","null","trial","null","","0.2,0.8","2:nogo_b","1",""
"null","","html-keyboard-response","339","449789","0.0-6.0-2.39","","<div style=""font-size:60px;"">+</div>","null","","","","","","",""
"745.4400000278838","","image-keyboard-response","340","450538","0.0-6.0-0.40","","img/green.png","32","trial","null","false","0.4,0.6","4:nogo_d","",""
"null","","html-keyboard-response","341","451543","0.0-6.0-1.40","","<img src=""img/green-n.png"" border=""10"">","null","trial","null","","0.4,0.6","4:nogo_d","0",""
"null","","html-keyboard-response","342","452554","0.0-6.0-2.40","","<div style=""font-size:60px;"">+</div>","null","","","","","","",""
"null","","image-keyboard-response","343","454061","0.0-6.0-0.41","","img/pink.png","null","trial","null","true","0.2,0.8","2:nogo_b","",""
"null","","html-keyboard-response","344","455073","0.0-6.0-1.41","","<img src=""img/pink-r.png"">","null","trial","null","","0.2,0.8","2:nogo_b","1",""
"null","","html-keyboard-response","345","456075","0.0-6.0-2.41","","<div style=""font-size:60px;"">+</div>","null","","","","","","",""
"1240.1100000133738","","image-keyboard-response","346","457318","0.0-6.0-0.42","","img/grey.png","32","trial","32","true","0.6,0.4","3:go_c","",""
"null","","html-keyboard-response","347","458335","0.0-6.0-1.42","","<img src=""img/grey-n.png"" border=""10"">","null","trial","32","","0.6,0.4","3:go_c","0",""
"null","","html-keyboard-response","348","459346","0.0-6.0-2.42","","<div style=""font-size:60px;"">+</div>","null","","","","","","",""
"427.2099999943748","","image-keyboard-response","349","459778","0.0-6.0-0.43","","img/red.png","32","trial","32","true","0.8,0.2","1:go_a","",""
"null","","html-keyboard-response","350","460788","0.0-6.0-1.43","","<img src=""img/red-r.png"" border=""10"">","null","trial","32","","0.8,0.2","1:go_a","1",""
"null","","html-keyboard-response","351","461811","0.0-6.0-2.43","","<div style=""font-size:60px;"">+</div>","null","","","","","","",""
"null","","image-keyboard-response","352","463314","0.0-6.0-0.44","","img/pink.png","null","trial","null","true","0.2,0.8","2:nogo_b","",""
"null","","html-keyboard-response","353","464321","0.0-6.0-1.44","","<img src=""img/pink-r.png"">","null","trial","null","","0.2,0.8","2:nogo_b","1",""
"null","","html-keyboard-response","354","465342","0.0-6.0-2.44","","<div style=""font-size:60px;"">+</div>","null","","","","","","",""
"null","","image-keyboard-response","355","466857","0.0-6.0-0.45","","img/grey.png","null","trial","32","false","0.6,0.4","3:go_c","",""
"null","","html-keyboard-response","356","467873","0.0-6.0-1.45","","<img src=""img/grey-r.png"">","null","trial","32","","0.6,0.4","3:go_c","1",""
"null","","html-keyboard-response","357","468884","0.0-6.0-2.45","","<div style=""font-size:60px;"">+</div>","null","","","","","","",""
"703.8299999549054","","image-keyboard-response","358","469589","0.0-6.0-0.46","","img/red.png","32","trial","32","true","0.8,0.2","1:go_a","",""
"null","","html-keyboard-response","359","470598","0.0-6.0-1.46","","<img src=""img/red-n.png"" border=""10"">","null","trial","32","","0.8,0.2","1:go_a","0",""
"null","","html-keyboard-response","360","471611","0.0-6.0-2.46","","<div style=""font-size:60px;"">+</div>","null","","","","","","",""
"null","","image-keyboard-response","361","473127","0.0-6.0-0.47","","img/green.png","null","trial","null","true","0.4,0.6","4:nogo_d","",""
"null","","html-keyboard-response","362","474138","0.0-6.0-1.47","","<img src=""img/green-r.png"">","null","trial","null","","0.4,0.6","4:nogo_d","1",""
"null","","html-keyboard-response","363","475143","0.0-6.0-2.47","","<div style=""font-size:60px;"">+</div>","null","","","","","","",""
"null","","image-keyboard-response","364","476660","0.0-6.0-0.48","","img/pink.png","null","trial","null","true","0.2,0.8","2:nogo_b","",""
"null","","html-keyboard-response","365","477670","0.0-6.0-1.48","","<img src=""img/pink-n.png"">","null","trial","null","","0.2,0.8","2:nogo_b","0",""
"null","","html-keyboard-response","366","478686","0.0-6.0-2.48","","<div style=""font-size:60px;"">+</div>","null","","","","","","",""
"null","","image-keyboard-response","367","480190","0.0-6.0-0.49","","img/grey.png","null","trial","32","false","0.6,0.4","3:go_c","",""
"null","","html-keyboard-response","368","481214","0.0-6.0-1.49","","<img src=""img/grey-n.png"">","null","trial","32","","0.6,0.4","3:go_c","0",""
"null","","html-keyboard-response","369","482228","0.0-6.0-2.49","","<div style=""font-size:60px;"">+</div>","null","","","","","","",""
"411.89499996835366","","image-keyboard-response","370","482641","0.0-6.0-0.50","","img/red.png","32","trial","32","true","0.8,0.2","1:go_a","",""
"null","","html-keyboard-response","371","483656","0.0-6.0-1.50","","<img src=""img/red-n.png"" border=""10"">","null","trial","32","","0.8,0.2","1:go_a","0",""
"null","","html-keyboard-response","372","484664","0.0-6.0-2.50","","<div style=""font-size:60px;"">+</div>","null","","","","","","",""
"null","","image-keyboard-response","373","486178","0.0-6.0-0.51","","img/green.png","null","trial","null","true","0.4,0.6","4:nogo_d","",""
"null","","html-keyboard-response","374","487187","0.0-6.0-1.51","","<img src=""img/green-n.png"">","null","trial","null","","0.4,0.6","4:nogo_d","0",""
"null","","html-keyboard-response","375","488190","0.0-6.0-2.51","","<div style=""font-size:60px;"">+</div>","null","","","","","","",""
"null","","image-keyboard-response","376","489693","0.0-6.0-0.52","","img/grey.png","null","trial","32","false","0.6,0.4","3:go_c","",""
"null","","html-keyboard-response","377","490711","0.0-6.0-1.52","","<img src=""img/grey-n.png"">","null","trial","32","","0.6,0.4","3:go_c","0",""
"null","","html-keyboard-response","378","491729","0.0-6.0-2.52","","<div style=""font-size:60px;"">+</div>","null","","","","","","",""
"null","","image-keyboard-response","379","493238","0.0-6.0-0.53","","img/green.png","null","trial","null","true","0.4,0.6","4:nogo_d","",""
"null","","html-keyboard-response","380","494249","0.0-6.0-1.53","","<img src=""img/green-r.png"">","null","trial","null","","0.4,0.6","4:nogo_d","1",""
"null","","html-keyboard-response","381","495262","0.0-6.0-2.53","","<div style=""font-size:60px;"">+</div>","null","","","","","","",""
"null","","image-keyboard-response","382","496779","0.0-6.0-0.54","","img/pink.png","null","trial","null","true","0.2,0.8","2:nogo_b","",""
"null","","html-keyboard-response","383","497784","0.0-6.0-1.54","","<img src=""img/pink-r.png"">","null","trial","null","","0.2,0.8","2:nogo_b","1",""
"null","","html-keyboard-response","384","498799","0.0-6.0-2.54","","<div style=""font-size:60px;"">+</div>","null","","","","","","",""
"427.97000001883134","","image-keyboard-response","385","499232","0.0-6.0-0.55","","img/red.png","32","trial","32","true","0.8,0.2","1:go_a","",""
"null","","html-keyboard-response","386","500238","0.0-6.0-1.55","","<img src=""img/red-n.png"" border=""10"">","null","trial","32","","0.8,0.2","1:go_a","0",""
"null","","html-keyboard-response","387","501268","0.0-6.0-2.55","","<div style=""font-size:60px;"">+</div>","null","","","","","","",""
"null","","image-keyboard-response","388","502773","0.0-6.0-0.56","","img/pink.png","null","trial","null","true","0.2,0.8","2:nogo_b","",""
"null","","html-keyboard-response","389","503796","0.0-6.0-1.56","","<img src=""img/pink-r.png"">","null","trial","null","","0.2,0.8","2:nogo_b","1",""
"null","","html-keyboard-response","390","504820","0.0-6.0-2.56","","<div style=""font-size:60px;"">+</div>","null","","","","","","",""
"null","","image-keyboard-response","391","506330","0.0-6.0-0.57","","img/green.png","null","trial","null","true","0.4,0.6","4:nogo_d","",""
"null","","html-keyboard-response","392","507348","0.0-6.0-1.57","","<img src=""img/green-n.png"">","null","trial","null","","0.4,0.6","4:nogo_d","0",""
"null","","html-keyboard-response","393","508358","0.0-6.0-2.57","","<div style=""font-size:60px;"">+</div>","null","","","","","","",""
"544.1749999881722","","image-keyboard-response","394","508905","0.0-6.0-0.58","","img/red.png","32","trial","32","true","0.8,0.2","1:go_a","",""
"null","","html-keyboard-response","395","509909","0.0-6.0-1.58","","<img src=""img/red-n.png"" border=""10"">","null","trial","32","","0.8,0.2","1:go_a","0",""
"null","","html-keyboard-response","396","510930","0.0-6.0-2.58","","<div style=""font-size:60px;"">+</div>","null","","","","","","",""
"1079.8099999665283","","image-keyboard-response","397","512012","0.0-6.0-0.59","","img/grey.png","32","trial","32","true","0.6,0.4","3:go_c","",""
"null","","html-keyboard-response","398","513018","0.0-6.0-1.59","","<img src=""img/grey-r.png"" border=""10"">","null","trial","32","","0.6,0.4","3:go_c","1",""
"null","","html-keyboard-response","399","514033","0.0-6.0-2.59","","<div style=""font-size:60px;"">+</div>","null","","","","","","",""
"null","","image-keyboard-response","400","515538","0.0-6.0-0.60","","img/red.png","null","trial","32","false","0.8,0.2","1:go_a","",""
"null","","html-keyboard-response","401","516550","0.0-6.0-1.60","","<img src=""img/red-r.png"">","null","trial","32","","0.8,0.2","1:go_a","1",""
"null","","html-keyboard-response","402","517562","0.0-6.0-2.60","","<div style=""font-size:60px;"">+</div>","null","","","","","","",""
"null","","image-keyboard-response","403","519074","0.0-6.0-0.61","","img/pink.png","null","trial","null","true","0.2,0.8","2:nogo_b","",""
"null","","html-keyboard-response","404","520088","0.0-6.0-1.61","","<img src=""img/pink-r.png"">","null","trial","null","","0.2,0.8","2:nogo_b","1",""
"null","","html-keyboard-response","405","521104","0.0-6.0-2.61","","<div style=""font-size:60px;"">+</div>","null","","","","","","",""
"null","","image-keyboard-response","406","522610","0.0-6.0-0.62","","img/green.png","null","trial","null","true","0.4,0.6","4:nogo_d","",""
"null","","html-keyboard-response","407","523631","0.0-6.0-1.62","","<img src=""img/green-n.png"">","null","trial","null","","0.4,0.6","4:nogo_d","0",""
"null","","html-keyboard-response","408","524634","0.0-6.0-2.62","","<div style=""font-size:60px;"">+</div>","null","","","","","","",""
"489.53000002074987","","image-keyboard-response","409","525126","0.0-6.0-0.63","","img/grey.png","32","trial","32","true","0.6,0.4","3:go_c","",""
"null","","html-keyboard-response","410","526147","0.0-6.0-1.63","","<img src=""img/grey-r.png"" border=""10"">","null","trial","32","","0.6,0.4","3:go_c","1",""
"null","","html-keyboard-response","411","527166","0.0-6.0-2.63","","<div style=""font-size:60px;"">+</div>","null","","","","","","",""
"422.8550000116229","","image-keyboard-response","412","527592","0.0-6.0-0.64","","img/green.png","32","trial","null","false","0.4,0.6","4:nogo_d","",""
"null","","html-keyboard-response","413","528598","0.0-6.0-1.64","","<img src=""img/green-r.png"" border=""10"">","null","trial","null","","0.4,0.6","4:nogo_d","1",""
"null","","html-keyboard-response","414","529616","0.0-6.0-2.64","","<div style=""font-size:60px;"">+</div>","null","","","","","","",""
"null","","image-keyboard-response","415","531128","0.0-6.0-0.65","","img/red.png","null","trial","32","false","0.8,0.2","1:go_a","",""
"null","","html-keyboard-response","416","532140","0.0-6.0-1.65","","<img src=""img/red-n.png"">","null","trial","32","","0.8,0.2","1:go_a","0",""
"null","","html-keyboard-response","417","533146","0.0-6.0-2.65","","<div style=""font-size:60px;"">+</div>","null","","","","","","",""
"null","","image-keyboard-response","418","534659","0.0-6.0-0.66","","img/pink.png","null","trial","null","true","0.2,0.8","2:nogo_b","",""
"null","","html-keyboard-response","419","535676","0.0-6.0-1.66","","<img src=""img/pink-r.png"">","null","trial","null","","0.2,0.8","2:nogo_b","1",""
"null","","html-keyboard-response","420","536681","0.0-6.0-2.66","","<div style=""font-size:60px;"">+</div>","null","","","","","","",""
"545.7150000147521","","image-keyboard-response","421","537230","0.0-6.0-0.67","","img/grey.png","32","trial","32","true","0.6,0.4","3:go_c","",""
"null","","html-keyboard-response","422","538261","0.0-6.0-1.67","","<img src=""img/grey-r.png"" border=""10"">","null","trial","32","","0.6,0.4","3:go_c","1",""
"null","","html-keyboard-response","423","539290","0.0-6.0-2.67","","<div style=""font-size:60px;"">+</div>","null","","","","","","",""
"547.7950000204146","","image-keyboard-response","424","539845","0.0-6.0-0.68","","img/grey.png","32","trial","32","true","0.6,0.4","3:go_c","",""
"null","","html-keyboard-response","425","540855","0.0-6.0-1.68","","<img src=""img/grey-r.png"" border=""10"">","null","trial","32","","0.6,0.4","3:go_c","1",""
"null","","html-keyboard-response","426","541865","0.0-6.0-2.68","","<div style=""font-size:60px;"">+</div>","null","","","","","","",""
"443.1800000020303","","image-keyboard-response","427","542310","0.0-6.0-0.69","","img/green.png","32","trial","null","false","0.4,0.6","4:nogo_d","",""
"null","","html-keyboard-response","428","543318","0.0-6.0-1.69","","<img src=""img/green-r.png"" border=""10"">","null","trial","null","","0.4,0.6","4:nogo_d","1",""
"null","","html-keyboard-response","429","544321","0.0-6.0-2.69","","<div style=""font-size:60px;"">+</div>","null","","","","","","",""
"568.0350000038743","","image-keyboard-response","430","544895","0.0-6.0-0.70","","img/red.png","32","trial","32","true","0.8,0.2","1:go_a","",""
"null","","html-keyboard-response","431","545905","0.0-6.0-1.70","","<img src=""img/red-r.png"" border=""10"">","null","trial","32","","0.8,0.2","1:go_a","1",""
"null","","html-keyboard-response","432","546915","0.0-6.0-2.70","","<div style=""font-size:60px;"">+</div>","null","","","","","","",""
"null","","image-keyboard-response","433","548420","0.0-6.0-0.71","","img/pink.png","null","trial","null","true","0.2,0.8","2:nogo_b","",""
"null","","html-keyboard-response","434","549443","0.0-6.0-1.71","","<img src=""img/pink-r.png"">","null","trial","null","","0.2,0.8","2:nogo_b","1",""
"null","","html-keyboard-response","435","550458","0.0-6.0-2.71","","<div style=""font-size:60px;"">+</div>","null","","","","","","",""
"599.4899999932386","","image-keyboard-response","436","551063","0.0-6.0-0.72","","img/grey.png","32","trial","32","true","0.6,0.4","3:go_c","",""
"null","","html-keyboard-response","437","552080","0.0-6.0-1.72","","<img src=""img/grey-r.png"" border=""10"">","null","trial","32","","0.6,0.4","3:go_c","1",""
"null","","html-keyboard-response","438","553090","0.0-6.0-2.72","","<div style=""font-size:60px;"">+</div>","null","","","","","","",""
"449.20500001171604","","image-keyboard-response","439","553540","0.0-6.0-0.73","","img/green.png","32","trial","null","false","0.4,0.6","4:nogo_d","",""
"null","","html-keyboard-response","440","554562","0.0-6.0-1.73","","<img src=""img/green-n.png"" border=""10"">","null","trial","null","","0.4,0.6","4:nogo_d","0",""
"null","","html-keyboard-response","441","555566","0.0-6.0-2.73","","<div style=""font-size:60px;"">+</div>","null","","","","","","",""
"525.0849999720231","","image-keyboard-response","442","556095","0.0-6.0-0.74","","img/red.png","32","trial","32","true","0.8,0.2","1:go_a","",""
"null","","html-keyboard-response","443","557139","0.0-6.0-1.74","","<img src=""img/red-n.png"" border=""10"">","null","trial","32","","0.8,0.2","1:go_a","0",""
"null","","html-keyboard-response","444","558149","0.0-6.0-2.74","","<div style=""font-size:60px;"">+</div>","null","","","","","","",""
"null","","image-keyboard-response","445","559667","0.0-6.0-0.75","","img/pink.png","null","trial","null","true","0.2,0.8","2:nogo_b","",""
"null","","html-keyboard-response","446","560684","0.0-6.0-1.75","","<img src=""img/pink-r.png"">","null","trial","null","","0.2,0.8","2:nogo_b","1",""
"null","","html-keyboard-response","447","561691","0.0-6.0-2.75","","<div style=""font-size:60px;"">+</div>","null","","","","","","",""
"716.2849999731407","","image-keyboard-response","448","562415","0.0-6.0-0.76","","img/green.png","32","trial","null","false","0.4,0.6","4:nogo_d","",""
"null","","html-keyboard-response","449","563438","0.0-6.0-1.76","","<img src=""img/green-n.png"" border=""10"">","null","trial","null","","0.4,0.6","4:nogo_d","0",""
"null","","html-keyboard-response","450","564440","0.0-6.0-2.76","","<div style=""font-size:60px;"">+</div>","null","","","","","","",""
"474.9699999811128","","image-keyboard-response","451","564919","0.0-6.0-0.77","","img/red.png","32","trial","32","true","0.8,0.2","1:go_a","",""
"null","","html-keyboard-response","452","565936","0.0-6.0-1.77","","<img src=""img/red-n.png"" border=""10"">","null","trial","32","","0.8,0.2","1:go_a","0",""
"null","","html-keyboard-response","453","566957","0.0-6.0-2.77","","<div style=""font-size:60px;"">+</div>","null","","","","","","",""
"null","","image-keyboard-response","454","568460","0.0-6.0-0.78","","img/pink.png","null","trial","null","true","0.2,0.8","2:nogo_b","",""
"null","","html-keyboard-response","455","569473","0.0-6.0-1.78","","<img src=""img/pink-n.png"">","null","trial","null","","0.2,0.8","2:nogo_b","0",""
"null","","html-keyboard-response","456","570489","0.0-6.0-2.78","","<div style=""font-size:60px;"">+</div>","null","","","","","","",""
"618.3099999907427","","image-keyboard-response","457","571112","0.0-6.0-0.79","","img/grey.png","32","trial","32","true","0.6,0.4","3:go_c","",""
"null","","html-keyboard-response","458","572115","0.0-6.0-1.79","","<img src=""img/grey-n.png"" border=""10"">","null","trial","32","","0.6,0.4","3:go_c","0",""
"null","","html-keyboard-response","459","573136","0.0-6.0-2.79","","<div style=""font-size:60px;"">+</div>","null","","","","","","",""
"608.7650000117719","","image-keyboard-response","460","573748","0.0-6.0-0.80","","img/green.png","32","trial","null","false","0.4,0.6","4:nogo_d","",""
"null","","html-keyboard-response","461","574764","0.0-6.0-1.80","","<img src=""img/green-r.png"" border=""10"">","null","trial","null","","0.4,0.6","4:nogo_d","1",""
"null","","html-keyboard-response","462","575787","0.0-6.0-2.80","","<div style=""font-size:60px;"">+</div>","null","","","","","","",""
"488.2450000150129","","image-keyboard-response","463","576277","0.0-6.0-0.81","","img/red.png","32","trial","32","true","0.8,0.2","1:go_a","",""
"null","","html-keyboard-response","464","577291","0.0-6.0-1.81","","<img src=""img/red-r.png"" border=""10"">","null","trial","32","","0.8,0.2","1:go_a","1",""
"null","","html-keyboard-response","465","578299","0.0-6.0-2.81","","<div style=""font-size:60px;"">+</div>","null","","","","","","",""
"null","","image-keyboard-response","466","579807","0.0-6.0-0.82","","img/pink.png","null","trial","null","true","0.2,0.8","2:nogo_b","",""
"null","","html-keyboard-response","467","580832","0.0-6.0-1.82","","<img src=""img/pink-r.png"">","null","trial","null","","0.2,0.8","2:nogo_b","1",""
"null","","html-keyboard-response","468","581852","0.0-6.0-2.82","","<div style=""font-size:60px;"">+</div>","null","","","","","","",""
"null","","image-keyboard-response","469","583359","0.0-6.0-0.83","","img/grey.png","null","trial","32","false","0.6,0.4","3:go_c","",""
"null","","html-keyboard-response","470","584370","0.0-6.0-1.83","","<img src=""img/grey-n.png"">","null","trial","32","","0.6,0.4","3:go_c","0",""
"null","","html-keyboard-response","471","585389","0.0-6.0-2.83","","<div style=""font-size:60px;"">+</div>","null","","","","","","",""
"542.1300000161864","","image-keyboard-response","472","585932","0.0-6.0-0.84","","img/red.png","32","trial","32","true","0.8,0.2","1:go_a","",""
"null","","html-keyboard-response","473","586960","0.0-6.0-1.84","","<img src=""img/red-r.png"" border=""10"">","null","trial","32","","0.8,0.2","1:go_a","1",""
"null","","html-keyboard-response","474","587969","0.0-6.0-2.84","","<div style=""font-size:60px;"">+</div>","null","","","","","","",""
"720.1900000218302","","image-keyboard-response","475","588693","0.0-6.0-0.85","","img/grey.png","32","trial","32","true","0.6,0.4","3:go_c","",""
"null","","html-keyboard-response","476","589699","0.0-6.0-1.85","","<img src=""img/grey-r.png"" border=""10"">","null","trial","32","","0.6,0.4","3:go_c","1",""
"null","","html-keyboard-response","477","590704","0.0-6.0-2.85","","<div style=""font-size:60px;"">+</div>","null","","","","","","",""
"null","","image-keyboard-response","478","592210","0.0-6.0-0.86","","img/pink.png","null","trial","null","true","0.2,0.8","2:nogo_b","",""
"null","","html-keyboard-response","479","593225","0.0-6.0-1.86","","<img src=""img/pink-r.png"">","null","trial","null","","0.2,0.8","2:nogo_b","1",""
"null","","html-keyboard-response","480","594229","0.0-6.0-2.86","","<div style=""font-size:60px;"">+</div>","null","","","","","","",""
"421.2999999872409","","image-keyboard-response","481","594653","0.0-6.0-0.87","","img/green.png","32","trial","null","false","0.4,0.6","4:nogo_d","",""
"null","","html-keyboard-response","482","595665","0.0-6.0-1.87","","<img src=""img/green-n.png"" border=""10"">","null","trial","null","","0.4,0.6","4:nogo_d","0",""
"null","","html-keyboard-response","483","596683","0.0-6.0-2.87","","<div style=""font-size:60px;"">+</div>","null","","","","","","",""
"null","","image-keyboard-response","484","598188","0.0-6.0-0.88","","img/pink.png","null","trial","null","true","0.2,0.8","2:nogo_b","",""
"null","","html-keyboard-response","485","599201","0.0-6.0-1.88","","<img src=""img/pink-r.png"">","null","trial","null","","0.2,0.8","2:nogo_b","1",""
"null","","html-keyboard-response","486","600215","0.0-6.0-2.88","","<div style=""font-size:60px;"">+</div>","null","","","","","","",""
"417.1199999982491","","image-keyboard-response","487","600637","0.0-6.0-0.89","","img/red.png","32","trial","32","true","0.8,0.2","1:go_a","",""
"null","","html-keyboard-response","488","601643","0.0-6.0-1.89","","<img src=""img/red-r.png"" border=""10"">","null","trial","32","","0.8,0.2","1:go_a","1",""
"null","","html-keyboard-response","489","602651","0.0-6.0-2.89","","<div style=""font-size:60px;"">+</div>","null","","","","","","",""
"422.1399999805726","","image-keyboard-response","490","603075","0.0-6.0-0.90","","img/grey.png","32","trial","32","true","0.6,0.4","3:go_c","",""
"null","","html-keyboard-response","491","604085","0.0-6.0-1.90","","<img src=""img/grey-n.png"" border=""10"">","null","trial","32","","0.6,0.4","3:go_c","0",""
"null","","html-keyboard-response","492","605098","0.0-6.0-2.90","","<div style=""font-size:60px;"">+</div>","null","","","","","","",""
"null","","image-keyboard-response","493","606611","0.0-6.0-0.91","","img/green.png","null","trial","null","true","0.4,0.6","4:nogo_d","",""
"null","","html-keyboard-response","494","607622","0.0-6.0-1.91","","<img src=""img/green-n.png"">","null","trial","null","","0.4,0.6","4:nogo_d","0",""
"null","","html-keyboard-response","495","608638","0.0-6.0-2.91","","<div style=""font-size:60px;"">+</div>","null","","","","","","",""
"627.5649999734014","","image-keyboard-response","496","609268","0.0-6.0-0.92","","img/green.png","32","trial","null","false","0.4,0.6","4:nogo_d","",""
"null","","html-keyboard-response","497","610283","0.0-6.0-1.92","","<img src=""img/green-n.png"" border=""10"">","null","trial","null","","0.4,0.6","4:nogo_d","0",""
"null","","html-keyboard-response","498","611306","0.0-6.0-2.92","","<div style=""font-size:60px;"">+</div>","null","","","","","","",""
"null","","image-keyboard-response","499","612818","0.0-6.0-0.93","","img/pink.png","null","trial","null","true","0.2,0.8","2:nogo_b","",""
"null","","html-keyboard-response","500","613838","0.0-6.0-1.93","","<img src=""img/pink-r.png"">","null","trial","null","","0.2,0.8","2:nogo_b","1",""
"null","","html-keyboard-response","501","614849","0.0-6.0-2.93","","<div style=""font-size:60px;"">+</div>","null","","","","","","",""
"633.7599999969825","","image-keyboard-response","502","615487","0.0-6.0-0.94","","img/grey.png","32","trial","32","true","0.6,0.4","3:go_c","",""
"null","","html-keyboard-response","503","616491","0.0-6.0-1.94","","<img src=""img/grey-r.png"" border=""10"">","null","trial","32","","0.6,0.4","3:go_c","1",""
"null","","html-keyboard-response","504","617496","0.0-6.0-2.94","","<div style=""font-size:60px;"">+</div>","null","","","","","","",""
"353.20000001229346","","image-keyboard-response","505","617851","0.0-6.0-0.95","","img/red.png","32","trial","32","true","0.8,0.2","1:go_a","",""
"null","","html-keyboard-response","506","618868","0.0-6.0-1.95","","<img src=""img/red-r.png"" border=""10"">","null","trial","32","","0.8,0.2","1:go_a","1",""
"null","","html-keyboard-response","507","619883","0.0-6.0-2.95","","<div style=""font-size:60px;"">+</div>","null","","","","","","",""
"546.4999999967404","","image-keyboard-response","508","620431","0.0-6.0-0.96","","img/red.png","32","trial","32","true","0.8,0.2","1:go_a","",""
"null","","html-keyboard-response","509","621440","0.0-6.0-1.96","","<img src=""img/red-r.png"" border=""10"">","null","trial","32","","0.8,0.2","1:go_a","1",""
"null","","html-keyboard-response","510","622452","0.0-6.0-2.96","","<div style=""font-size:60px;"">+</div>","null","","","","","","",""
"null","","image-keyboard-response","511","623965","0.0-6.0-0.97","","img/pink.png","null","trial","null","true","0.2,0.8","2:nogo_b","",""
"null","","html-keyboard-response","512","624973","0.0-6.0-1.97","","<img src=""img/pink-r.png"">","null","trial","null","","0.2,0.8","2:nogo_b","1",""
"null","","html-keyboard-response","513","625984","0.0-6.0-2.97","","<div style=""font-size:60px;"">+</div>","null","","","","","","",""
"557.6200000359677","","image-keyboard-response","514","626544","0.0-6.0-0.98","","img/green.png","32","trial","null","false","0.4,0.6","4:nogo_d","",""
"null","","html-keyboard-response","515","627550","0.0-6.0-1.98","","<img src=""img/green-n.png"" border=""10"">","null","trial","null","","0.4,0.6","4:nogo_d","0",""
"null","","html-keyboard-response","516","628556","0.0-6.0-2.98","","<div style=""font-size:60px;"">+</div>","null","","","","","","",""
"583.3299999940209","","image-keyboard-response","517","629143","0.0-6.0-0.99","","img/grey.png","32","trial","32","true","0.6,0.4","3:go_c","",""
"null","","html-keyboard-response","518","630151","0.0-6.0-1.99","","<img src=""img/grey-n.png"" border=""10"">","null","trial","32","","0.6,0.4","3:go_c","0",""
"null","","html-keyboard-response","519","631168","0.0-6.0-2.99","","<div style=""font-size:60px;"">+</div>","null","","","","","","",""
"null","","image-keyboard-response","520","632676","0.0-6.0-0.100","","img/green.png","null","trial","null","true","0.4,0.6","4:nogo_d","",""
"null","","html-keyboard-response","521","633687","0.0-6.0-1.100","","<img src=""img/green-r.png"">","null","trial","null","","0.4,0.6","4:nogo_d","1",""
"null","","html-keyboard-response","522","634702","0.0-6.0-2.100","","<div style=""font-size:60px;"">+</div>","null","","","","","","",""
"null","","image-keyboard-response","523","636215","0.0-6.0-0.101","","img/pink.png","null","trial","null","true","0.2,0.8","2:nogo_b","",""
"null","","html-keyboard-response","524","637233","0.0-6.0-1.101","","<img src=""img/pink-r.png"">","null","trial","null","","0.2,0.8","2:nogo_b","1",""
"null","","html-keyboard-response","525","638255","0.0-6.0-2.101","","<div style=""font-size:60px;"">+</div>","null","","","","","","",""
"521.8649999587797","","image-keyboard-response","526","638781","0.0-6.0-0.102","","img/red.png","32","trial","32","true","0.8,0.2","1:go_a","",""
"null","","html-keyboard-response","527","639788","0.0-6.0-1.102","","<img src=""img/red-r.png"" border=""10"">","null","trial","32","","0.8,0.2","1:go_a","1",""
"null","","html-keyboard-response","528","640802","0.0-6.0-2.102","","<div style=""font-size:60px;"">+</div>","null","","","","","","",""
"439.95500000892207","","image-keyboard-response","529","641243","0.0-6.0-0.103","","img/grey.png","32","trial","32","true","0.6,0.4","3:go_c","",""
"null","","html-keyboard-response","530","642262","0.0-6.0-1.103","","<img src=""img/grey-r.png"" border=""10"">","null","trial","32","","0.6,0.4","3:go_c","1",""
"null","","html-keyboard-response","531","643273","0.0-6.0-2.103","","<div style=""font-size:60px;"">+</div>","null","","","","","","",""
"null","","image-keyboard-response","532","644780","0.0-6.0-0.104","","img/green.png","null","trial","null","true","0.4,0.6","4:nogo_d","",""
"null","","html-keyboard-response","533","645791","0.0-6.0-1.104","","<img src=""img/green-r.png"">","null","trial","null","","0.4,0.6","4:nogo_d","1",""
"null","","html-keyboard-response","534","646801","0.0-6.0-2.104","","<div style=""font-size:60px;"">+</div>","null","","","","","","",""
"null","","image-keyboard-response","535","648310","0.0-6.0-0.105","","img/pink.png","null","trial","null","true","0.2,0.8","2:nogo_b","",""
"null","","html-keyboard-response","536","649316","0.0-6.0-1.105","","<img src=""img/pink-n.png"">","null","trial","null","","0.2,0.8","2:nogo_b","0",""
"null","","html-keyboard-response","537","650327","0.0-6.0-2.105","","<div style=""font-size:60px;"">+</div>","null","","","","","","",""
"451.6149999690242","","image-keyboard-response","538","650782","0.0-6.0-0.106","","img/red.png","32","trial","32","true","0.8,0.2","1:go_a","",""
"null","","html-keyboard-response","539","651799","0.0-6.0-1.106","","<img src=""img/red-r.png"" border=""10"">","null","trial","32","","0.8,0.2","1:go_a","1",""
"null","","html-keyboard-response","540","652808","0.0-6.0-2.106","","<div style=""font-size:60px;"">+</div>","null","","","","","","",""
"442.5399999599904","","image-keyboard-response","541","653251","0.0-6.0-0.107","","img/grey.png","32","trial","32","true","0.6,0.4","3:go_c","",""
"null","","html-keyboard-response","542","654258","0.0-6.0-1.107","","<img src=""img/grey-r.png"" border=""10"">","null","trial","32","","0.6,0.4","3:go_c","1",""
"null","","html-keyboard-response","543","655278","0.0-6.0-2.107","","<div style=""font-size:60px;"">+</div>","null","","","","","","",""
"null","","image-keyboard-response","544","656796","0.0-6.0-0.108","","img/green.png","null","trial","null","true","0.4,0.6","4:nogo_d","",""
"null","","html-keyboard-response","545","657802","0.0-6.0-1.108","","<img src=""img/green-r.png"">","null","trial","null","","0.4,0.6","4:nogo_d","1",""
"null","","html-keyboard-response","546","658827","0.0-6.0-2.108","","<div style=""font-size:60px;"">+</div>","null","","","","","","",""
"null","","image-keyboard-response","547","660335","0.0-6.0-0.109","","img/pink.png","null","trial","null","true","0.2,0.8","2:nogo_b","",""
"null","","html-keyboard-response","548","661357","0.0-6.0-1.109","","<img src=""img/pink-r.png"">","null","trial","null","","0.2,0.8","2:nogo_b","1",""
"null","","html-keyboard-response","549","662371","0.0-6.0-2.109","","<div style=""font-size:60px;"">+</div>","null","","","","","","",""
"501.1999999987893","","image-keyboard-response","550","662874","0.0-6.0-0.110","","img/red.png","32","trial","32","true","0.8,0.2","1:go_a","",""
"null","","html-keyboard-response","551","663884","0.0-6.0-1.110","","<img src=""img/red-r.png"" border=""10"">","null","trial","32","","0.8,0.2","1:go_a","1",""
"null","","html-keyboard-response","552","664893","0.0-6.0-2.110","","<div style=""font-size:60px;"">+</div>","null","","","","","","",""
"481.57000000355765","","image-keyboard-response","553","665378","0.0-6.0-0.111","","img/grey.png","32","trial","32","true","0.6,0.4","3:go_c","",""
"null","","html-keyboard-response","554","666404","0.0-6.0-1.111","","<img src=""img/grey-r.png"" border=""10"">","null","trial","32","","0.6,0.4","3:go_c","1",""
"null","","html-keyboard-response","555","667439","0.0-6.0-2.111","","<div style=""font-size:60px;"">+</div>","null","","","","","","",""
"null","","image-keyboard-response","556","668944","0.0-6.0-0.112","","img/pink.png","null","trial","null","true","0.2,0.8","2:nogo_b","",""
"null","","html-keyboard-response","557","669952","0.0-6.0-1.112","","<img src=""img/pink-r.png"">","null","trial","null","","0.2,0.8","2:nogo_b","1",""
"null","","html-keyboard-response","558","670958","0.0-6.0-2.112","","<div style=""font-size:60px;"">+</div>","null","","","","","","",""
"482.62500000419095","","image-keyboard-response","559","671446","0.0-6.0-0.113","","img/grey.png","32","trial","32","true","0.6,0.4","3:go_c","",""
"null","","html-keyboard-response","560","672452","0.0-6.0-1.113","","<img src=""img/grey-r.png"" border=""10"">","null","trial","32","","0.6,0.4","3:go_c","1",""
"null","","html-keyboard-response","561","673470","0.0-6.0-2.113","","<div style=""font-size:60px;"">+</div>","null","","","","","","",""
"null","","image-keyboard-response","562","674988","0.0-6.0-0.114","","img/green.png","null","trial","null","true","0.4,0.6","4:nogo_d","",""
"null","","html-keyboard-response","563","675993","0.0-6.0-1.114","","<img src=""img/green-n.png"">","null","trial","null","","0.4,0.6","4:nogo_d","0",""
"null","","html-keyboard-response","564","677009","0.0-6.0-2.114","","<div style=""font-size:60px;"">+</div>","null","","","","","","",""
"454.799999948591","","image-keyboard-response","565","677468","0.0-6.0-0.115","","img/red.png","32","trial","32","true","0.8,0.2","1:go_a","",""
"null","","html-keyboard-response","566","678487","0.0-6.0-1.115","","<img src=""img/red-r.png"" border=""10"">","null","trial","32","","0.8,0.2","1:go_a","1",""
"null","","html-keyboard-response","567","679506","0.0-6.0-2.115","","<div style=""font-size:60px;"">+</div>","null","","","","","","",""
"439.2750000115484","","image-keyboard-response","568","679949","0.0-6.0-0.116","","img/red.png","32","trial","32","true","0.8,0.2","1:go_a","",""
"null","","html-keyboard-response","569","680972","0.0-6.0-1.116","","<img src=""img/red-n.png"" border=""10"">","null","trial","32","","0.8,0.2","1:go_a","0",""
"null","","html-keyboard-response","570","681985","0.0-6.0-2.116","","<div style=""font-size:60px;"">+</div>","null","","","","","","",""
"417.1199999982491","","image-keyboard-response","571","682407","0.0-6.0-0.117","","img/grey.png","32","trial","32","true","0.6,0.4","3:go_c","",""
"null","","html-keyboard-response","572","683429","0.0-6.0-1.117","","<img src=""img/grey-n.png"" border=""10"">","null","trial","32","","0.6,0.4","3:go_c","0",""
"null","","html-keyboard-response","573","684435","0.0-6.0-2.117","","<div style=""font-size:60px;"">+</div>","null","","","","","","",""
"null","","image-keyboard-response","574","685953","0.0-6.0-0.118","","img/green.png","null","trial","null","true","0.4,0.6","4:nogo_d","",""
"null","","html-keyboard-response","575","686969","0.0-6.0-1.118","","<img src=""img/green-n.png"">","null","trial","null","","0.4,0.6","4:nogo_d","0",""
"null","","html-keyboard-response","576","687986","0.0-6.0-2.118","","<div style=""font-size:60px;"">+</div>","null","","","","","","",""
"null","","image-keyboard-response","577","689497","0.0-6.0-0.119","","img/pink.png","null","trial","null","true","0.2,0.8","2:nogo_b","",""
"null","","html-keyboard-response","578","690504","0.0-6.0-1.119","","<img src=""img/pink-r.png"">","null","trial","null","","0.2,0.8","2:nogo_b","1",""
"null","","html-keyboard-response","579","691521","0.0-6.0-2.119","","<div style=""font-size:60px;"">+</div>","null","","","","","","",""
"48292.549999954645","","instructions","580","739815","0.0-7.0","[{""page_index"":0,""viewing_time"":48291.049999999814}]","","","","","","","","",""
"null","","image-keyboard-response","581","741326","0.0-8.0-0.0","","img/pink.png","null","trial","null","true","0.2,0.8","2:nogo_b","",""
"null","","html-keyboard-response","582","742337","0.0-8.0-1.0","","<img src=""img/pink-r.png"">","null","trial","null","","0.2,0.8","2:nogo_b","1",""
"null","","html-keyboard-response","583","743354","0.0-8.0-2.0","","<div style=""font-size:60px;"">+</div>","null","","","","","","",""
"653.7699999753386","","image-keyboard-response","584","744009","0.0-8.0-0.1","","img/blue.png","32","trial","32","true","0.8,0.2","1:go_a","",""
"null","","html-keyboard-response","585","745028","0.0-8.0-1.1","","<img src=""img/blue-r.png"" border=""10"">","null","trial","32","","0.8,0.2","1:go_a","1",""
"null","","html-keyboard-response","586","746035","0.0-8.0-2.1","","<div style=""font-size:60px;"">+</div>","null","","","","","","",""
"531.2949999934062","","image-keyboard-response","587","746570","0.0-8.0-0.2","","img/red.png","32","trial","32","true","1,0","3:go_c","",""
"null","","html-keyboard-response","588","747585","0.0-8.0-1.2","","<img src=""img/red-r.png"" border=""10"">","null","trial","32","","1,0","3:go_c","1",""
"null","","html-keyboard-response","589","748589","0.0-8.0-2.2","","<div style=""font-size:60px;"">+</div>","null","","","","","","",""
"682.7199999825098","","image-keyboard-response","590","749274","0.0-8.0-0.3","","img/green.png","32","trial","null","false","0,1","4:nogo_d","",""
"null","","html-keyboard-response","591","750292","0.0-8.0-1.3","","<img src=""img/green-n.png"" border=""10"">","null","trial","null","","0,1","4:nogo_d","0",""
"null","","html-keyboard-response","592","751301","0.0-8.0-2.3","","<div style=""font-size:60px;"">+</div>","null","","","","","","",""
"632.3050000355579","","image-keyboard-response","593","751938","0.0-8.0-0.4","","img/red.png","32","trial","32","true","1,0","3:go_c","",""
"null","","html-keyboard-response","594","752957","0.0-8.0-1.4","","<img src=""img/red-r.png"" border=""10"">","null","trial","32","","1,0","3:go_c","1",""
"null","","html-keyboard-response","595","753971","0.0-8.0-2.4","","<div style=""font-size:60px;"">+</div>","null","","","","","","",""
"null","","image-keyboard-response","596","755481","0.0-8.0-0.5","","img/green.png","null","trial","null","true","0,1","4:nogo_d","",""
"null","","html-keyboard-response","597","756491","0.0-8.0-1.5","","<img src=""img/green-r.png"">","null","trial","null","","0,1","4:nogo_d","1",""
"null","","html-keyboard-response","598","757510","0.0-8.0-2.5","","<div style=""font-size:60px;"">+</div>","null","","","","","","",""
"null","","image-keyboard-response","599","759020","0.0-8.0-0.6","","img/pink.png","null","trial","null","true","0.2,0.8","2:nogo_b","",""
"null","","html-keyboard-response","600","760025","0.0-8.0-1.6","","<img src=""img/pink-r.png"">","null","trial","null","","0.2,0.8","2:nogo_b","1",""
"null","","html-keyboard-response","601","761038","0.0-8.0-2.6","","<div style=""font-size:60px;"">+</div>","null","","","","","","",""
"494.2649999866262","","image-keyboard-response","602","761538","0.0-8.0-0.7","","img/blue.png","32","trial","32","true","0.8,0.2","1:go_a","",""
"null","","html-keyboard-response","603","762555","0.0-8.0-1.7","","<img src=""img/blue-n.png"" border=""10"">","null","trial","32","","0.8,0.2","1:go_a","0",""
"null","","html-keyboard-response","604","763559","0.0-8.0-2.7","","<div style=""font-size:60px;"">+</div>","null","","","","","","",""
"null","","image-keyboard-response","605","765072","0.0-8.0-0.8","","img/green.png","null","trial","null","true","0,1","4:nogo_d","",""
"null","","html-keyboard-response","606","766087","0.0-8.0-1.8","","<img src=""img/green-r.png"">","null","trial","null","","0,1","4:nogo_d","1",""
"null","","html-keyboard-response","607","767105","0.0-8.0-2.8","","<div style=""font-size:60px;"">+</div>","null","","","","","","",""
"null","","image-keyboard-response","608","768618","0.0-8.0-0.9","","img/pink.png","null","trial","null","true","0.2,0.8","2:nogo_b","",""
"null","","html-keyboard-response","609","769654","0.0-8.0-1.9","","<img src=""img/pink-n.png"">","null","trial","null","","0.2,0.8","2:nogo_b","0",""
"null","","html-keyboard-response","610","770669","0.0-8.0-2.9","","<div style=""font-size:60px;"">+</div>","null","","","","","","",""
"401.85500000370666","","image-keyboard-response","611","771073","0.0-8.0-0.10","","img/red.png","32","trial","32","true","1,0","3:go_c","",""
"null","","html-keyboard-response","612","772081","0.0-8.0-1.10","","<img src=""img/red-r.png"" border=""10"">","null","trial","32","","1,0","3:go_c","1",""
"null","","html-keyboard-response","613","773101","0.0-8.0-2.10","","<div style=""font-size:60px;"">+</div>","null","","","","","","",""
"461.3450000179","","image-keyboard-response","614","773564","0.0-8.0-0.11","","img/blue.png","32","trial","32","true","0.8,0.2","1:go_a","",""
"null","","html-keyboard-response","615","774582","0.0-8.0-1.11","","<img src=""img/blue-r.png"" border=""10"">","null","trial","32","","0.8,0.2","1:go_a","1",""
"null","","html-keyboard-response","616","775591","0.0-8.0-2.11","","<div style=""font-size:60px;"">+</div>","null","","","","","","",""
"447.08499999251217","","image-keyboard-response","617","776041","0.0-8.0-0.12","","img/blue.png","32","trial","32","true","0.8,0.2","1:go_a","",""
"null","","html-keyboard-response","618","777060","0.0-8.0-1.12","","<img src=""img/blue-n.png"" border=""10"">","null","trial","32","","0.8,0.2","1:go_a","0",""
"null","","html-keyboard-response","619","778069","0.0-8.0-2.12","","<div style=""font-size:60px;"">+</div>","null","","","","","","",""
"496.820000000298","","image-keyboard-response","620","778568","0.0-8.0-0.13","","img/red.png","32","trial","32","true","1,0","3:go_c","",""
"null","","html-keyboard-response","621","779578","0.0-8.0-1.13","","<img src=""img/red-r.png"" border=""10"">","null","trial","32","","1,0","3:go_c","1",""
"null","","html-keyboard-response","622","780588","0.0-8.0-2.13","","<div style=""font-size:60px;"">+</div>","null","","","","","","",""
"null","","image-keyboard-response","623","782093","0.0-8.0-0.14","","img/pink.png","null","trial","null","true","0.2,0.8","2:nogo_b","",""
"null","","html-keyboard-response","624","783102","0.0-8.0-1.14","","<img src=""img/pink-r.png"">","null","trial","null","","0.2,0.8","2:nogo_b","1",""
"null","","html-keyboard-response","625","784118","0.0-8.0-2.14","","<div style=""font-size:60px;"">+</div>","null","","","","","","",""
"null","","image-keyboard-response","626","785629","0.0-8.0-0.15","","img/green.png","null","trial","null","true","0,1","4:nogo_d","",""
"null","","html-keyboard-response","627","786639","0.0-8.0-1.15","","<img src=""img/green-r.png"">","null","trial","null","","0,1","4:nogo_d","1",""
"null","","html-keyboard-response","628","787653","0.0-8.0-2.15","","<div style=""font-size:60px;"">+</div>","null","","","","","","",""
"null","","image-keyboard-response","629","789169","0.0-8.0-0.16","","img/pink.png","null","trial","null","true","0.2,0.8","2:nogo_b","",""
"null","","html-keyboard-response","630","790175","0.0-8.0-1.16","","<img src=""img/pink-r.png"">","null","trial","null","","0.2,0.8","2:nogo_b","1",""
"null","","html-keyboard-response","631","791191","0.0-8.0-2.16","","<div style=""font-size:60px;"">+</div>","null","","","","","","",""
"null","","image-keyboard-response","632","792697","0.0-8.0-0.17","","img/green.png","null","trial","null","true","0,1","4:nogo_d","",""
"null","","html-keyboard-response","633","793706","0.0-8.0-1.17","","<img src=""img/green-r.png"">","null","trial","null","","0,1","4:nogo_d","1",""
"null","","html-keyboard-response","634","794718","0.0-8.0-2.17","","<div style=""font-size:60px;"">+</div>","null","","","","","","",""
"493.480000004638","","image-keyboard-response","635","795217","0.0-8.0-0.18","","img/red.png","32","trial","32","true","1,0","3:go_c","",""
"null","","html-keyboard-response","636","796224","0.0-8.0-1.18","","<img src=""img/red-r.png"" border=""10"">","null","trial","32","","1,0","3:go_c","1",""
"null","","html-keyboard-response","637","797241","0.0-8.0-2.18","","<div style=""font-size:60px;"">+</div>","null","","","","","","",""
"383.0300000263378","","image-keyboard-response","638","797628","0.0-8.0-0.19","","img/blue.png","32","trial","32","true","0.8,0.2","1:go_a","",""
"null","","html-keyboard-response","639","798637","0.0-8.0-1.19","","<img src=""img/blue-r.png"" border=""10"">","null","trial","32","","0.8,0.2","1:go_a","1",""
"null","","html-keyboard-response","640","799654","0.0-8.0-2.19","","<div style=""font-size:60px;"">+</div>","null","","","","","","",""
"432.0200000074692","","image-keyboard-response","641","800091","0.0-8.0-0.20","","img/red.png","32","trial","32","true","1,0","3:go_c","",""
"null","","html-keyboard-response","642","801098","0.0-8.0-1.20","","<img src=""img/red-r.png"" border=""10"">","null","trial","32","","1,0","3:go_c","1",""
"null","","html-keyboard-response","643","802104","0.0-8.0-2.20","","<div style=""font-size:60px;"">+</div>","null","","","","","","",""
"null","","image-keyboard-response","644","803617","0.0-8.0-0.21","","img/green.png","null","trial","null","true","0,1","4:nogo_d","",""
"null","","html-keyboard-response","645","804621","0.0-8.0-1.21","","<img src=""img/green-r.png"">","null","trial","null","","0,1","4:nogo_d","1",""
"null","","html-keyboard-response","646","805638","0.0-8.0-2.21","","<div style=""font-size:60px;"">+</div>","null","","","","","","",""
"null","","image-keyboard-response","647","807143","0.0-8.0-0.22","","img/pink.png","null","trial","null","true","0.2,0.8","2:nogo_b","",""
"null","","html-keyboard-response","648","808163","0.0-8.0-1.22","","<img src=""img/pink-r.png"">","null","trial","null","","0.2,0.8","2:nogo_b","1",""
"null","","html-keyboard-response","649","809177","0.0-8.0-2.22","","<div style=""font-size:60px;"">+</div>","null","","","","","","",""
"486.91000003600493","","image-keyboard-response","650","809666","0.0-8.0-0.23","","img/blue.png","32","trial","32","true","0.8,0.2","1:go_a","",""
"null","","html-keyboard-response","651","810669","0.0-8.0-1.23","","<img src=""img/blue-r.png"" border=""10"">","null","trial","32","","0.8,0.2","1:go_a","1",""
"null","","html-keyboard-response","652","811688","0.0-8.0-2.23","","<div style=""font-size:60px;"">+</div>","null","","","","","","",""
"411.3000000361353","","image-keyboard-response","653","812101","0.0-8.0-0.24","","img/blue.png","32","trial","32","true","0.8,0.2","1:go_a","",""
"null","","html-keyboard-response","654","813123","0.0-8.0-1.24","","<img src=""img/blue-r.png"" border=""10"">","null","trial","32","","0.8,0.2","1:go_a","1",""
"null","","html-keyboard-response","655","814142","0.0-8.0-2.24","","<div style=""font-size:60px;"">+</div>","null","","","","","","",""
"382.80999998096377","","image-keyboard-response","656","814528","0.0-8.0-0.25","","img/red.png","32","trial","32","true","1,0","3:go_c","",""
"null","","html-keyboard-response","657","815536","0.0-8.0-1.25","","<img src=""img/red-r.png"" border=""10"">","null","trial","32","","1,0","3:go_c","1",""
"null","","html-keyboard-response","658","816548","0.0-8.0-2.25","","<div style=""font-size:60px;"">+</div>","null","","","","","","",""
"null","","image-keyboard-response","659","818062","0.0-8.0-0.26","","img/green.png","null","trial","null","true","0,1","4:nogo_d","",""
"null","","html-keyboard-response","660","819069","0.0-8.0-1.26","","<img src=""img/green-r.png"">","null","trial","null","","0,1","4:nogo_d","1",""
"null","","html-keyboard-response","661","820070","0.0-8.0-2.26","","<div style=""font-size:60px;"">+</div>","null","","","","","","",""
"null","","image-keyboard-response","662","821573","0.0-8.0-0.27","","img/pink.png","null","trial","null","true","0.2,0.8","2:nogo_b","",""
"null","","html-keyboard-response","663","822586","0.0-8.0-1.27","","<img src=""img/pink-r.png"">","null","trial","null","","0.2,0.8","2:nogo_b","1",""
"null","","html-keyboard-response","664","823598","0.0-8.0-2.27","","<div style=""font-size:60px;"">+</div>","null","","","","","","",""
"null","","image-keyboard-response","665","825106","0.0-8.0-0.28","","img/pink.png","null","trial","null","true","0.2,0.8","2:nogo_b","",""
"null","","html-keyboard-response","666","826120","0.0-8.0-1.28","","<img src=""img/pink-r.png"">","null","trial","null","","0.2,0.8","2:nogo_b","1",""
"null","","html-keyboard-response","667","827138","0.0-8.0-2.28","","<div style=""font-size:60px;"">+</div>","null","","","","","","",""
"625.9800000116229","","image-keyboard-response","668","827769","0.0-8.0-0.29","","img/red.png","32","trial","32","true","1,0","3:go_c","",""
"null","","html-keyboard-response","669","828786","0.0-8.0-1.29","","<img src=""img/red-r.png"" border=""10"">","null","trial","32","","1,0","3:go_c","1",""
"null","","html-keyboard-response","670","829814","0.0-8.0-2.29","","<div style=""font-size:60px;"">+</div>","null","","","","","","",""
"null","","image-keyboard-response","671","831324","0.0-8.0-0.30","","img/green.png","null","trial","null","true","0,1","4:nogo_d","",""
"null","","html-keyboard-response","672","832331","0.0-8.0-1.30","","<img src=""img/green-r.png"">","null","trial","null","","0,1","4:nogo_d","1",""
"null","","html-keyboard-response","673","833348","0.0-8.0-2.30","","<div style=""font-size:60px;"">+</div>","null","","","","","","",""
"465.28000000398606","","image-keyboard-response","674","833816","0.0-8.0-0.31","","img/blue.png","32","trial","32","true","0.8,0.2","1:go_a","",""
"null","","html-keyboard-response","675","834830","0.0-8.0-1.31","","<img src=""img/blue-r.png"" border=""10"">","null","trial","32","","0.8,0.2","1:go_a","1",""
"null","","html-keyboard-response","676","835836","0.0-8.0-2.31","","<div style=""font-size:60px;"">+</div>","null","","","","","","",""
"null","","image-keyboard-response","677","837342","0.0-8.0-0.32","","img/green.png","null","trial","null","true","0,1","4:nogo_d","",""
"null","","html-keyboard-response","678","838357","0.0-8.0-1.32","","<img src=""img/green-r.png"">","null","trial","null","","0,1","4:nogo_d","1",""
"null","","html-keyboard-response","679","839367","0.0-8.0-2.32","","<div style=""font-size:60px;"">+</div>","null","","","","","","",""
"437.1500000124797","","image-keyboard-response","680","839808","0.0-8.0-0.33","","img/red.png","32","trial","32","true","1,0","3:go_c","",""
"null","","html-keyboard-response","681","840829","0.0-8.0-1.33","","<img src=""img/red-r.png"" border=""10"">","null","trial","32","","1,0","3:go_c","1",""
"null","","html-keyboard-response","682","841853","0.0-8.0-2.33","","<div style=""font-size:60px;"">+</div>","null","","","","","","",""
"456.7649999517016","","image-keyboard-response","683","842311","0.0-8.0-0.34","","img/blue.png","32","trial","32","true","0.8,0.2","1:go_a","",""
"null","","html-keyboard-response","684","843314","0.0-8.0-1.34","","<img src=""img/blue-r.png"" border=""10"">","null","trial","32","","0.8,0.2","1:go_a","1",""
