"rt","url","trial_type","trial_index","time_elapsed","internal_node_id","view_history","stimulus","key_press","test_part","correct_response","correct","use_rew","which_stim","reward","responses"
"32300.074999999197","consent.html","external-html","0","32392","0.0-0.0","","","","","","","","","",""
"118234.57999999664","","instructions","1","150626","0.0-1.0","[{""page_index"":0,""viewing_time"":6055.254999999306},{""page_index"":1,""viewing_time"":22447.82000000123},{""page_index"":2,""viewing_time"":8684.000000001106},{""page_index"":3,""viewing_time"":39928.249999997206},{""page_index"":4,""viewing_time"":16148.719999997411},{""page_index"":5,""viewing_time"":8015.93000000139},{""page_index"":6,""viewing_time"":16954.0199999974}]","","","","","","","","",""
"null","","image-keyboard-response","2","152143","0.0-2.0-0.0","","img/test3.PNG","null","practice","null","true","","","",""
"null","","html-keyboard-response","3","153155","0.0-2.0-1.0","","<img src=""img/test3-reward.PNG"">","null","","","","","","",""
"null","","html-keyboard-response","4","154172","0.0-2.0-2.0","","<div style=""font-size:60px;"">+</div>","null","","","","","","",""
"null","","image-keyboard-response","5","155677","0.0-2.0-0.1","","img/test2.PNG","null","practice","null","true","","","",""
"null","","html-keyboard-response","6","156680","0.0-2.0-1.1","","<img src=""img/test2-reward.PNG"">","null","","","","","","",""
"null","","html-keyboard-response","7","157684","0.0-2.0-2.1","","<div style=""font-size:60px;"">+</div>","null","","","","","","",""
"500.4750000007334","","image-keyboard-response","8","158186","0.0-2.0-0.2","","img/test1.PNG","32","practice","32","true","","","",""
"null","","html-keyboard-response","9","159198","0.0-2.0-1.2","","<img src=""img/test1-reward.PNG"" border=""10px; grey"">","null","","","","","","",""
"null","","html-keyboard-response","10","160200","0.0-2.0-2.2","","<div style=""font-size:60px;"">+</div>","null","","","","","","",""
"null","","image-keyboard-response","11","161711","0.0-2.0-0.3","","img/test3.PNG","null","practice","null","true","","","",""
"null","","html-keyboard-response","12","162727","0.0-2.0-1.3","","<img src=""img/test3-reward.PNG"">","null","","","","","","",""
"null","","html-keyboard-response","13","163728","0.0-2.0-2.3","","<div style=""font-size:60px;"">+</div>","null","","","","","","",""
"423.4500000020489","","image-keyboard-response","14","164155","0.0-2.0-0.4","","img/test1.PNG","32","practice","32","true","","","",""
"null","","html-keyboard-response","15","165170","0.0-2.0-1.4","","<img src=""img/test1-reward.PNG"" border=""10px; grey"">","null","","","","","","",""
"null","","html-keyboard-response","16","166174","0.0-2.0-2.4","","<div style=""font-size:60px;"">+</div>","null","","","","","","",""
"null","","image-keyboard-response","17","167679","0.0-2.0-0.5","","img/test2.PNG","null","practice","null","true","","","",""
"null","","html-keyboard-response","18","168695","0.0-2.0-1.5","","<img src=""img/test2-reward.PNG"">","null","","","","","","",""
"null","","html-keyboard-response","19","169696","0.0-2.0-2.5","","<div style=""font-size:60px;"">+</div>","null","","","","","","",""
"391.82500000606524","","image-keyboard-response","20","170090","0.0-2.0-0.6","","img/test1.PNG","32","practice","32","true","","","",""
"null","","html-keyboard-response","21","171092","0.0-2.0-1.6","","<img src=""img/test1-reward.PNG"" border=""10px; grey"">","null","","","","","","",""
"null","","html-keyboard-response","22","172094","0.0-2.0-2.6","","<div style=""font-size:60px;"">+</div>","null","","","","","","",""
"null","","image-keyboard-response","23","173600","0.0-2.0-0.7","","img/test2.PNG","null","practice","null","true","","","",""
"null","","html-keyboard-response","24","174614","0.0-2.0-1.7","","<img src=""img/test2-reward.PNG"">","null","","","","","","",""
"null","","html-keyboard-response","25","175616","0.0-2.0-2.7","","<div style=""font-size:60px;"">+</div>","null","","","","","","",""
"null","","image-keyboard-response","26","177128","0.0-2.0-0.8","","img/test3.PNG","null","practice","null","true","","","",""
"null","","html-keyboard-response","27","178130","0.0-2.0-1.8","","<img src=""img/test3-reward.PNG"">","null","","","","","","",""
"null","","html-keyboard-response","28","179140","0.0-2.0-2.8","","<div style=""font-size:60px;"">+</div>","null","","","","","","",""
"null","","image-keyboard-response","29","180643","0.0-2.0-0.9","","img/test3.PNG","null","practice","null","true","","","",""
"null","","html-keyboard-response","30","181647","0.0-2.0-1.9","","<img src=""img/test3-reward.PNG"">","null","","","","","","",""
"null","","html-keyboard-response","31","182662","0.0-2.0-2.9","","<div style=""font-size:60px;"">+</div>","null","","","","","","",""
"null","","image-keyboard-response","32","184173","0.0-2.0-0.10","","img/test2.PNG","null","practice","null","true","","","",""
"null","","html-keyboard-response","33","185175","0.0-2.0-1.10","","<img src=""img/test2-reward.PNG"">","null","","","","","","",""
"null","","html-keyboard-response","34","186179","0.0-2.0-2.10","","<div style=""font-size:60px;"">+</div>","null","","","","","","",""
"365.9700000062003","","image-keyboard-response","35","186547","0.0-2.0-0.11","","img/test1.PNG","32","practice","32","true","","","",""
"null","","html-keyboard-response","36","187560","0.0-2.0-1.11","","<img src=""img/test1-reward.PNG"" border=""10px; grey"">","null","","","","","","",""
"null","","html-keyboard-response","37","188565","0.0-2.0-2.11","","<div style=""font-size:60px;"">+</div>","null","","","","","","",""
"3146.6550000041025","","instructions","38","191712","0.0-3.0","[{""page_index"":0,""viewing_time"":3146.489999999176}]","","","","","","","","",""
"null","","image-keyboard-response","39","193219","0.0-4.0-0.0","","img/purple.png","null","trial","32","false","0.8,0.2","1:go_a","",""
"null","","html-keyboard-response","40","194223","0.0-4.0-1.0","","<img src=""img/purple-n.png"">","null","trial","32","","0.8,0.2","1:go_a","0",""
"null","","html-keyboard-response","41","195227","0.0-4.0-2.0","","<div style=""font-size:60px;"">+</div>","null","","","","","","",""
"null","","image-keyboard-response","42","196733","0.0-4.0-0.1","","img/red.png","null","trial","null","true","0.2,0.8","2:nogo_b","",""
"null","","html-keyboard-response","43","197735","0.0-4.0-1.1","","<img src=""img/red-r.png"">","null","trial","null","","0.2,0.8","2:nogo_b","1",""
"null","","html-keyboard-response","44","198740","0.0-4.0-2.1","","<div style=""font-size:60px;"">+</div>","null","","","","","","",""
"916.704999996","","image-keyboard-response","45","199658","0.0-4.0-0.2","","img/red.png","32","trial","null","false","0.2,0.8","2:nogo_b","",""
"null","","html-keyboard-response","46","200674","0.0-4.0-1.2","","<img src=""img/red-n.png"" border=""10"">","null","trial","null","","0.2,0.8","2:nogo_b","0",""
"null","","html-keyboard-response","47","201677","0.0-4.0-2.2","","<div style=""font-size:60px;"">+</div>","null","","","","","","",""
"null","","image-keyboard-response","48","203188","0.0-4.0-0.3","","img/purple.png","null","trial","32","false","0.8,0.2","1:go_a","",""
"null","","html-keyboard-response","49","204191","0.0-4.0-1.3","","<img src=""img/purple-n.png"">","null","trial","32","","0.8,0.2","1:go_a","0",""
"null","","html-keyboard-response","50","205193","0.0-4.0-2.3","","<div style=""font-size:60px;"">+</div>","null","","","","","","",""
"606.0549999965588","","image-keyboard-response","51","205801","0.0-4.0-0.4","","img/purple.png","32","trial","32","true","0.8,0.2","1:go_a","",""
"null","","html-keyboard-response","52","206818","0.0-4.0-1.4","","<img src=""img/purple-r.png"" border=""10"">","null","trial","32","","0.8,0.2","1:go_a","1",""
"null","","html-keyboard-response","53","207819","0.0-4.0-2.4","","<div style=""font-size:60px;"">+</div>","null","","","","","","",""
"null","","image-keyboard-response","54","209326","0.0-4.0-0.5","","img/red.png","null","trial","null","true","0.2,0.8","2:nogo_b","",""
"null","","html-keyboard-response","55","210327","0.0-4.0-1.5","","<img src=""img/red-r.png"">","null","trial","null","","0.2,0.8","2:nogo_b","1",""
"null","","html-keyboard-response","56","211330","0.0-4.0-2.5","","<div style=""font-size:60px;"">+</div>","null","","","","","","",""
"null","","image-keyboard-response","57","212845","0.0-4.0-0.6","","img/red.png","null","trial","null","true","0.2,0.8","2:nogo_b","",""
"null","","html-keyboard-response","58","213849","0.0-4.0-1.6","","<img src=""img/red-r.png"">","null","trial","null","","0.2,0.8","2:nogo_b","1",""
"null","","html-keyboard-response","59","214852","0.0-4.0-2.6","","<div style=""font-size:60px;"">+</div>","null","","","","","","",""
"436.98500000027707","","image-keyboard-response","60","215290","0.0-4.0-0.7","","img/purple.png","32","trial","32","true","0.8,0.2","1:go_a","",""
"null","","html-keyboard-response","61","216298","0.0-4.0-1.7","","<img src=""img/purple-r.png"" border=""10"">","null","trial","32","","0.8,0.2","1:go_a","1",""
"null","","html-keyboard-response","62","217300","0.0-4.0-2.7","","<div style=""font-size:60px;"">+</div>","null","","","","","","",""
"501.0000000038417","","image-keyboard-response","63","217802","0.0-4.0-0.8","","img/purple.png","32","trial","32","true","0.8,0.2","1:go_a","",""
"null","","html-keyboard-response","64","218805","0.0-4.0-1.8","","<img src=""img/purple-r.png"" border=""10"">","null","trial","32","","0.8,0.2","1:go_a","1",""
"null","","html-keyboard-response","65","219821","0.0-4.0-2.8","","<div style=""font-size:60px;"">+</div>","null","","","","","","",""
"null","","image-keyboard-response","66","221335","0.0-4.0-0.9","","img/red.png","null","trial","null","true","0.2,0.8","2:nogo_b","",""
"null","","html-keyboard-response","67","222337","0.0-4.0-1.9","","<img src=""img/red-r.png"">","null","trial","null","","0.2,0.8","2:nogo_b","1",""
"null","","html-keyboard-response","68","223353","0.0-4.0-2.9","","<div style=""font-size:60px;"">+</div>","null","","","","","","",""
"432.0999999981723","","image-keyboard-response","69","223786","0.0-4.0-0.10","","img/purple.png","32","trial","32","true","0.8,0.2","1:go_a","",""
"null","","html-keyboard-response","70","224798","0.0-4.0-1.10","","<img src=""img/purple-n.png"" border=""10"">","null","trial","32","","0.8,0.2","1:go_a","0",""
"null","","html-keyboard-response","71","225814","0.0-4.0-2.10","","<div style=""font-size:60px;"">+</div>","null","","","","","","",""
"null","","image-keyboard-response","72","227326","0.0-4.0-0.11","","img/red.png","null","trial","null","true","0.2,0.8","2:nogo_b","",""
"null","","html-keyboard-response","73","228330","0.0-4.0-1.11","","<img src=""img/red-r.png"">","null","trial","null","","0.2,0.8","2:nogo_b","1",""
"null","","html-keyboard-response","74","229345","0.0-4.0-2.11","","<div style=""font-size:60px;"">+</div>","null","","","","","","",""
"null","","image-keyboard-response","75","230858","0.0-4.0-0.12","","img/red.png","null","trial","null","true","0.2,0.8","2:nogo_b","",""
"null","","html-keyboard-response","76","231862","0.0-4.0-1.12","","<img src=""img/red-r.png"">","null","trial","null","","0.2,0.8","2:nogo_b","1",""
"null","","html-keyboard-response","77","232878","0.0-4.0-2.12","","<div style=""font-size:60px;"">+</div>","null","","","","","","",""
"363.2549999965704","","image-keyboard-response","78","233243","0.0-4.0-0.13","","img/purple.png","32","trial","32","true","0.8,0.2","1:go_a","",""
"null","","html-keyboard-response","79","234260","0.0-4.0-1.13","","<img src=""img/purple-n.png"" border=""10"">","null","trial","32","","0.8,0.2","1:go_a","0",""
"null","","html-keyboard-response","80","235262","0.0-4.0-2.13","","<div style=""font-size:60px;"">+</div>","null","","","","","","",""
"null","","image-keyboard-response","81","236772","0.0-4.0-0.14","","img/red.png","null","trial","null","true","0.2,0.8","2:nogo_b","",""
"null","","html-keyboard-response","82","237788","0.0-4.0-1.14","","<img src=""img/red-r.png"">","null","trial","null","","0.2,0.8","2:nogo_b","1",""
"null","","html-keyboard-response","83","238791","0.0-4.0-2.14","","<div style=""font-size:60px;"">+</div>","null","","","","","","",""
"401.5750000035041","","image-keyboard-response","84","239194","0.0-4.0-0.15","","img/purple.png","32","trial","32","true","0.8,0.2","1:go_a","",""
"null","","html-keyboard-response","85","240202","0.0-4.0-1.15","","<img src=""img/purple-r.png"" border=""10"">","null","trial","32","","0.8,0.2","1:go_a","1",""
"null","","html-keyboard-response","86","241216","0.0-4.0-2.15","","<div style=""font-size:60px;"">+</div>","null","","","","","","",""
"408.87999999540625","","image-keyboard-response","87","241625","0.0-4.0-0.16","","img/purple.png","32","trial","32","true","0.8,0.2","1:go_a","",""
"null","","html-keyboard-response","88","242632","0.0-4.0-1.16","","<img src=""img/purple-r.png"" border=""10"">","null","trial","32","","0.8,0.2","1:go_a","1",""
"null","","html-keyboard-response","89","243646","0.0-4.0-2.16","","<div style=""font-size:60px;"">+</div>","null","","","","","","",""
"null","","image-keyboard-response","90","245157","0.0-4.0-0.17","","img/red.png","null","trial","null","true","0.2,0.8","2:nogo_b","",""
"null","","html-keyboard-response","91","246160","0.0-4.0-1.17","","<img src=""img/red-r.png"">","null","trial","null","","0.2,0.8","2:nogo_b","1",""
"null","","html-keyboard-response","92","247176","0.0-4.0-2.17","","<div style=""font-size:60px;"">+</div>","null","","","","","","",""
"null","","image-keyboard-response","93","248691","0.0-4.0-0.18","","img/red.png","null","trial","null","true","0.2,0.8","2:nogo_b","",""
"null","","html-keyboard-response","94","249693","0.0-4.0-1.18","","<img src=""img/red-r.png"">","null","trial","null","","0.2,0.8","2:nogo_b","1",""
"null","","html-keyboard-response","95","250709","0.0-4.0-2.18","","<div style=""font-size:60px;"">+</div>","null","","","","","","",""
"315.64500000240514","","image-keyboard-response","96","251027","0.0-4.0-0.19","","img/purple.png","32","trial","32","true","0.8,0.2","1:go_a","",""
"null","","html-keyboard-response","97","252032","0.0-4.0-1.19","","<img src=""img/purple-n.png"" border=""10"">","null","trial","32","","0.8,0.2","1:go_a","0",""
"null","","html-keyboard-response","98","253035","0.0-4.0-2.19","","<div style=""font-size:60px;"">+</div>","null","","","","","","",""
"null","","image-keyboard-response","99","254544","0.0-4.0-0.20","","img/red.png","null","trial","null","true","0.2,0.8","2:nogo_b","",""
"null","","html-keyboard-response","100","255559","0.0-4.0-1.20","","<img src=""img/red-r.png"">","null","trial","null","","0.2,0.8","2:nogo_b","1",""
"null","","html-keyboard-response","101","256574","0.0-4.0-2.20","","<div style=""font-size:60px;"">+</div>","null","","","","","","",""
"396.085000000312","","image-keyboard-response","102","256970","0.0-4.0-0.21","","img/purple.png","32","trial","32","true","0.8,0.2","1:go_a","",""
"null","","html-keyboard-response","103","257988","0.0-4.0-1.21","","<img src=""img/purple-n.png"" border=""10"">","null","trial","32","","0.8,0.2","1:go_a","0",""
"null","","html-keyboard-response","104","258991","0.0-4.0-2.21","","<div style=""font-size:60px;"">+</div>","null","","","","","","",""
"601.3000000020838","","image-keyboard-response","105","259594","0.0-4.0-0.22","","img/purple.png","32","trial","32","true","0.8,0.2","1:go_a","",""
"null","","html-keyboard-response","106","260607","0.0-4.0-1.22","","<img src=""img/purple-r.png"" border=""10"">","null","trial","32","","0.8,0.2","1:go_a","1",""
"null","","html-keyboard-response","107","261611","0.0-4.0-2.22","","<div style=""font-size:60px;"">+</div>","null","","","","","","",""
"null","","image-keyboard-response","108","263118","0.0-4.0-0.23","","img/red.png","null","trial","null","true","0.2,0.8","2:nogo_b","",""
"null","","html-keyboard-response","109","264122","0.0-4.0-1.23","","<img src=""img/red-r.png"">","null","trial","null","","0.2,0.8","2:nogo_b","1",""
"null","","html-keyboard-response","110","265134","0.0-4.0-2.23","","<div style=""font-size:60px;"">+</div>","null","","","","","","",""
"null","","image-keyboard-response","111","266646","0.0-4.0-0.24","","img/red.png","null","trial","null","true","0.2,0.8","2:nogo_b","",""
"null","","html-keyboard-response","112","267650","0.0-4.0-1.24","","<img src=""img/red-n.png"">","null","trial","null","","0.2,0.8","2:nogo_b","0",""
"null","","html-keyboard-response","113","268651","0.0-4.0-2.24","","<div style=""font-size:60px;"">+</div>","null","","","","","","",""
"661.7050000058953","","image-keyboard-response","114","269314","0.0-4.0-0.25","","img/purple.png","32","trial","32","true","0.8,0.2","1:go_a","",""
"null","","html-keyboard-response","115","270321","0.0-4.0-1.25","","<img src=""img/purple-r.png"" border=""10"">","null","trial","32","","0.8,0.2","1:go_a","1",""
"null","","html-keyboard-response","116","271323","0.0-4.0-2.25","","<div style=""font-size:60px;"">+</div>","null","","","","","","",""
"null","","image-keyboard-response","117","272832","0.0-4.0-0.26","","img/red.png","null","trial","null","true","0.2,0.8","2:nogo_b","",""
"null","","html-keyboard-response","118","273834","0.0-4.0-1.26","","<img src=""img/red-r.png"">","null","trial","null","","0.2,0.8","2:nogo_b","1",""
"null","","html-keyboard-response","119","274846","0.0-4.0-2.26","","<div style=""font-size:60px;"">+</div>","null","","","","","","",""
"371.40999999974156","","image-keyboard-response","120","275218","0.0-4.0-0.27","","img/purple.png","32","trial","32","true","0.8,0.2","1:go_a","",""
"null","","html-keyboard-response","121","276232","0.0-4.0-1.27","","<img src=""img/purple-r.png"" border=""10"">","null","trial","32","","0.8,0.2","1:go_a","1",""
"null","","html-keyboard-response","122","277234","0.0-4.0-2.27","","<div style=""font-size:60px;"">+</div>","null","","","","","","",""
"null","","image-keyboard-response","123","278743","0.0-4.0-0.28","","img/red.png","null","trial","null","true","0.2,0.8","2:nogo_b","",""
"null","","html-keyboard-response","124","279761","0.0-4.0-1.28","","<img src=""img/red-r.png"">","null","trial","null","","0.2,0.8","2:nogo_b","1",""
"null","","html-keyboard-response","125","280777","0.0-4.0-2.28","","<div style=""font-size:60px;"">+</div>","null","","","","","","",""
"369.25499999779277","","image-keyboard-response","126","281147","0.0-4.0-0.29","","img/purple.png","32","trial","32","true","0.8,0.2","1:go_a","",""
"null","","html-keyboard-response","127","282160","0.0-4.0-1.29","","<img src=""img/purple-r.png"" border=""10"">","null","trial","32","","0.8,0.2","1:go_a","1",""
"null","","html-keyboard-response","128","283165","0.0-4.0-2.29","","<div style=""font-size:60px;"">+</div>","null","","","","","","",""
"556.2499999941792","","image-keyboard-response","129","283722","0.0-4.0-0.30","","img/purple.png","32","trial","32","true","0.8,0.2","1:go_a","",""
"null","","html-keyboard-response","130","284735","0.0-4.0-1.30","","<img src=""img/purple-r.png"" border=""10"">","null","trial","32","","0.8,0.2","1:go_a","1",""
"null","","html-keyboard-response","131","285739","0.0-4.0-2.30","","<div style=""font-size:60px;"">+</div>","null","","","","","","",""
"null","","image-keyboard-response","132","287250","0.0-4.0-0.31","","img/red.png","null","trial","null","true","0.2,0.8","2:nogo_b","",""
"null","","html-keyboard-response","133","288251","0.0-4.0-1.31","","<img src=""img/red-r.png"">","null","trial","null","","0.2,0.8","2:nogo_b","1",""
"null","","html-keyboard-response","134","289258","0.0-4.0-2.31","","<div style=""font-size:60px;"">+</div>","null","","","","","","",""
"367.40000000281725","","image-keyboard-response","135","289626","0.0-4.0-0.32","","img/purple.png","32","trial","32","true","0.8,0.2","1:go_a","",""
"null","","html-keyboard-response","136","290640","0.0-4.0-1.32","","<img src=""img/purple-r.png"" border=""10"">","null","trial","32","","0.8,0.2","1:go_a","1",""
"null","","html-keyboard-response","137","291643","0.0-4.0-2.32","","<div style=""font-size:60px;"">+</div>","null","","","","","","",""
"null","","image-keyboard-response","138","293148","0.0-4.0-0.33","","img/red.png","null","trial","null","true","0.2,0.8","2:nogo_b","",""
"null","","html-keyboard-response","139","294151","0.0-4.0-1.33","","<img src=""img/red-r.png"">","null","trial","null","","0.2,0.8","2:nogo_b","1",""
"null","","html-keyboard-response","140","295153","0.0-4.0-2.33","","<div style=""font-size:60px;"">+</div>","null","","","","","","",""
"null","","image-keyboard-response","141","296661","0.0-4.0-0.34","","img/red.png","null","trial","null","true","0.2,0.8","2:nogo_b","",""
"null","","html-keyboard-response","142","297666","0.0-4.0-1.34","","<img src=""img/red-r.png"">","null","trial","null","","0.2,0.8","2:nogo_b","1",""
"null","","html-keyboard-response","143","298682","0.0-4.0-2.34","","<div style=""font-size:60px;"">+</div>","null","","","","","","",""
"341.58000000024913","","image-keyboard-response","144","299025","0.0-4.0-0.35","","img/purple.png","32","trial","32","true","0.8,0.2","1:go_a","",""
"null","","html-keyboard-response","145","300030","0.0-4.0-1.35","","<img src=""img/purple-r.png"" border=""10"">","null","trial","32","","0.8,0.2","1:go_a","1",""
"null","","html-keyboard-response","146","301034","0.0-4.0-2.35","","<div style=""font-size:60px;"">+</div>","null","","","","","","",""
"382.65499999397434","","image-keyboard-response","147","301418","0.0-4.0-0.36","","img/purple.png","32","trial","32","true","0.8,0.2","1:go_a","",""
"null","","html-keyboard-response","148","302424","0.0-4.0-1.36","","<img src=""img/purple-r.png"" border=""10"">","null","trial","32","","0.8,0.2","1:go_a","1",""
"null","","html-keyboard-response","149","303432","0.0-4.0-2.36","","<div style=""font-size:60px;"">+</div>","null","","","","","","",""
"null","","image-keyboard-response","150","304942","0.0-4.0-0.37","","img/red.png","null","trial","null","true","0.2,0.8","2:nogo_b","",""
"null","","html-keyboard-response","151","305944","0.0-4.0-1.37","","<img src=""img/red-n.png"">","null","trial","null","","0.2,0.8","2:nogo_b","0",""
"null","","html-keyboard-response","152","306945","0.0-4.0-2.37","","<div style=""font-size:60px;"">+</div>","null","","","","","","",""
"null","","image-keyboard-response","153","308462","0.0-4.0-0.38","","img/red.png","null","trial","null","true","0.2,0.8","2:nogo_b","",""
"null","","html-keyboard-response","154","309466","0.0-4.0-1.38","","<img src=""img/red-r.png"">","null","trial","null","","0.2,0.8","2:nogo_b","1",""
"null","","html-keyboard-response","155","310482","0.0-4.0-2.38","","<div style=""font-size:60px;"">+</div>","null","","","","","","",""
"351.61499999958323","","image-keyboard-response","156","310834","0.0-4.0-0.39","","img/purple.png","32","trial","32","true","0.8,0.2","1:go_a","",""
"null","","html-keyboard-response","157","311847","0.0-4.0-1.39","","<img src=""img/purple-r.png"" border=""10"">","null","trial","32","","0.8,0.2","1:go_a","1",""
"null","","html-keyboard-response","158","312851","0.0-4.0-2.39","","<div style=""font-size:60px;"">+</div>","null","","","","","","",""
"421.00500000378815","","image-keyboard-response","159","313274","0.0-4.0-0.40","","img/purple.png","32","trial","32","true","0.8,0.2","1:go_a","",""
"null","","html-keyboard-response","160","314281","0.0-4.0-1.40","","<img src=""img/purple-r.png"" border=""10"">","null","trial","32","","0.8,0.2","1:go_a","1",""
"null","","html-keyboard-response","161","315285","0.0-4.0-2.40","","<div style=""font-size:60px;"">+</div>","null","","","","","","",""
"null","","image-keyboard-response","162","316793","0.0-4.0-0.41","","img/red.png","null","trial","null","true","0.2,0.8","2:nogo_b","",""
"null","","html-keyboard-response","163","317798","0.0-4.0-1.41","","<img src=""img/red-r.png"">","null","trial","null","","0.2,0.8","2:nogo_b","1",""
"null","","html-keyboard-response","164","318800","0.0-4.0-2.41","","<div style=""font-size:60px;"">+</div>","null","","","","","","",""
"null","","image-keyboard-response","165","320307","0.0-4.0-0.42","","img/red.png","null","trial","null","true","0.2,0.8","2:nogo_b","",""
"null","","html-keyboard-response","166","321324","0.0-4.0-1.42","","<img src=""img/red-r.png"">","null","trial","null","","0.2,0.8","2:nogo_b","1",""
"null","","html-keyboard-response","167","322326","0.0-4.0-2.42","","<div style=""font-size:60px;"">+</div>","null","","","","","","",""
"331.01500000339","","image-keyboard-response","168","322658","0.0-4.0-0.43","","img/purple.png","32","trial","32","true","0.8,0.2","1:go_a","",""
"null","","html-keyboard-response","169","323671","0.0-4.0-1.43","","<img src=""img/purple-r.png"" border=""10"">","null","trial","32","","0.8,0.2","1:go_a","1",""
"null","","html-keyboard-response","170","324674","0.0-4.0-2.43","","<div style=""font-size:60px;"">+</div>","null","","","","","","",""
"null","","image-keyboard-response","171","326180","0.0-4.0-0.44","","img/red.png","null","trial","null","true","0.2,0.8","2:nogo_b","",""
"null","","html-keyboard-response","172","327183","0.0-4.0-1.44","","<img src=""img/red-r.png"">","null","trial","null","","0.2,0.8","2:nogo_b","1",""
"null","","html-keyboard-response","173","328198","0.0-4.0-2.44","","<div style=""font-size:60px;"">+</div>","null","","","","","","",""
"338.6800000007497","","image-keyboard-response","174","328538","0.0-4.0-0.45","","img/purple.png","32","trial","32","true","0.8,0.2","1:go_a","",""
"null","","html-keyboard-response","175","329545","0.0-4.0-1.45","","<img src=""img/purple-r.png"" border=""10"">","null","trial","32","","0.8,0.2","1:go_a","1",""
"null","","html-keyboard-response","176","330547","0.0-4.0-2.45","","<div style=""font-size:60px;"">+</div>","null","","","","","","",""
"317.80499999877065","","image-keyboard-response","177","330866","0.0-4.0-0.46","","img/purple.png","32","trial","32","true","0.8,0.2","1:go_a","",""
"null","","html-keyboard-response","178","331876","0.0-4.0-1.46","","<img src=""img/purple-r.png"" border=""10"">","null","trial","32","","0.8,0.2","1:go_a","1",""
"null","","html-keyboard-response","179","332880","0.0-4.0-2.46","","<div style=""font-size:60px;"">+</div>","null","","","","","","",""
"null","","image-keyboard-response","180","334391","0.0-4.0-0.47","","img/red.png","null","trial","null","true","0.2,0.8","2:nogo_b","",""
"null","","html-keyboard-response","181","335407","0.0-4.0-1.47","","<img src=""img/red-r.png"">","null","trial","null","","0.2,0.8","2:nogo_b","1",""
"null","","html-keyboard-response","182","336410","0.0-4.0-2.47","","<div style=""font-size:60px;"">+</div>","null","","","","","","",""
"null","","image-keyboard-response","183","337922","0.0-4.0-0.48","","img/red.png","null","trial","null","true","0.2,0.8","2:nogo_b","",""
"null","","html-keyboard-response","184","338941","0.0-4.0-1.48","","<img src=""img/red-r.png"">","null","trial","null","","0.2,0.8","2:nogo_b","1",""
"null","","html-keyboard-response","185","339944","0.0-4.0-2.48","","<div style=""font-size:60px;"">+</div>","null","","","","","","",""
"313.6549999981071","","image-keyboard-response","186","340259","0.0-4.0-0.49","","img/purple.png","32","trial","32","true","0.8,0.2","1:go_a","",""
"null","","html-keyboard-response","187","341266","0.0-4.0-1.49","","<img src=""img/purple-r.png"" border=""10"">","null","trial","32","","0.8,0.2","1:go_a","1",""
"null","","html-keyboard-response","188","342270","0.0-4.0-2.49","","<div style=""font-size:60px;"">+</div>","null","","","","","","",""
"450.1400000008289","","image-keyboard-response","189","342722","0.0-4.0-0.50","","img/purple.png","32","trial","32","true","0.8,0.2","1:go_a","",""
"null","","html-keyboard-response","190","343733","0.0-4.0-1.50","","<img src=""img/purple-r.png"" border=""10"">","null","trial","32","","0.8,0.2","1:go_a","1",""
"null","","html-keyboard-response","191","344734","0.0-4.0-2.50","","<div style=""font-size:60px;"">+</div>","null","","","","","","",""
"null","","image-keyboard-response","192","346247","0.0-4.0-0.51","","img/red.png","null","trial","null","true","0.2,0.8","2:nogo_b","",""
"null","","html-keyboard-response","193","347262","0.0-4.0-1.51","","<img src=""img/red-r.png"">","null","trial","null","","0.2,0.8","2:nogo_b","1",""
"null","","html-keyboard-response","194","348265","0.0-4.0-2.51","","<div style=""font-size:60px;"">+</div>","null","","","","","","",""
"null","","image-keyboard-response","195","349772","0.0-4.0-0.52","","img/red.png","null","trial","null","true","0.2,0.8","2:nogo_b","",""
"null","","html-keyboard-response","196","350778","0.0-4.0-1.52","","<img src=""img/red-r.png"">","null","trial","null","","0.2,0.8","2:nogo_b","1",""
"null","","html-keyboard-response","197","351781","0.0-4.0-2.52","","<div style=""font-size:60px;"">+</div>","null","","","","","","",""
"372.0150000008289","","image-keyboard-response","198","352155","0.0-4.0-0.53","","img/purple.png","32","trial","32","true","0.8,0.2","1:go_a","",""
"null","","html-keyboard-response","199","353167","0.0-4.0-1.53","","<img src=""img/purple-r.png"" border=""10"">","null","trial","32","","0.8,0.2","1:go_a","1",""
"null","","html-keyboard-response","200","354184","0.0-4.0-2.53","","<div style=""font-size:60px;"">+</div>","null","","","","","","",""
"367.9950000005192","","image-keyboard-response","201","354553","0.0-4.0-0.54","","img/purple.png","32","trial","32","true","0.8,0.2","1:go_a","",""
"null","","html-keyboard-response","202","355564","0.0-4.0-1.54","","<img src=""img/purple-r.png"" border=""10"">","null","trial","32","","0.8,0.2","1:go_a","1",""
"null","","html-keyboard-response","203","356566","0.0-4.0-2.54","","<div style=""font-size:60px;"">+</div>","null","","","","","","",""
"null","","image-keyboard-response","204","358080","0.0-4.0-0.55","","img/red.png","null","trial","null","true","0.2,0.8","2:nogo_b","",""
"null","","html-keyboard-response","205","359084","0.0-4.0-1.55","","<img src=""img/red-r.png"">","null","trial","null","","0.2,0.8","2:nogo_b","1",""
"null","","html-keyboard-response","206","360088","0.0-4.0-2.55","","<div style=""font-size:60px;"">+</div>","null","","","","","","",""
"null","","image-keyboard-response","207","361604","0.0-4.0-0.56","","img/red.png","null","trial","null","true","0.2,0.8","2:nogo_b","",""
"null","","html-keyboard-response","208","362607","0.0-4.0-1.56","","<img src=""img/red-r.png"">","null","trial","null","","0.2,0.8","2:nogo_b","1",""
"null","","html-keyboard-response","209","363611","0.0-4.0-2.56","","<div style=""font-size:60px;"">+</div>","null","","","","","","",""
"310.80500000098255","","image-keyboard-response","210","363923","0.0-4.0-0.57","","img/purple.png","32","trial","32","true","0.8,0.2","1:go_a","",""
"null","","html-keyboard-response","211","364928","0.0-4.0-1.57","","<img src=""img/purple-n.png"" border=""10"">","null","trial","32","","0.8,0.2","1:go_a","0",""
"null","","html-keyboard-response","212","365932","0.0-4.0-2.57","","<div style=""font-size:60px;"">+</div>","null","","","","","","",""
"404.4750000030035","","image-keyboard-response","213","366338","0.0-4.0-0.58","","img/purple.png","32","trial","32","true","0.8,0.2","1:go_a","",""
"null","","html-keyboard-response","214","367346","0.0-4.0-1.58","","<img src=""img/purple-r.png"" border=""10"">","null","trial","32","","0.8,0.2","1:go_a","1",""
"null","","html-keyboard-response","215","368362","0.0-4.0-2.58","","<div style=""font-size:60px;"">+</div>","null","","","","","","",""
"null","","image-keyboard-response","216","369871","0.0-4.0-0.59","","img/red.png","null","trial","null","true","0.2,0.8","2:nogo_b","",""
"null","","html-keyboard-response","217","370887","0.0-4.0-1.59","","<img src=""img/red-n.png"">","null","trial","null","","0.2,0.8","2:nogo_b","0",""
"null","","html-keyboard-response","218","371892","0.0-4.0-2.59","","<div style=""font-size:60px;"">+</div>","null","","","","","","",""
"16573.850000000675","","instructions","219","388467","0.0-5.0","[{""page_index"":0,""viewing_time"":16573.690000004717}]","","","","","","","","",""
"573.884999997972","","image-keyboard-response","220","389042","0.0-6.0-0.0","","img/yellow.png","32","trial","32","true","1,0","3:go_c","",""
"null","","html-keyboard-response","221","390058","0.0-6.0-1.0","","<img src=""img/yellow-r.png"" border=""10"">","null","trial","32","","1,0","3:go_c","1",""
"null","","html-keyboard-response","222","391060","0.0-6.0-2.0","","<div style=""font-size:60px;"">+</div>","null","","","","","","",""
"364.1150000039488","","image-keyboard-response","223","391425","0.0-6.0-0.1","","img/purple.png","32","trial","32","true","0.8,0.2","1:go_a","",""
"null","","html-keyboard-response","224","392442","0.0-6.0-1.1","","<img src=""img/purple-r.png"" border=""10"">","null","trial","32","","0.8,0.2","1:go_a","1",""
"null","","html-keyboard-response","225","393447","0.0-6.0-2.1","","<div style=""font-size:60px;"">+</div>","null","","","","","","",""
"529.7949999949196","","image-keyboard-response","226","393978","0.0-6.0-0.2","","img/orange.png","32","trial","null","false","0.2,0.8","2:nogo_b","",""
"null","","html-keyboard-response","227","394984","0.0-6.0-1.2","","<img src=""img/orange-r.png"" border=""10"">","null","trial","null","","0.2,0.8","2:nogo_b","1",""
"null","","html-keyboard-response","228","395988","0.0-6.0-2.2","","<div style=""font-size:60px;"">+</div>","null","","","","","","",""
"556.9650000034017","","image-keyboard-response","229","396546","0.0-6.0-0.3","","img/blue.png","32","trial","null","false","0,1","4:nogo_d","",""
"null","","html-keyboard-response","230","397562","0.0-6.0-1.3","","<img src=""img/blue-n.png"" border=""10"">","null","trial","null","","0,1","4:nogo_d","0",""
"null","","html-keyboard-response","231","398566","0.0-6.0-2.3","","<div style=""font-size:60px;"">+</div>","null","","","","","","",""
"null","","image-keyboard-response","232","400072","0.0-6.0-0.4","","img/yellow.png","null","trial","32","false","1,0","3:go_c","",""
"null","","html-keyboard-response","233","401083","0.0-6.0-1.4","","<img src=""img/yellow-n.png"">","null","trial","32","","1,0","3:go_c","0",""
"null","","html-keyboard-response","234","402088","0.0-6.0-2.4","","<div style=""font-size:60px;"">+</div>","null","","","","","","",""
"null","","image-keyboard-response","235","403600","0.0-6.0-0.5","","img/orange.png","null","trial","null","true","0.2,0.8","2:nogo_b","",""
"null","","html-keyboard-response","236","404617","0.0-6.0-1.5","","<img src=""img/orange-r.png"">","null","trial","null","","0.2,0.8","2:nogo_b","1",""
"null","","html-keyboard-response","237","405618","0.0-6.0-2.5","","<div style=""font-size:60px;"">+</div>","null","","","","","","",""
"null","","image-keyboard-response","238","407128","0.0-6.0-0.6","","img/blue.png","null","trial","null","true","0,1","4:nogo_d","",""
"null","","html-keyboard-response","239","408131","0.0-6.0-1.6","","<img src=""img/blue-r.png"">","null","trial","null","","0,1","4:nogo_d","1",""
"null","","html-keyboard-response","240","409148","0.0-6.0-2.6","","<div style=""font-size:60px;"">+</div>","null","","","","","","",""
"null","","image-keyboard-response","241","410656","0.0-6.0-0.7","","img/purple.png","null","trial","32","false","0.8,0.2","1:go_a","",""
"null","","html-keyboard-response","242","411658","0.0-6.0-1.7","","<img src=""img/purple-r.png"">","null","trial","32","","0.8,0.2","1:go_a","1",""
"null","","html-keyboard-response","243","412661","0.0-6.0-2.7","","<div style=""font-size:60px;"">+</div>","null","","","","","","",""
"618.3799999998882","","image-keyboard-response","244","413281","0.0-6.0-0.8","","img/yellow.png","32","trial","32","true","1,0","3:go_c","",""
"null","","html-keyboard-response","245","414285","0.0-6.0-1.8","","<img src=""img/yellow-r.png"" border=""10"">","null","trial","32","","1,0","3:go_c","1",""
"null","","html-keyboard-response","246","415288","0.0-6.0-2.8","","<div style=""font-size:60px;"">+</div>","null","","","","","","",""
"576.0349999982282","","image-keyboard-response","247","415865","0.0-6.0-0.9","","img/purple.png","32","trial","32","true","0.8,0.2","1:go_a","",""
"null","","html-keyboard-response","248","416876","0.0-6.0-1.9","","<img src=""img/purple-r.png"" border=""10"">","null","trial","32","","0.8,0.2","1:go_a","1",""
"null","","html-keyboard-response","249","417880","0.0-6.0-2.9","","<div style=""font-size:60px;"">+</div>","null","","","","","","",""
"560.2799999978743","","image-keyboard-response","250","418441","0.0-6.0-0.10","","img/orange.png","32","trial","null","false","0.2,0.8","2:nogo_b","",""
"null","","html-keyboard-response","251","419455","0.0-6.0-1.10","","<img src=""img/orange-n.png"" border=""10"">","null","trial","null","","0.2,0.8","2:nogo_b","0",""
"null","","html-keyboard-response","252","420459","0.0-6.0-2.10","","<div style=""font-size:60px;"">+</div>","null","","","","","","",""
"null","","image-keyboard-response","253","421967","0.0-6.0-0.11","","img/blue.png","null","trial","null","true","0,1","4:nogo_d","",""
"null","","html-keyboard-response","254","422972","0.0-6.0-1.11","","<img src=""img/blue-r.png"">","null","trial","null","","0,1","4:nogo_d","1",""
"null","","html-keyboard-response","255","423973","0.0-6.0-2.11","","<div style=""font-size:60px;"">+</div>","null","","","","","","",""
"null","","image-keyboard-response","256","425483","0.0-6.0-0.12","","img/blue.png","null","trial","null","true","0,1","4:nogo_d","",""
"null","","html-keyboard-response","257","426499","0.0-6.0-1.12","","<img src=""img/blue-r.png"">","null","trial","null","","0,1","4:nogo_d","1",""
"null","","html-keyboard-response","258","427503","0.0-6.0-2.12","","<div style=""font-size:60px;"">+</div>","null","","","","","","",""
"586.250000000291","","image-keyboard-response","259","428091","0.0-6.0-0.13","","img/purple.png","32","trial","32","true","0.8,0.2","1:go_a","",""
"null","","html-keyboard-response","260","429104","0.0-6.0-1.13","","<img src=""img/purple-r.png"" border=""10"">","null","trial","32","","0.8,0.2","1:go_a","1",""
"null","","html-keyboard-response","261","430120","0.0-6.0-2.13","","<div style=""font-size:60px;"">+</div>","null","","","","","","",""
"369.44499999663094","","image-keyboard-response","262","430491","0.0-6.0-0.14","","img/yellow.png","32","trial","32","true","1,0","3:go_c","",""
"null","","html-keyboard-response","263","431499","0.0-6.0-1.14","","<img src=""img/yellow-r.png"" border=""10"">","null","trial","32","","1,0","3:go_c","1",""
"null","","html-keyboard-response","264","432502","0.0-6.0-2.14","","<div style=""font-size:60px;"">+</div>","null","","","","","","",""
"null","","image-keyboard-response","265","434015","0.0-6.0-0.15","","img/orange.png","null","trial","null","true","0.2,0.8","2:nogo_b","",""
"null","","html-keyboard-response","266","435030","0.0-6.0-1.15","","<img src=""img/orange-r.png"">","null","trial","null","","0.2,0.8","2:nogo_b","1",""
"null","","html-keyboard-response","267","436046","0.0-6.0-2.15","","<div style=""font-size:60px;"">+</div>","null","","","","","","",""
"418.64499999792315","","image-keyboard-response","268","436466","0.0-6.0-0.16","","img/yellow.png","32","trial","32","true","1,0","3:go_c","",""
"null","","html-keyboard-response","269","437477","0.0-6.0-1.16","","<img src=""img/yellow-r.png"" border=""10"">","null","trial","32","","1,0","3:go_c","1",""
"null","","html-keyboard-response","270","438493","0.0-6.0-2.16","","<div style=""font-size:60px;"">+</div>","null","","","","","","",""
"null","","image-keyboard-response","271","439998","0.0-6.0-0.17","","img/orange.png","null","trial","null","true","0.2,0.8","2:nogo_b","",""
"null","","html-keyboard-response","272","441012","0.0-6.0-1.17","","<img src=""img/orange-r.png"">","null","trial","null","","0.2,0.8","2:nogo_b","1",""
"null","","html-keyboard-response","273","442015","0.0-6.0-2.17","","<div style=""font-size:60px;"">+</div>","null","","","","","","",""
"394.4499999997788","","image-keyboard-response","274","442411","0.0-6.0-0.18","","img/purple.png","32","trial","32","true","0.8,0.2","1:go_a","",""
"null","","html-keyboard-response","275","443417","0.0-6.0-1.18","","<img src=""img/purple-r.png"" border=""10"">","null","trial","32","","0.8,0.2","1:go_a","1",""
"null","","html-keyboard-response","276","444420","0.0-6.0-2.18","","<div style=""font-size:60px;"">+</div>","null","","","","","","",""
"null","","image-keyboard-response","277","445930","0.0-6.0-0.19","","img/blue.png","null","trial","null","true","0,1","4:nogo_d","",""
"null","","html-keyboard-response","278","446946","0.0-6.0-1.19","","<img src=""img/blue-r.png"">","null","trial","null","","0,1","4:nogo_d","1",""
"null","","html-keyboard-response","279","447948","0.0-6.0-2.19","","<div style=""font-size:60px;"">+</div>","null","","","","","","",""
"532.7450000040699","","image-keyboard-response","280","448482","0.0-6.0-0.20","","img/purple.png","32","trial","32","true","0.8,0.2","1:go_a","",""
"null","","html-keyboard-response","281","449486","0.0-6.0-1.20","","<img src=""img/purple-r.png"" border=""10"">","null","trial","32","","0.8,0.2","1:go_a","1",""
"null","","html-keyboard-response","282","450501","0.0-6.0-2.20","","<div style=""font-size:60px;"">+</div>","null","","","","","","",""
"null","","image-keyboard-response","283","452014","0.0-6.0-0.21","","img/orange.png","null","trial","null","true","0.2,0.8","2:nogo_b","",""
"null","","html-keyboard-response","284","453028","0.0-6.0-1.21","","<img src=""img/orange-r.png"">","null","trial","null","","0.2,0.8","2:nogo_b","1",""
"null","","html-keyboard-response","285","454031","0.0-6.0-2.21","","<div style=""font-size:60px;"">+</div>","null","","","","","","",""
"338.68499999516644","","image-keyboard-response","286","454371","0.0-6.0-0.22","","img/yellow.png","32","trial","32","true","1,0","3:go_c","",""
"null","","html-keyboard-response","287","455382","0.0-6.0-1.22","","<img src=""img/yellow-r.png"" border=""10"">","null","trial","32","","1,0","3:go_c","1",""
"null","","html-keyboard-response","288","456384","0.0-6.0-2.22","","<div style=""font-size:60px;"">+</div>","null","","","","","","",""
"null","","image-keyboard-response","289","457893","0.0-6.0-0.23","","img/blue.png","null","trial","null","true","0,1","4:nogo_d","",""
"null","","html-keyboard-response","290","458908","0.0-6.0-1.23","","<img src=""img/blue-r.png"">","null","trial","null","","0,1","4:nogo_d","1",""
"null","","html-keyboard-response","291","459925","0.0-6.0-2.23","","<div style=""font-size:60px;"">+</div>","null","","","","","","",""
"355.6049999970128","","image-keyboard-response","292","460282","0.0-6.0-0.24","","img/yellow.png","32","trial","32","true","1,0","3:go_c","",""
"null","","html-keyboard-response","293","461295","0.0-6.0-1.24","","<img src=""img/yellow-r.png"" border=""10"">","null","trial","32","","1,0","3:go_c","1",""
"null","","html-keyboard-response","294","462310","0.0-6.0-2.24","","<div style=""font-size:60px;"">+</div>","null","","","","","","",""
"null","","image-keyboard-response","295","463823","0.0-6.0-0.25","","img/orange.png","null","trial","null","true","0.2,0.8","2:nogo_b","",""
"null","","html-keyboard-response","296","464837","0.0-6.0-1.25","","<img src=""img/orange-r.png"">","null","trial","null","","0.2,0.8","2:nogo_b","1",""
"null","","html-keyboard-response","297","465839","0.0-6.0-2.25","","<div style=""font-size:60px;"">+</div>","null","","","","","","",""
"378.1200000012177","","image-keyboard-response","298","466219","0.0-6.0-0.26","","img/purple.png","32","trial","32","true","0.8,0.2","1:go_a","",""
"null","","html-keyboard-response","299","467226","0.0-6.0-1.26","","<img src=""img/purple-r.png"" border=""10"">","null","trial","32","","0.8,0.2","1:go_a","1",""
"null","","html-keyboard-response","300","468242","0.0-6.0-2.26","","<div style=""font-size:60px;"">+</div>","null","","","","","","",""
"null","","image-keyboard-response","301","469755","0.0-6.0-0.27","","img/blue.png","null","trial","null","true","0,1","4:nogo_d","",""
"null","","html-keyboard-response","302","470758","0.0-6.0-1.27","","<img src=""img/blue-r.png"">","null","trial","null","","0,1","4:nogo_d","1",""
"null","","html-keyboard-response","303","471772","0.0-6.0-2.27","","<div style=""font-size:60px;"">+</div>","null","","","","","","",""
"500.58500000159256","","image-keyboard-response","304","472274","0.0-6.0-0.28","","img/purple.png","32","trial","32","true","0.8,0.2","1:go_a","",""
"null","","html-keyboard-response","305","473284","0.0-6.0-1.28","","<img src=""img/purple-r.png"" border=""10"">","null","trial","32","","0.8,0.2","1:go_a","1",""
"null","","html-keyboard-response","306","474288","0.0-6.0-2.28","","<div style=""font-size:60px;"">+</div>","null","","","","","","",""
"null","","image-keyboard-response","307","475802","0.0-6.0-0.29","","img/blue.png","null","trial","null","true","0,1","4:nogo_d","",""
"null","","html-keyboard-response","308","476805","0.0-6.0-1.29","","<img src=""img/blue-r.png"">","null","trial","null","","0,1","4:nogo_d","1",""
"null","","html-keyboard-response","309","477808","0.0-6.0-2.29","","<div style=""font-size:60px;"">+</div>","null","","","","","","",""
"337.0800000047893","","image-keyboard-response","310","478147","0.0-6.0-0.30","","img/yellow.png","32","trial","32","true","1,0","3:go_c","",""
"null","","html-keyboard-response","311","479159","0.0-6.0-1.30","","<img src=""img/yellow-r.png"" border=""10"">","null","trial","32","","1,0","3:go_c","1",""
"null","","html-keyboard-response","312","480171","0.0-6.0-2.30","","<div style=""font-size:60px;"">+</div>","null","","","","","","",""
"null","","image-keyboard-response","313","481683","0.0-6.0-0.31","","img/orange.png","null","trial","null","true","0.2,0.8","2:nogo_b","",""
"null","","html-keyboard-response","314","482688","0.0-6.0-1.31","","<img src=""img/orange-r.png"">","null","trial","null","","0.2,0.8","2:nogo_b","1",""
"null","","html-keyboard-response","315","483704","0.0-6.0-2.31","","<div style=""font-size:60px;"">+</div>","null","","","","","","",""
"null","","image-keyboard-response","316","485215","0.0-6.0-0.32","","img/orange.png","null","trial","null","true","0.2,0.8","2:nogo_b","",""
"null","","html-keyboard-response","317","486228","0.0-6.0-1.32","","<img src=""img/orange-r.png"">","null","trial","null","","0.2,0.8","2:nogo_b","1",""
"null","","html-keyboard-response","318","487244","0.0-6.0-2.32","","<div style=""font-size:60px;"">+</div>","null","","","","","","",""
"348.7299999978859","","image-keyboard-response","319","487593","0.0-6.0-0.33","","img/purple.png","32","trial","32","true","0.8,0.2","1:go_a","",""
"null","","html-keyboard-response","320","488610","0.0-6.0-1.33","","<img src=""img/purple-n.png"" border=""10"">","null","trial","32","","0.8,0.2","1:go_a","0",""
"null","","html-keyboard-response","321","489622","0.0-6.0-2.33","","<div style=""font-size:60px;"">+</div>","null","","","","","","",""
"null","","image-keyboard-response","322","491136","0.0-6.0-0.34","","img/blue.png","null","trial","null","true","0,1","4:nogo_d","",""
"null","","html-keyboard-response","323","492152","0.0-6.0-1.34","","<img src=""img/blue-r.png"">","null","trial","null","","0,1","4:nogo_d","1",""
"null","","html-keyboard-response","324","493156","0.0-6.0-2.34","","<div style=""font-size:60px;"">+</div>","null","","","","","","",""
"324.9100000030012","","image-keyboard-response","325","493482","0.0-6.0-0.35","","img/yellow.png","32","trial","32","true","1,0","3:go_c","",""
"null","","html-keyboard-response","326","494487","0.0-6.0-1.35","","<img src=""img/yellow-r.png"" border=""10"">","null","trial","32","","1,0","3:go_c","1",""
"null","","html-keyboard-response","327","495489","0.0-6.0-2.35","","<div style=""font-size:60px;"">+</div>","null","","","","","","",""
"null","","image-keyboard-response","328","497001","0.0-6.0-0.36","","img/blue.png","null","trial","null","true","0,1","4:nogo_d","",""
"null","","html-keyboard-response","329","498005","0.0-6.0-1.36","","<img src=""img/blue-r.png"">","null","trial","null","","0,1","4:nogo_d","1",""
"null","","html-keyboard-response","330","499006","0.0-6.0-2.36","","<div style=""font-size:60px;"">+</div>","null","","","","","","",""
"449.79500000044936","","image-keyboard-response","331","499457","0.0-6.0-0.37","","img/purple.png","32","trial","32","true","0.8,0.2","1:go_a","",""
"null","","html-keyboard-response","332","500473","0.0-6.0-1.37","","<img src=""img/purple-r.png"" border=""10"">","null","trial","32","","0.8,0.2","1:go_a","1",""
"null","","html-keyboard-response","333","501489","0.0-6.0-2.37","","<div style=""font-size:60px;"">+</div>","null","","","","","","",""
"719.3200000037905","","image-keyboard-response","334","502209","0.0-6.0-0.38","","img/yellow.png","32","trial","32","true","1,0","3:go_c","",""
"null","","html-keyboard-response","335","503226","0.0-6.0-1.38","","<img src=""img/yellow-r.png"" border=""10"">","null","trial","32","","1,0","3:go_c","1",""
"null","","html-keyboard-response","336","504228","0.0-6.0-2.38","","<div style=""font-size:60px;"">+</div>","null","","","","","","",""
"null","","image-keyboard-response","337","505736","0.0-6.0-0.39","","img/orange.png","null","trial","null","true","0.2,0.8","2:nogo_b","",""
"null","","html-keyboard-response","338","506740","0.0-6.0-1.39","","<img src=""img/orange-r.png"">","null","trial","null","","0.2,0.8","2:nogo_b","1",""
"null","","html-keyboard-response","339","507772","0.0-6.0-2.39","","<div style=""font-size:60px;"">+</div>","null","","","","","","",""
"null","","image-keyboard-response","340","509287","0.0-6.0-0.40","","img/blue.png","null","trial","null","true","0,1","4:nogo_d","",""
"null","","html-keyboard-response","341","510290","0.0-6.0-1.40","","<img src=""img/blue-r.png"">","null","trial","null","","0,1","4:nogo_d","1",""
"null","","html-keyboard-response","342","511306","0.0-6.0-2.40","","<div style=""font-size:60px;"">+</div>","null","","","","","","",""
"334.13999999902444","","image-keyboard-response","343","511643","0.0-6.0-0.41","","img/yellow.png","32","trial","32","true","1,0","3:go_c","",""
"null","","html-keyboard-response","344","512661","0.0-6.0-1.41","","<img src=""img/yellow-r.png"" border=""10"">","null","trial","32","","1,0","3:go_c","1",""
"null","","html-keyboard-response","345","513677","0.0-6.0-2.41","","<div style=""font-size:60px;"">+</div>","null","","","","","","",""
"null","","image-keyboard-response","346","515189","0.0-6.0-0.42","","img/orange.png","null","trial","null","true","0.2,0.8","2:nogo_b","",""
"null","","html-keyboard-response","347","516194","0.0-6.0-1.42","","<img src=""img/orange-r.png"">","null","trial","null","","0.2,0.8","2:nogo_b","1",""
"null","","html-keyboard-response","348","517210","0.0-6.0-2.42","","<div style=""font-size:60px;"">+</div>","null","","","","","","",""
"367.0799999963492","","image-keyboard-response","349","517578","0.0-6.0-0.43","","img/purple.png","32","trial","32","true","0.8,0.2","1:go_a","",""
"null","","html-keyboard-response","350","518582","0.0-6.0-1.43","","<img src=""img/purple-r.png"" border=""10"">","null","trial","32","","0.8,0.2","1:go_a","1",""
"null","","html-keyboard-response","351","519584","0.0-6.0-2.43","","<div style=""font-size:60px;"">+</div>","null","","","","","","",""
"534.9849999984144","","image-keyboard-response","352","520121","0.0-6.0-0.44","","img/purple.png","32","trial","32","true","0.8,0.2","1:go_a","",""
"null","","html-keyboard-response","353","521130","0.0-6.0-1.44","","<img src=""img/purple-n.png"" border=""10"">","null","trial","32","","0.8,0.2","1:go_a","0",""
"null","","html-keyboard-response","354","522134","0.0-6.0-2.44","","<div style=""font-size:60px;"">+</div>","null","","","","","","",""
"null","","image-keyboard-response","355","523643","0.0-6.0-0.45","","img/orange.png","null","trial","null","true","0.2,0.8","2:nogo_b","",""
"null","","html-keyboard-response","356","524646","0.0-6.0-1.45","","<img src=""img/orange-r.png"">","null","trial","null","","0.2,0.8","2:nogo_b","1",""
"null","","html-keyboard-response","357","525661","0.0-6.0-2.45","","<div style=""font-size:60px;"">+</div>","null","","","","","","",""
"323.5699999933131","","image-keyboard-response","358","525986","0.0-6.0-0.46","","img/yellow.png","32","trial","32","true","1,0","3:go_c","",""
"null","","html-keyboard-response","359","526994","0.0-6.0-1.46","","<img src=""img/yellow-r.png"" border=""10"">","null","trial","32","","1,0","3:go_c","1",""
"null","","html-keyboard-response","360","527999","0.0-6.0-2.46","","<div style=""font-size:60px;"">+</div>","null","","","","","","",""
"null","","image-keyboard-response","361","529511","0.0-6.0-0.47","","img/blue.png","null","trial","null","true","0,1","4:nogo_d","",""
"null","","html-keyboard-response","362","530515","0.0-6.0-1.47","","<img src=""img/blue-r.png"">","null","trial","null","","0,1","4:nogo_d","1",""
"null","","html-keyboard-response","363","531518","0.0-6.0-2.47","","<div style=""font-size:60px;"">+</div>","null","","","","","","",""
"null","","image-keyboard-response","364","533028","0.0-6.0-0.48","","img/blue.png","null","trial","null","true","0,1","4:nogo_d","",""
"null","","html-keyboard-response","365","534031","0.0-6.0-1.48","","<img src=""img/blue-r.png"">","null","trial","null","","0,1","4:nogo_d","1",""
"null","","html-keyboard-response","366","535044","0.0-6.0-2.48","","<div style=""font-size:60px;"">+</div>","null","","","","","","",""
"null","","image-keyboard-response","367","536551","0.0-6.0-0.49","","img/orange.png","null","trial","null","true","0.2,0.8","2:nogo_b","",""
"null","","html-keyboard-response","368","537567","0.0-6.0-1.49","","<img src=""img/orange-r.png"">","null","trial","null","","0.2,0.8","2:nogo_b","1",""
"null","","html-keyboard-response","369","538583","0.0-6.0-2.49","","<div style=""font-size:60px;"">+</div>","null","","","","","","",""
"385.1149999971967","","image-keyboard-response","370","538969","0.0-6.0-0.50","","img/purple.png","32","trial","32","true","0.8,0.2","1:go_a","",""
"null","","html-keyboard-response","371","539982","0.0-6.0-1.50","","<img src=""img/purple-n.png"" border=""10"">","null","trial","32","","0.8,0.2","1:go_a","0",""
"null","","html-keyboard-response","372","540984","0.0-6.0-2.50","","<div style=""font-size:60px;"">+</div>","null","","","","","","",""
"394.3799999979092","","image-keyboard-response","373","541380","0.0-6.0-0.51","","img/yellow.png","32","trial","32","true","1,0","3:go_c","",""
"null","","html-keyboard-response","374","542394","0.0-6.0-1.51","","<img src=""img/yellow-r.png"" border=""10"">","null","trial","32","","1,0","3:go_c","1",""
"null","","html-keyboard-response","375","543396","0.0-6.0-2.51","","<div style=""font-size:60px;"">+</div>","null","","","","","","",""
"null","","image-keyboard-response","376","544898","0.0-6.0-0.52","","img/blue.png","null","trial","null","true","0,1","4:nogo_d","",""
"null","","html-keyboard-response","377","545902","0.0-6.0-1.52","","<img src=""img/blue-r.png"">","null","trial","null","","0,1","4:nogo_d","1",""
"null","","html-keyboard-response","378","546906","0.0-6.0-2.52","","<div style=""font-size:60px;"">+</div>","null","","","","","","",""
"486.8900000001304","","image-keyboard-response","379","547394","0.0-6.0-0.53","","img/purple.png","32","trial","32","true","0.8,0.2","1:go_a","",""
"null","","html-keyboard-response","380","548399","0.0-6.0-1.53","","<img src=""img/purple-r.png"" border=""10"">","null","trial","32","","0.8,0.2","1:go_a","1",""
"null","","html-keyboard-response","381","549401","0.0-6.0-2.53","","<div style=""font-size:60px;"">+</div>","null","","","","","","",""
"351.22499999857973","","image-keyboard-response","382","549753","0.0-6.0-0.54","","img/yellow.png","32","trial","32","true","1,0","3:go_c","",""
"null","","html-keyboard-response","383","550769","0.0-6.0-1.54","","<img src=""img/yellow-r.png"" border=""10"">","null","trial","32","","1,0","3:go_c","1",""
"null","","html-keyboard-response","384","551780","0.0-6.0-2.54","","<div style=""font-size:60px;"">+</div>","null","","","","","","",""
"null","","image-keyboard-response","385","553291","0.0-6.0-0.55","","img/orange.png","null","trial","null","true","0.2,0.8","2:nogo_b","",""
"null","","html-keyboard-response","386","554292","0.0-6.0-1.55","","<img src=""img/orange-r.png"">","null","trial","null","","0.2,0.8","2:nogo_b","1",""
"null","","html-keyboard-response","387","555305","0.0-6.0-2.55","","<div style=""font-size:60px;"">+</div>","null","","","","","","",""
"null","","image-keyboard-response","388","556815","0.0-6.0-0.56","","img/blue.png","null","trial","null","true","0,1","4:nogo_d","",""
"null","","html-keyboard-response","389","557831","0.0-6.0-1.56","","<img src=""img/blue-r.png"">","null","trial","null","","0,1","4:nogo_d","1",""
"null","","html-keyboard-response","390","558844","0.0-6.0-2.56","","<div style=""font-size:60px;"">+</div>","null","","","","","","",""
"null","","image-keyboard-response","391","560352","0.0-6.0-0.57","","img/orange.png","null","trial","null","true","0.2,0.8","2:nogo_b","",""
"null","","html-keyboard-response","392","561370","0.0-6.0-1.57","","<img src=""img/orange-n.png"">","null","trial","null","","0.2,0.8","2:nogo_b","0",""
"null","","html-keyboard-response","393","562374","0.0-6.0-2.57","","<div style=""font-size:60px;"">+</div>","null","","","","","","",""
"427.335000000312","","image-keyboard-response","394","562803","0.0-6.0-0.58","","img/purple.png","32","trial","32","true","0.8,0.2","1:go_a","",""
"null","","html-keyboard-response","395","563822","0.0-6.0-1.58","","<img src=""img/purple-r.png"" border=""10"">","null","trial","32","","0.8,0.2","1:go_a","1",""
"null","","html-keyboard-response","396","564834","0.0-6.0-2.58","","<div style=""font-size:60px;"">+</div>","null","","","","","","",""
"358.3800000050105","","image-keyboard-response","397","565193","0.0-6.0-0.59","","img/yellow.png","32","trial","32","true","1,0","3:go_c","",""
"null","","html-keyboard-response","398","566200","0.0-6.0-1.59","","<img src=""img/yellow-r.png"" border=""10"">","null","trial","32","","1,0","3:go_c","1",""
"null","","html-keyboard-response","399","567204","0.0-6.0-2.59","","<div style=""font-size:60px;"">+</div>","null","","","","","","",""
"524.2500000022119","","image-keyboard-response","400","567729","0.0-6.0-0.60","","img/yellow.png","32","trial","32","true","1,0","3:go_c","",""
"null","","html-keyboard-response","401","568745","0.0-6.0-1.60","","<img src=""img/yellow-r.png"" border=""10"">","null","trial","32","","1,0","3:go_c","1",""
"null","","html-keyboard-response","402","569747","0.0-6.0-2.60","","<div style=""font-size:60px;"">+</div>","null","","","","","","",""
"381.385000000475","","image-keyboard-response","403","570130","0.0-6.0-0.61","","img/purple.png","32","trial","32","true","0.8,0.2","1:go_a","",""
"null","","html-keyboard-response","404","571141","0.0-6.0-1.61","","<img src=""img/purple-r.png"" border=""10"">","null","trial","32","","0.8,0.2","1:go_a","1",""
"null","","html-keyboard-response","405","572146","0.0-6.0-2.61","","<div style=""font-size:60px;"">+</div>","null","","","","","","",""
"null","","image-keyboard-response","406","573657","0.0-6.0-0.62","","img/blue.png","null","trial","null","true","0,1","4:nogo_d","",""
"null","","html-keyboard-response","407","574660","0.0-6.0-1.62","","<img src=""img/blue-r.png"">","null","trial","null","","0,1","4:nogo_d","1",""
"null","","html-keyboard-response","408","575664","0.0-6.0-2.62","","<div style=""font-size:60px;"">+</div>","null","","","","","","",""
"null","","image-keyboard-response","409","577178","0.0-6.0-0.63","","img/orange.png","null","trial","null","true","0.2,0.8","2:nogo_b","",""
"null","","html-keyboard-response","410","578180","0.0-6.0-1.63","","<img src=""img/orange-r.png"">","null","trial","null","","0.2,0.8","2:nogo_b","1",""
"null","","html-keyboard-response","411","579184","0.0-6.0-2.63","","<div style=""font-size:60px;"">+</div>","null","","","","","","",""
"569.1050000023097","","image-keyboard-response","412","579754","0.0-6.0-0.64","","img/purple.png","32","trial","32","true","0.8,0.2","1:go_a","",""
"null","","html-keyboard-response","413","580757","0.0-6.0-1.64","","<img src=""img/purple-n.png"" border=""10"">","null","trial","32","","0.8,0.2","1:go_a","0",""
"null","","html-keyboard-response","414","581762","0.0-6.0-2.64","","<div style=""font-size:60px;"">+</div>","null","","","","","","",""
"null","","image-keyboard-response","415","583274","0.0-6.0-0.65","","img/blue.png","null","trial","null","true","0,1","4:nogo_d","",""
"null","","html-keyboard-response","416","584276","0.0-6.0-1.65","","<img src=""img/blue-r.png"">","null","trial","null","","0,1","4:nogo_d","1",""
"null","","html-keyboard-response","417","585280","0.0-6.0-2.65","","<div style=""font-size:60px;"">+</div>","null","","","","","","",""
"null","","image-keyboard-response","418","586787","0.0-6.0-0.66","","img/orange.png","null","trial","null","true","0.2,0.8","2:nogo_b","",""
"null","","html-keyboard-response","419","587804","0.0-6.0-1.66","","<img src=""img/orange-r.png"">","null","trial","null","","0.2,0.8","2:nogo_b","1",""
"null","","html-keyboard-response","420","588805","0.0-6.0-2.66","","<div style=""font-size:60px;"">+</div>","null","","","","","","",""
"370.4699999943841","","image-keyboard-response","421","589177","0.0-6.0-0.67","","img/yellow.png","32","trial","32","true","1,0","3:go_c","",""
"null","","html-keyboard-response","422","590184","0.0-6.0-1.67","","<img src=""img/yellow-r.png"" border=""10"">","null","trial","32","","1,0","3:go_c","1",""
"null","","html-keyboard-response","423","591188","0.0-6.0-2.67","","<div style=""font-size:60px;"">+</div>","null","","","","","","",""
"null","","image-keyboard-response","424","592700","0.0-6.0-0.68","","img/blue.png","null","trial","null","true","0,1","4:nogo_d","",""
"null","","html-keyboard-response","425","593704","0.0-6.0-1.68","","<img src=""img/blue-r.png"">","null","trial","null","","0,1","4:nogo_d","1",""
"null","","html-keyboard-response","426","594722","0.0-6.0-2.68","","<div style=""font-size:60px;"">+</div>","null","","","","","","",""
"null","","image-keyboard-response","427","596232","0.0-6.0-0.69","","img/orange.png","null","trial","null","true","0.2,0.8","2:nogo_b","",""
"null","","html-keyboard-response","428","597252","0.0-6.0-1.69","","<img src=""img/orange-r.png"">","null","trial","null","","0.2,0.8","2:nogo_b","1",""
"null","","html-keyboard-response","429","598269","0.0-6.0-2.69","","<div style=""font-size:60px;"">+</div>","null","","","","","","",""
"371.9599999967031","","image-keyboard-response","430","598641","0.0-6.0-0.70","","img/yellow.png","32","trial","32","true","1,0","3:go_c","",""
"null","","html-keyboard-response","431","599654","0.0-6.0-1.70","","<img src=""img/yellow-r.png"" border=""10"">","null","trial","32","","1,0","3:go_c","1",""
"null","","html-keyboard-response","432","600670","0.0-6.0-2.70","","<div style=""font-size:60px;"">+</div>","null","","","","","","",""
"530.3550000025425","","image-keyboard-response","433","601201","0.0-6.0-0.71","","img/purple.png","32","trial","32","true","0.8,0.2","1:go_a","",""
"null","","html-keyboard-response","434","602214","0.0-6.0-1.71","","<img src=""img/purple-n.png"" border=""10"">","null","trial","32","","0.8,0.2","1:go_a","0",""
"null","","html-keyboard-response","435","603216","0.0-6.0-2.71","","<div style=""font-size:60px;"">+</div>","null","","","","","","",""
"null","","image-keyboard-response","436","604720","0.0-6.0-0.72","","img/orange.png","null","trial","null","true","0.2,0.8","2:nogo_b","",""
"null","","html-keyboard-response","437","605738","0.0-6.0-1.72","","<img src=""img/orange-n.png"">","null","trial","null","","0.2,0.8","2:nogo_b","0",""
"null","","html-keyboard-response","438","606741","0.0-6.0-2.72","","<div style=""font-size:60px;"">+</div>","null","","","","","","",""
"401.5750000034459","","image-keyboard-response","439","607145","0.0-6.0-0.73","","img/purple.png","32","trial","32","true","0.8,0.2","1:go_a","",""
"null","","html-keyboard-response","440","608159","0.0-6.0-1.73","","<img src=""img/purple-r.png"" border=""10"">","null","trial","32","","0.8,0.2","1:go_a","1",""
"null","","html-keyboard-response","441","609176","0.0-6.0-2.73","","<div style=""font-size:60px;"">+</div>","null","","","","","","",""
"377.16999999969266","","image-keyboard-response","442","609554","0.0-6.0-0.74","","img/yellow.png","32","trial","32","true","1,0","3:go_c","",""
"null","","html-keyboard-response","443","610559","0.0-6.0-1.74","","<img src=""img/yellow-r.png"" border=""10"">","null","trial","32","","1,0","3:go_c","1",""
"null","","html-keyboard-response","444","611562","0.0-6.0-2.74","","<div style=""font-size:60px;"">+</div>","null","","","","","","",""
"null","","image-keyboard-response","445","613072","0.0-6.0-0.75","","img/blue.png","null","trial","null","true","0,1","4:nogo_d","",""
"null","","html-keyboard-response","446","614090","0.0-6.0-1.75","","<img src=""img/blue-r.png"">","null","trial","null","","0,1","4:nogo_d","1",""
"null","","html-keyboard-response","447","615095","0.0-6.0-2.75","","<div style=""font-size:60px;"">+</div>","null","","","","","","",""
"null","","image-keyboard-response","448","616602","0.0-6.0-0.76","","img/orange.png","null","trial","null","true","0.2,0.8","2:nogo_b","",""
"null","","html-keyboard-response","449","617606","0.0-6.0-1.76","","<img src=""img/orange-r.png"">","null","trial","null","","0.2,0.8","2:nogo_b","1",""
"null","","html-keyboard-response","450","618621","0.0-6.0-2.76","","<div style=""font-size:60px;"">+</div>","null","","","","","","",""
"null","","image-keyboard-response","451","620132","0.0-6.0-0.77","","img/blue.png","null","trial","null","true","0,1","4:nogo_d","",""
"null","","html-keyboard-response","452","621136","0.0-6.0-1.77","","<img src=""img/blue-r.png"">","null","trial","null","","0,1","4:nogo_d","1",""
"null","","html-keyboard-response","453","622140","0.0-6.0-2.77","","<div style=""font-size:60px;"">+</div>","null","","","","","","",""
"452.9850000035949","","image-keyboard-response","454","622594","0.0-6.0-0.78","","img/purple.png","32","trial","32","true","0.8,0.2","1:go_a","",""
"null","","html-keyboard-response","455","623602","0.0-6.0-1.78","","<img src=""img/purple-r.png"" border=""10"">","null","trial","32","","0.8,0.2","1:go_a","1",""
"null","","html-keyboard-response","456","624618","0.0-6.0-2.78","","<div style=""font-size:60px;"">+</div>","null","","","","","","",""
"367.35500000219326","","image-keyboard-response","457","624986","0.0-6.0-0.79","","img/yellow.png","32","trial","32","true","1,0","3:go_c","",""
"null","","html-keyboard-response","458","626002","0.0-6.0-1.79","","<img src=""img/yellow-r.png"" border=""10"">","null","trial","32","","1,0","3:go_c","1",""
"null","","html-keyboard-response","459","627005","0.0-6.0-2.79","","<div style=""font-size:60px;"">+</div>","null","","","","","","",""
"null","","image-keyboard-response","460","628511","0.0-6.0-0.80","","img/orange.png","null","trial","null","true","0.2,0.8","2:nogo_b","",""
"null","","html-keyboard-response","461","629513","0.0-6.0-1.80","","<img src=""img/orange-r.png"">","null","trial","null","","0.2,0.8","2:nogo_b","1",""
"null","","html-keyboard-response","462","630514","0.0-6.0-2.80","","<div style=""font-size:60px;"">+</div>","null","","","","","","",""
"null","","image-keyboard-response","463","632020","0.0-6.0-0.81","","img/blue.png","null","trial","null","true","0,1","4:nogo_d","",""
"null","","html-keyboard-response","464","633036","0.0-6.0-1.81","","<img src=""img/blue-r.png"">","null","trial","null","","0,1","4:nogo_d","1",""
"null","","html-keyboard-response","465","634039","0.0-6.0-2.81","","<div style=""font-size:60px;"">+</div>","null","","","","","","",""
"361.0899999985704","","image-keyboard-response","466","634401","0.0-6.0-0.82","","img/yellow.png","32","trial","32","true","1,0","3:go_c","",""
"null","","html-keyboard-response","467","635408","0.0-6.0-1.82","","<img src=""img/yellow-r.png"" border=""10"">","null","trial","32","","1,0","3:go_c","1",""
"null","","html-keyboard-response","468","636426","0.0-6.0-2.82","","<div style=""font-size:60px;"">+</div>","null","","","","","","",""
"438.5550000006333","","image-keyboard-response","469","636865","0.0-6.0-0.83","","img/purple.png","32","trial","32","true","0.8,0.2","1:go_a","",""
"null","","html-keyboard-response","470","637871","0.0-6.0-1.83","","<img src=""img/purple-r.png"" border=""10"">","null","trial","32","","0.8,0.2","1:go_a","1",""
"null","","html-keyboard-response","471","638887","0.0-6.0-2.83","","<div style=""font-size:60px;"">+</div>","null","","","","","","",""
"433.20500000123866","","image-keyboard-response","472","639322","0.0-6.0-0.84","","img/yellow.png","32","trial","32","true","1,0","3:go_c","",""
"null","","html-keyboard-response","473","640330","0.0-6.0-1.84","","<img src=""img/yellow-r.png"" border=""10"">","null","trial","32","","1,0","3:go_c","1",""
"null","","html-keyboard-response","474","641335","0.0-6.0-2.84","","<div style=""font-size:60px;"">+</div>","null","","","","","","",""
"353.14500000094995","","image-keyboard-response","475","641689","0.0-6.0-0.85","","img/purple.png","32","trial","32","true","0.8,0.2","1:go_a","",""
"null","","html-keyboard-response","476","642702","0.0-6.0-1.85","","<img src=""img/purple-n.png"" border=""10"">","null","trial","32","","0.8,0.2","1:go_a","0",""
"null","","html-keyboard-response","477","643704","0.0-6.0-2.85","","<div style=""font-size:60px;"">+</div>","null","","","","","","",""
"null","","image-keyboard-response","478","645214","0.0-6.0-0.86","","img/blue.png","null","trial","null","true","0,1","4:nogo_d","",""
"null","","html-keyboard-response","479","646232","0.0-6.0-1.86","","<img src=""img/blue-r.png"">","null","trial","null","","0,1","4:nogo_d","1",""
"null","","html-keyboard-response","480","647237","0.0-6.0-2.86","","<div style=""font-size:60px;"">+</div>","null","","","","","","",""
"null","","image-keyboard-response","481","648746","0.0-6.0-0.87","","img/orange.png","null","trial","null","true","0.2,0.8","2:nogo_b","",""
"null","","html-keyboard-response","482","649750","0.0-6.0-1.87","","<img src=""img/orange-r.png"">","null","trial","null","","0.2,0.8","2:nogo_b","1",""
"null","","html-keyboard-response","483","650751","0.0-6.0-2.87","","<div style=""font-size:60px;"">+</div>","null","","","","","","",""
"null","","image-keyboard-response","484","652263","0.0-6.0-0.88","","img/orange.png","null","trial","null","true","0.2,0.8","2:nogo_b","",""
"null","","html-keyboard-response","485","653279","0.0-6.0-1.88","","<img src=""img/orange-r.png"">","null","trial","null","","0.2,0.8","2:nogo_b","1",""
"null","","html-keyboard-response","486","654293","0.0-6.0-2.88","","<div style=""font-size:60px;"">+</div>","null","","","","","","",""
"null","","image-keyboard-response","487","655799","0.0-6.0-0.89","","img/blue.png","null","trial","null","true","0,1","4:nogo_d","",""
"null","","html-keyboard-response","488","656802","0.0-6.0-1.89","","<img src=""img/blue-r.png"">","null","trial","null","","0,1","4:nogo_d","1",""
"null","","html-keyboard-response","489","657818","0.0-6.0-2.89","","<div style=""font-size:60px;"">+</div>","null","","","","","","",""
"519.7799999951385","","image-keyboard-response","490","658339","0.0-6.0-0.90","","img/purple.png","32","trial","32","true","0.8,0.2","1:go_a","",""
"null","","html-keyboard-response","491","659343","0.0-6.0-1.90","","<img src=""img/purple-r.png"" border=""10"">","null","trial","32","","0.8,0.2","1:go_a","1",""
"null","","html-keyboard-response","492","660345","0.0-6.0-2.90","","<div style=""font-size:60px;"">+</div>","null","","","","","","",""
"343.37499999674037","","image-keyboard-response","493","660689","0.0-6.0-0.91","","img/yellow.png","32","trial","32","true","1,0","3:go_c","",""
"null","","html-keyboard-response","494","661697","0.0-6.0-1.91","","<img src=""img/yellow-r.png"" border=""10"">","null","trial","32","","1,0","3:go_c","1",""
"null","","html-keyboard-response","495","662702","0.0-6.0-2.91","","<div style=""font-size:60px;"">+</div>","null","","","","","","",""
"506.13000000163447","","image-keyboard-response","496","663210","0.0-6.0-0.92","","img/purple.png","32","trial","32","true","0.8,0.2","1:go_a","",""
"null","","html-keyboard-response","497","664227","0.0-6.0-1.92","","<img src=""img/purple-r.png"" border=""10"">","null","trial","32","","0.8,0.2","1:go_a","1",""
"null","","html-keyboard-response","498","665231","0.0-6.0-2.92","","<div style=""font-size:60px;"">+</div>","null","","","","","","",""
"null","","image-keyboard-response","499","666744","0.0-6.0-0.93","","img/blue.png","null","trial","null","true","0,1","4:nogo_d","",""
"null","","html-keyboard-response","500","667748","0.0-6.0-1.93","","<img src=""img/blue-r.png"">","null","trial","null","","0,1","4:nogo_d","1",""
"null","","html-keyboard-response","501","668750","0.0-6.0-2.93","","<div style=""font-size:60px;"">+</div>","null","","","","","","",""
"null","","image-keyboard-response","502","670260","0.0-6.0-0.94","","img/orange.png","null","trial","null","true","0.2,0.8","2:nogo_b","",""
"null","","html-keyboard-response","503","671265","0.0-6.0-1.94","","<img src=""img/orange-r.png"">","null","trial","null","","0.2,0.8","2:nogo_b","1",""
"null","","html-keyboard-response","504","672266","0.0-6.0-2.94","","<div style=""font-size:60px;"">+</div>","null","","","","","","",""
"359.08000000193715","","image-keyboard-response","505","672626","0.0-6.0-0.95","","img/yellow.png","32","trial","32","true","1,0","3:go_c","",""
"null","","html-keyboard-response","506","673634","0.0-6.0-1.95","","<img src=""img/yellow-r.png"" border=""10"">","null","trial","32","","1,0","3:go_c","1",""
"null","","html-keyboard-response","507","674648","0.0-6.0-2.95","","<div style=""font-size:60px;"">+</div>","null","","","","","","",""
"null","","image-keyboard-response","508","676155","0.0-6.0-0.96","","img/blue.png","null","trial","null","true","0,1","4:nogo_d","",""
"null","","html-keyboard-response","509","677159","0.0-6.0-1.96","","<img src=""img/blue-r.png"">","null","trial","null","","0,1","4:nogo_d","1",""
"null","","html-keyboard-response","510","678162","0.0-6.0-2.96","","<div style=""font-size:60px;"">+</div>","null","","","","","","",""
"533.6700000043493","","image-keyboard-response","511","678697","0.0-6.0-0.97","","img/yellow.png","32","trial","32","true","1,0","3:go_c","",""
"null","","html-keyboard-response","512","679700","0.0-6.0-1.97","","<img src=""img/yellow-r.png"" border=""10"">","null","trial","32","","1,0","3:go_c","1",""
"null","","html-keyboard-response","513","680704","0.0-6.0-2.97","","<div style=""font-size:60px;"">+</div>","null","","","","","","",""
"null","","image-keyboard-response","514","682216","0.0-6.0-0.98","","img/orange.png","null","trial","null","true","0.2,0.8","2:nogo_b","",""
"null","","html-keyboard-response","515","683220","0.0-6.0-1.98","","<img src=""img/orange-r.png"">","null","trial","null","","0.2,0.8","2:nogo_b","1",""
"null","","html-keyboard-response","516","684230","0.0-6.0-2.98","","<div style=""font-size:60px;"">+</div>","null","","","","","","",""
"450.84499999939","","image-keyboard-response","517","684682","0.0-6.0-0.99","","img/purple.png","32","trial","32","true","0.8,0.2","1:go_a","",""
"null","","html-keyboard-response","518","685689","0.0-6.0-1.99","","<img src=""img/purple-r.png"" border=""10"">","null","trial","32","","0.8,0.2","1:go_a","1",""
"null","","html-keyboard-response","519","686693","0.0-6.0-2.99","","<div style=""font-size:60px;"">+</div>","null","","","","","","",""
"562.6350000021048","","image-keyboard-response","520","687258","0.0-6.0-0.100","","img/yellow.png","32","trial","32","true","1,0","3:go_c","",""
"null","","html-keyboard-response","521","688263","0.0-6.0-1.100","","<img src=""img/yellow-r.png"" border=""10"">","null","trial","32","","1,0","3:go_c","1",""
"null","","html-keyboard-response","522","689279","0.0-6.0-2.100","","<div style=""font-size:60px;"">+</div>","null","","","","","","",""
"null","","image-keyboard-response","523","690791","0.0-6.0-0.101","","img/orange.png","null","trial","null","true","0.2,0.8","2:nogo_b","",""
"null","","html-keyboard-response","524","691807","0.0-6.0-1.101","","<img src=""img/orange-r.png"">","null","trial","null","","0.2,0.8","2:nogo_b","1",""
"null","","html-keyboard-response","525","692823","0.0-6.0-2.101","","<div style=""font-size:60px;"">+</div>","null","","","","","","",""
"null","","image-keyboard-response","526","694329","0.0-6.0-0.102","","img/blue.png","null","trial","null","true","0,1","4:nogo_d","",""
"null","","html-keyboard-response","527","695347","0.0-6.0-1.102","","<img src=""img/blue-r.png"">","null","trial","null","","0,1","4:nogo_d","1",""
"null","","html-keyboard-response","528","696351","0.0-6.0-2.102","","<div style=""font-size:60px;"">+</div>","null","","","","","","",""
"377.2400000016205","","image-keyboard-response","529","696730","0.0-6.0-0.103","","img/purple.png","32","trial","32","true","0.8,0.2","1:go_a","",""
"null","","html-keyboard-response","530","697747","0.0-6.0-1.103","","<img src=""img/purple-r.png"" border=""10"">","null","trial","32","","0.8,0.2","1:go_a","1",""
"null","","html-keyboard-response","531","698751","0.0-6.0-2.103","","<div style=""font-size:60px;"">+</div>","null","","","","","","",""
"null","","image-keyboard-response","532","700258","0.0-6.0-0.104","","img/orange.png","null","trial","null","true","0.2,0.8","2:nogo_b","",""
"null","","html-keyboard-response","533","701274","0.0-6.0-1.104","","<img src=""img/orange-r.png"">","null","trial","null","","0.2,0.8","2:nogo_b","1",""
"null","","html-keyboard-response","534","702279","0.0-6.0-2.104","","<div style=""font-size:60px;"">+</div>","null","","","","","","",""
"null","","image-keyboard-response","535","703791","0.0-6.0-0.105","","img/blue.png","null","trial","null","true","0,1","4:nogo_d","",""
"null","","html-keyboard-response","536","704807","0.0-6.0-1.105","","<img src=""img/blue-r.png"">","null","trial","null","","0,1","4:nogo_d","1",""
"null","","html-keyboard-response","537","705809","0.0-6.0-2.105","","<div style=""font-size:60px;"">+</div>","null","","","","","","",""
"390.9249999995809","","image-keyboard-response","538","706201","0.0-6.0-0.106","","img/yellow.png","32","trial","32","true","1,0","3:go_c","",""
"null","","html-keyboard-response","539","707206","0.0-6.0-1.106","","<img src=""img/yellow-r.png"" border=""10"">","null","trial","32","","1,0","3:go_c","1",""
"null","","html-keyboard-response","540","708210","0.0-6.0-2.106","","<div style=""font-size:60px;"">+</div>","null","","","","","","",""
"398.60999999649357","","image-keyboard-response","541","708610","0.0-6.0-0.107","","img/purple.png","32","trial","32","true","0.8,0.2","1:go_a","",""
"null","","html-keyboard-response","542","709622","0.0-6.0-1.107","","<img src=""img/purple-r.png"" border=""10"">","null","trial","32","","0.8,0.2","1:go_a","1",""
"null","","html-keyboard-response","543","710624","0.0-6.0-2.107","","<div style=""font-size:60px;"">+</div>","null","","","","","","",""
"424.93500000284985","","image-keyboard-response","544","711050","0.0-6.0-0.108","","img/yellow.png","32","trial","32","true","1,0","3:go_c","",""
"null","","html-keyboard-response","545","712059","0.0-6.0-1.108","","<img src=""img/yellow-r.png"" border=""10"">","null","trial","32","","1,0","3:go_c","1",""
"null","","html-keyboard-response","546","713062","0.0-6.0-2.108","","<div style=""font-size:60px;"">+</div>","null","","","","","","",""
"null","","image-keyboard-response","547","714567","0.0-6.0-0.109","","img/orange.png","null","trial","null","true","0.2,0.8","2:nogo_b","",""
"null","","html-keyboard-response","548","715570","0.0-6.0-1.109","","<img src=""img/orange-r.png"">","null","trial","null","","0.2,0.8","2:nogo_b","1",""
"null","","html-keyboard-response","549","716574","0.0-6.0-2.109","","<div style=""font-size:60px;"">+</div>","null","","","","","","",""
"354.8300000037998","","image-keyboard-response","550","716930","0.0-6.0-0.110","","img/purple.png","32","trial","32","true","0.8,0.2","1:go_a","",""
"null","","html-keyboard-response","551","717944","0.0-6.0-1.110","","<img src=""img/purple-n.png"" border=""10"">","null","trial","32","","0.8,0.2","1:go_a","0",""
"null","","html-keyboard-response","552","718959","0.0-6.0-2.110","","<div style=""font-size:60px;"">+</div>","null","","","","","","",""
"null","","image-keyboard-response","553","720471","0.0-6.0-0.111","","img/blue.png","null","trial","null","true","0,1","4:nogo_d","",""
"null","","html-keyboard-response","554","721486","0.0-6.0-1.111","","<img src=""img/blue-r.png"">","null","trial","null","","0,1","4:nogo_d","1",""
"null","","html-keyboard-response","555","722501","0.0-6.0-2.111","","<div style=""font-size:60px;"">+</div>","null","","","","","","",""
"371.4849999960279","","image-keyboard-response","556","722873","0.0-6.0-0.112","","img/purple.png","32","trial","32","true","0.8,0.2","1:go_a","",""
"null","","html-keyboard-response","557","723884","0.0-6.0-1.112","","<img src=""img/purple-r.png"" border=""10"">","null","trial","32","","0.8,0.2","1:go_a","1",""
"null","","html-keyboard-response","558","724895","0.0-6.0-2.112","","<div style=""font-size:60px;"">+</div>","null","","","","","","",""
"null","","image-keyboard-response","559","726407","0.0-6.0-0.113","","img/orange.png","null","trial","null","true","0.2,0.8","2:nogo_b","",""
"null","","html-keyboard-response","560","727411","0.0-6.0-1.113","","<img src=""img/orange-r.png"">","null","trial","null","","0.2,0.8","2:nogo_b","1",""
"null","","html-keyboard-response","561","728426","0.0-6.0-2.113","","<div style=""font-size:60px;"">+</div>","null","","","","","","",""
"null","","image-keyboard-response","562","729932","0.0-6.0-0.114","","img/blue.png","null","trial","null","true","0,1","4:nogo_d","",""
"null","","html-keyboard-response","563","730934","0.0-6.0-1.114","","<img src=""img/blue-r.png"">","null","trial","null","","0,1","4:nogo_d","1",""
"null","","html-keyboard-response","564","731936","0.0-6.0-2.114","","<div style=""font-size:60px;"">+</div>","null","","","","","","",""
"377.1550000018906","","image-keyboard-response","565","732314","0.0-6.0-0.115","","img/yellow.png","32","trial","32","true","1,0","3:go_c","",""
"null","","html-keyboard-response","566","733323","0.0-6.0-1.115","","<img src=""img/yellow-r.png"" border=""10"">","null","trial","32","","1,0","3:go_c","1",""
"null","","html-keyboard-response","567","734337","0.0-6.0-2.115","","<div style=""font-size:60px;"">+</div>","null","","","","","","",""
"null","","image-keyboard-response","568","735848","0.0-6.0-0.116","","img/blue.png","null","trial","null","true","0,1","4:nogo_d","",""
"null","","html-keyboard-response","569","736851","0.0-6.0-1.116","","<img src=""img/blue-r.png"">","null","trial","null","","0,1","4:nogo_d","1",""
"null","","html-keyboard-response","570","737853","0.0-6.0-2.116","","<div style=""font-size:60px;"">+</div>","null","","","","","","",""
"null","","image-keyboard-response","571","739365","0.0-6.0-0.117","","img/orange.png","null","trial","null","true","0.2,0.8","2:nogo_b","",""
"null","","html-keyboard-response","572","740367","0.0-6.0-1.117","","<img src=""img/orange-r.png"">","null","trial","null","","0.2,0.8","2:nogo_b","1",""
"null","","html-keyboard-response","573","741383","0.0-6.0-2.117","","<div style=""font-size:60px;"">+</div>","null","","","","","","",""
"360.9299999952782","","image-keyboard-response","574","741747","0.0-6.0-0.118","","img/yellow.png","32","trial","32","true","1,0","3:go_c","",""
"null","","html-keyboard-response","575","742764","0.0-6.0-1.118","","<img src=""img/yellow-r.png"" border=""10"">","null","trial","32","","1,0","3:go_c","1",""
"null","","html-keyboard-response","576","743768","0.0-6.0-2.118","","<div style=""font-size:60px;"">+</div>","null","","","","","","",""
"368.2249999983469","","image-keyboard-response","577","744137","0.0-6.0-0.119","","img/purple.png","32","trial","32","true","0.8,0.2","1:go_a","",""
"null","","html-keyboard-response","578","745144","0.0-6.0-1.119","","<img src=""img/purple-r.png"" border=""10"">","null","trial","32","","0.8,0.2","1:go_a","1",""
"null","","html-keyboard-response","579","746160","0.0-6.0-2.119","","<div style=""font-size:60px;"">+</div>","null","","","","","","",""
"46125.884999993956","","instructions","580","792286","0.0-7.0","[{""page_index"":0,""viewing_time"":46125.70999999298}]","","","","","","","","",""
"601.6650000018999","","image-keyboard-response","581","792889","0.0-8.0-0.0","","img/yellow.png","32","trial","null","false","0.4,0.6","4:nogo_d","",""
"null","","html-keyboard-response","582","793904","0.0-8.0-1.0","","<img src=""img/yellow-n.png"" border=""10"">","null","trial","null","","0.4,0.6","4:nogo_d","0",""
"null","","html-keyboard-response","583","794918","0.0-8.0-2.0","","<div style=""font-size:60px;"">+</div>","null","","","","","","",""
"338.8150000027381","","image-keyboard-response","584","795258","0.0-8.0-0.1","","img/pink.png","32","trial","32","true","0.8,0.2","1:go_a","",""
"null","","html-keyboard-response","585","796266","0.0-8.0-1.1","","<img src=""img/pink-n.png"" border=""10"">","null","trial","32","","0.8,0.2","1:go_a","0",""
"null","","html-keyboard-response","586","797267","0.0-8.0-2.1","","<div style=""font-size:60px;"">+</div>","null","","","","","","",""
"493.0499999972526","","image-keyboard-response","587","797762","0.0-8.0-0.2","","img/blue.png","32","trial","32","true","0.6,0.4","3:go_c","",""
"null","","html-keyboard-response","588","798777","0.0-8.0-1.2","","<img src=""img/blue-n.png"" border=""10"">","null","trial","32","","0.6,0.4","3:go_c","0",""
"null","","html-keyboard-response","589","799780","0.0-8.0-2.2","","<div style=""font-size:60px;"">+</div>","null","","","","","","",""
"436.4100000021281","","image-keyboard-response","590","800217","0.0-8.0-0.3","","img/purple.png","32","trial","null","false","0.2,0.8","2:nogo_b","",""
"null","","html-keyboard-response","591","801231","0.0-8.0-1.3","","<img src=""img/purple-n.png"" border=""10"">","null","trial","null","","0.2,0.8","2:nogo_b","0",""
"null","","html-keyboard-response","592","802232","0.0-8.0-2.3","","<div style=""font-size:60px;"">+</div>","null","","","","","","",""
"null","","image-keyboard-response","593","803741","0.0-8.0-0.4","","img/yellow.png","null","trial","null","true","0.4,0.6","4:nogo_d","",""
"null","","html-keyboard-response","594","804756","0.0-8.0-1.4","","<img src=""img/yellow-r.png"">","null","trial","null","","0.4,0.6","4:nogo_d","1",""
"null","","html-keyboard-response","595","805759","0.0-8.0-2.4","","<div style=""font-size:60px;"">+</div>","null","","","","","","",""
"null","","image-keyboard-response","596","807270","0.0-8.0-0.5","","img/purple.png","null","trial","null","true","0.2,0.8","2:nogo_b","",""
"null","","html-keyboard-response","597","808274","0.0-8.0-1.5","","<img src=""img/purple-r.png"">","null","trial","null","","0.2,0.8","2:nogo_b","1",""
"null","","html-keyboard-response","598","809278","0.0-8.0-2.5","","<div style=""font-size:60px;"">+</div>","null","","","","","","",""
"null","","image-keyboard-response","599","810788","0.0-8.0-0.6","","img/blue.png","null","trial","32","false","0.6,0.4","3:go_c","",""
"null","","html-keyboard-response","600","811791","0.0-8.0-1.6","","<img src=""img/blue-n.png"">","null","trial","32","","0.6,0.4","3:go_c","0",""
"null","","html-keyboard-response","601","812794","0.0-8.0-2.6","","<div style=""font-size:60px;"">+</div>","null","","","","","","",""
"null","","image-keyboard-response","602","814302","0.0-8.0-0.7","","img/pink.png","null","trial","32","false","0.8,0.2","1:go_a","",""
"null","","html-keyboard-response","603","815316","0.0-8.0-1.7","","<img src=""img/pink-n.png"">","null","trial","32","","0.8,0.2","1:go_a","0",""
"null","","html-keyboard-response","604","816320","0.0-8.0-2.7","","<div style=""font-size:60px;"">+</div>","null","","","","","","",""
"471.2100000033388","","image-keyboard-response","605","816794","0.0-8.0-0.8","","img/blue.png","32","trial","32","true","0.6,0.4","3:go_c","",""
"null","","html-keyboard-response","606","817801","0.0-8.0-1.8","","<img src=""img/blue-r.png"" border=""10"">","null","trial","32","","0.6,0.4","3:go_c","1",""
"null","","html-keyboard-response","607","818818","0.0-8.0-2.8","","<div style=""font-size:60px;"">+</div>","null","","","","","","",""
"null","","image-keyboard-response","608","820328","0.0-8.0-0.9","","img/purple.png","null","trial","null","true","0.2,0.8","2:nogo_b","",""
"null","","html-keyboard-response","609","821340","0.0-8.0-1.9","","<img src=""img/purple-r.png"">","null","trial","null","","0.2,0.8","2:nogo_b","1",""
"null","","html-keyboard-response","610","822356","0.0-8.0-2.9","","<div style=""font-size:60px;"">+</div>","null","","","","","","",""
"442.3449999958975","","image-keyboard-response","611","822802","0.0-8.0-0.10","","img/pink.png","32","trial","32","true","0.8,0.2","1:go_a","",""
"null","","html-keyboard-response","612","823820","0.0-8.0-1.10","","<img src=""img/pink-n.png"" border=""10"">","null","trial","32","","0.8,0.2","1:go_a","0",""
"null","","html-keyboard-response","613","824823","0.0-8.0-2.10","","<div style=""font-size:60px;"">+</div>","null","","","","","","",""
"null","","image-keyboard-response","614","826337","0.0-8.0-0.11","","img/yellow.png","null","trial","null","true","0.4,0.6","4:nogo_d","",""
"null","","html-keyboard-response","615","827340","0.0-8.0-1.11","","<img src=""img/yellow-n.png"">","null","trial","null","","0.4,0.6","4:nogo_d","0",""
"null","","html-keyboard-response","616","828343","0.0-8.0-2.11","","<div style=""font-size:60px;"">+</div>","null","","","","","","",""
"null","","image-keyboard-response","617","829854","0.0-8.0-0.12","","img/yellow.png","null","trial","null","true","0.4,0.6","4:nogo_d","",""
"null","","html-keyboard-response","618","830871","0.0-8.0-1.12","","<img src=""img/yellow-n.png"">","null","trial","null","","0.4,0.6","4:nogo_d","0",""
"null","","html-keyboard-response","619","831876","0.0-8.0-2.12","","<div style=""font-size:60px;"">+</div>","null","","","","","","",""
"636.079999996582","","image-keyboard-response","620","832514","0.0-8.0-0.13","","img/pink.png","32","trial","32","true","0.8,0.2","1:go_a","",""
"null","","html-keyboard-response","621","833522","0.0-8.0-1.13","","<img src=""img/pink-r.png"" border=""10"">","null","trial","32","","0.8,0.2","1:go_a","1",""
"null","","html-keyboard-response","622","834525","0.0-8.0-2.13","","<div style=""font-size:60px;"">+</div>","null","","","","","","",""
"null","","image-keyboard-response","623","836037","0.0-8.0-0.14","","img/purple.png","null","trial","null","true","0.2,0.8","2:nogo_b","",""
"null","","html-keyboard-response","624","837040","0.0-8.0-1.14","","<img src=""img/purple-n.png"">","null","trial","null","","0.2,0.8","2:nogo_b","0",""
"null","","html-keyboard-response","625","838041","0.0-8.0-2.14","","<div style=""font-size:60px;"">+</div>","null","","","","","","",""
"518.8400000042748","","image-keyboard-response","626","838562","0.0-8.0-0.15","","img/blue.png","32","trial","32","true","0.6,0.4","3:go_c","",""
"null","","html-keyboard-response","627","839567","0.0-8.0-1.15","","<img src=""img/blue-n.png"" border=""10"">","null","trial","32","","0.6,0.4","3:go_c","0",""
"null","","html-keyboard-response","628","840572","0.0-8.0-2.15","","<div style=""font-size:60px;"">+</div>","null","","","","","","",""
"532.3600000046426","","image-keyboard-response","629","841106","0.0-8.0-0.16","","img/pink.png","32","trial","32","true","0.8,0.2","1:go_a","",""
"null","","html-keyboard-response","630","842110","0.0-8.0-1.16","","<img src=""img/pink-r.png"" border=""10"">","null","trial","32","","0.8,0.2","1:go_a","1",""
"null","","html-keyboard-response","631","843115","0.0-8.0-2.16","","<div style=""font-size:60px;"">+</div>","null","","","","","","",""
"null","","image-keyboard-response","632","844625","0.0-8.0-0.17","","img/yellow.png","null","trial","null","true","0.4,0.6","4:nogo_d","",""
"null","","html-keyboard-response","633","845628","0.0-8.0-1.17","","<img src=""img/yellow-n.png"">","null","trial","null","","0.4,0.6","4:nogo_d","0",""
"null","","html-keyboard-response","634","846632","0.0-8.0-2.17","","<div style=""font-size:60px;"">+</div>","null","","","","","","",""
"null","","image-keyboard-response","635","848141","0.0-8.0-0.18","","img/purple.png","null","trial","null","true","0.2,0.8","2:nogo_b","",""
"null","","html-keyboard-response","636","849158","0.0-8.0-1.18","","<img src=""img/purple-r.png"">","null","trial","null","","0.2,0.8","2:nogo_b","1",""
"null","","html-keyboard-response","637","850162","0.0-8.0-2.18","","<div style=""font-size:60px;"">+</div>","null","","","","","","",""
"606.4999999944121","","image-keyboard-response","638","850770","0.0-8.0-0.19","","img/blue.png","32","trial","32","true","0.6,0.4","3:go_c","",""
"null","","html-keyboard-response","639","851780","0.0-8.0-1.19","","<img src=""img/blue-r.png"" border=""10"">","null","trial","32","","0.6,0.4","3:go_c","1",""
"null","","html-keyboard-response","640","852784","0.0-8.0-2.19","","<div style=""font-size:60px;"">+</div>","null","","","","","","",""
"616.0999999992782","","image-keyboard-response","641","853402","0.0-8.0-0.20","","img/yellow.png","32","trial","null","false","0.4,0.6","4:nogo_d","",""
"null","","html-keyboard-response","642","854420","0.0-8.0-1.20","","<img src=""img/yellow-n.png"" border=""10"">","null","trial","null","","0.4,0.6","4:nogo_d","0",""
"null","","html-keyboard-response","643","855423","0.0-8.0-2.20","","<div style=""font-size:60px;"">+</div>","null","","","","","","",""
"625.1649999975925","","image-keyboard-response","644","856049","0.0-8.0-0.21","","img/blue.png","32","trial","32","true","0.6,0.4","3:go_c","",""
"null","","html-keyboard-response","645","857060","0.0-8.0-1.21","","<img src=""img/blue-r.png"" border=""10"">","null","trial","32","","0.6,0.4","3:go_c","1",""
"null","","html-keyboard-response","646","858064","0.0-8.0-2.21","","<div style=""font-size:60px;"">+</div>","null","","","","","","",""
"null","","image-keyboard-response","647","859576","0.0-8.0-0.22","","img/purple.png","null","trial","null","true","0.2,0.8","2:nogo_b","",""
"null","","html-keyboard-response","648","860590","0.0-8.0-1.22","","<img src=""img/purple-r.png"">","null","trial","null","","0.2,0.8","2:nogo_b","1",""
"null","","html-keyboard-response","649","861607","0.0-8.0-2.22","","<div style=""font-size:60px;"">+</div>","null","","","","","","",""
"480.79499999585096","","image-keyboard-response","650","862089","0.0-8.0-0.23","","img/pink.png","32","trial","32","true","0.8,0.2","1:go_a","",""
"null","","html-keyboard-response","651","863101","0.0-8.0-1.23","","<img src=""img/pink-r.png"" border=""10"">","null","trial","32","","0.8,0.2","1:go_a","1",""
"null","","html-keyboard-response","652","864104","0.0-8.0-2.23","","<div style=""font-size:60px;"">+</div>","null","","","","","","",""
"496.3149999966845","","image-keyboard-response","653","864601","0.0-8.0-0.24","","img/pink.png","32","trial","32","true","0.8,0.2","1:go_a","",""
"null","","html-keyboard-response","654","865610","0.0-8.0-1.24","","<img src=""img/pink-r.png"" border=""10"">","null","trial","32","","0.8,0.2","1:go_a","1",""
"null","","html-keyboard-response","655","866628","0.0-8.0-2.24","","<div style=""font-size:60px;"">+</div>","null","","","","","","",""
"null","","image-keyboard-response","656","868142","0.0-8.0-0.25","","img/purple.png","null","trial","null","true","0.2,0.8","2:nogo_b","",""
"null","","html-keyboard-response","657","869159","0.0-8.0-1.25","","<img src=""img/purple-n.png"">","null","trial","null","","0.2,0.8","2:nogo_b","0",""
"null","","html-keyboard-response","658","870175","0.0-8.0-2.25","","<div style=""font-size:60px;"">+</div>","null","","","","","","",""
"null","","image-keyboard-response","659","871684","0.0-8.0-0.26","","img/yellow.png","null","trial","null","true","0.4,0.6","4:nogo_d","",""
"null","","html-keyboard-response","660","872687","0.0-8.0-1.26","","<img src=""img/yellow-r.png"">","null","trial","null","","0.4,0.6","4:nogo_d","1",""
"null","","html-keyboard-response","661","873691","0.0-8.0-2.26","","<div style=""font-size:60px;"">+</div>","null","","","","","","",""
"461.4549999969313","","image-keyboard-response","662","874154","0.0-8.0-0.27","","img/blue.png","32","trial","32","true","0.6,0.4","3:go_c","",""
"null","","html-keyboard-response","663","875164","0.0-8.0-1.27","","<img src=""img/blue-n.png"" border=""10"">","null","trial","32","","0.6,0.4","3:go_c","0",""
"null","","html-keyboard-response","664","876168","0.0-8.0-2.27","","<div style=""font-size:60px;"">+</div>","null","","","","","","",""
"384.6149999953341","","image-keyboard-response","665","876553","0.0-8.0-0.28","","img/pink.png","32","trial","32","true","0.8,0.2","1:go_a","",""
"null","","html-keyboard-response","666","877564","0.0-8.0-1.28","","<img src=""img/pink-r.png"" border=""10"">","null","trial","32","","0.8,0.2","1:go_a","1",""
"null","","html-keyboard-response","667","878577","0.0-8.0-2.28","","<div style=""font-size:60px;"">+</div>","null","","","","","","",""
"616.5449999971315","","image-keyboard-response","668","879195","0.0-8.0-0.29","","img/blue.png","32","trial","32","true","0.6,0.4","3:go_c","",""
"null","","html-keyboard-response","669","880199","0.0-8.0-1.29","","<img src=""img/blue-r.png"" border=""10"">","null","trial","32","","0.6,0.4","3:go_c","1",""
"null","","html-keyboard-response","670","881215","0.0-8.0-2.29","","<div style=""font-size:60px;"">+</div>","null","","","","","","",""
"null","","image-keyboard-response","671","882728","0.0-8.0-0.30","","img/purple.png","null","trial","null","true","0.2,0.8","2:nogo_b","",""
"null","","html-keyboard-response","672","883730","0.0-8.0-1.30","","<img src=""img/purple-r.png"">","null","trial","null","","0.2,0.8","2:nogo_b","1",""
"null","","html-keyboard-response","673","884732","0.0-8.0-2.30","","<div style=""font-size:60px;"">+</div>","null","","","","","","",""
"null","","image-keyboard-response","674","886243","0.0-8.0-0.31","","img/yellow.png","null","trial","null","true","0.4,0.6","4:nogo_d","",""
"null","","html-keyboard-response","675","887245","0.0-8.0-1.31","","<img src=""img/yellow-n.png"">","null","trial","null","","0.4,0.6","4:nogo_d","0",""
"null","","html-keyboard-response","676","888250","0.0-8.0-2.31","","<div style=""font-size:60px;"">+</div>","null","","","","","","",""
"437.87500000325963","","image-keyboard-response","677","888690","0.0-8.0-0.32","","img/pink.png","32","trial","32","true","0.8,0.2","1:go_a","",""
"null","","html-keyboard-response","678","889700","0.0-8.0-1.32","","<img src=""img/pink-n.png"" border=""10"">","null","trial","32","","0.8,0.2","1:go_a","0",""
"null","","html-keyboard-response","679","890704","0.0-8.0-2.32","","<div style=""font-size:60px;"">+</div>","null","","","","","","",""
"616.5949999995064","","image-keyboard-response","680","891322","0.0-8.0-0.33","","img/blue.png","32","trial","32","true","0.6,0.4","3:go_c","",""
"null","","html-keyboard-response","681","892328","0.0-8.0-1.33","","<img src=""img/blue-n.png"" border=""10"">","null","trial","32","","0.6,0.4","3:go_c","0",""
"null","","html-keyboard-response","682","893330","0.0-8.0-2.33","","<div style=""font-size:60px;"">+</div>","null","","","","","","",""
"null","","image-keyboard-response","683","894839","0.0-8.0-0.34","","img/yellow.png","null","trial","null","true","0.4,0.6","4:nogo_d","",""
"null","","html-keyboard-response","684","895840","0.0-8.0-1.34","","<img src=""img/yellow-r.png"">","null","trial","null","","0.4,0.6","4:nogo_d","1",""
