"rt","url","trial_type","trial_index","time_elapsed","internal_node_id","view_history","stimulus","key_press","test_part","correct_response","correct","use_rew","which_stim","reward","responses"
"832151.0000000708","consent.html","external-html","0","832469","0.0-0.0","","","","","","","","","",""
"422250","","instructions","1","1254720","0.0-1.0","[{""page_index"":0,""viewing_time"":15543.00000006333},{""page_index"":1,""viewing_time"":65263.99999996647},{""page_index"":2,""viewing_time"":8304.000000003725},{""page_index"":3,""viewing_time"":49456.00000000559},{""page_index"":4,""viewing_time"":61200.999999884516},{""page_index"":5,""viewing_time"":206255.00000012107},{""page_index"":6,""viewing_time"":16224.999999860302}]","","","","","","","","",""
"null","","image-keyboard-response","2","1256234","0.0-2.0-0.0","","img/test3.PNG","null","practice","null","true","","","",""
"null","","html-keyboard-response","3","1257235","0.0-2.0-1.0","","<img src=""img/test3-reward.PNG"">","null","","","","","","",""
"null","","html-keyboard-response","4","1258237","0.0-2.0-2.0","","<div style=""font-size:60px;"">+</div>","null","","","","","","",""
"797.0000000204891","","image-keyboard-response","5","1259043","0.0-2.0-0.1","","img/test1.PNG","32","practice","32","true","","","",""
"null","","html-keyboard-response","6","1260052","0.0-2.0-1.1","","<img src=""img/test1-reward.PNG"" border=""10px; grey"">","null","","","","","","",""
"null","","html-keyboard-response","7","1261064","0.0-2.0-2.1","","<div style=""font-size:60px;"">+</div>","null","","","","","","",""
"null","","image-keyboard-response","8","1262565","0.0-2.0-0.2","","img/test2.PNG","null","practice","null","true","","","",""
"null","","html-keyboard-response","9","1263569","0.0-2.0-1.2","","<img src=""img/test2-reward.PNG"">","null","","","","","","",""
"null","","html-keyboard-response","10","1264586","0.0-2.0-2.2","","<div style=""font-size:60px;"">+</div>","null","","","","","","",""
"611.0000000335276","","image-keyboard-response","11","1265199","0.0-2.0-0.3","","img/test1.PNG","32","practice","32","true","","","",""
"null","","html-keyboard-response","12","1266216","0.0-2.0-1.3","","<img src=""img/test1-reward.PNG"" border=""10px; grey"">","null","","","","","","",""
"null","","html-keyboard-response","13","1267229","0.0-2.0-2.3","","<div style=""font-size:60px;"">+</div>","null","","","","","","",""
"null","","image-keyboard-response","14","1268735","0.0-2.0-0.4","","img/test3.PNG","null","practice","null","true","","","",""
"null","","html-keyboard-response","15","1269739","0.0-2.0-1.4","","<img src=""img/test3-reward.PNG"">","null","","","","","","",""
"null","","html-keyboard-response","16","1270741","0.0-2.0-2.4","","<div style=""font-size:60px;"">+</div>","null","","","","","","",""
"null","","image-keyboard-response","17","1272252","0.0-2.0-0.5","","img/test2.PNG","null","practice","null","true","","","",""
"null","","html-keyboard-response","18","1273274","0.0-2.0-1.5","","<img src=""img/test2-reward.PNG"">","null","","","","","","",""
"null","","html-keyboard-response","19","1274274","0.0-2.0-2.5","","<div style=""font-size:60px;"">+</div>","null","","","","","","",""
"753.9999999571592","","image-keyboard-response","20","1275030","0.0-2.0-0.6","","img/test1.PNG","32","practice","32","true","","","",""
"null","","html-keyboard-response","21","1276047","0.0-2.0-1.6","","<img src=""img/test1-reward.PNG"" border=""10px; grey"">","null","","","","","","",""
"null","","html-keyboard-response","22","1277057","0.0-2.0-2.6","","<div style=""font-size:60px;"">+</div>","null","","","","","","",""
"null","","image-keyboard-response","23","1278560","0.0-2.0-0.7","","img/test2.PNG","null","practice","null","true","","","",""
"null","","html-keyboard-response","24","1279567","0.0-2.0-1.7","","<img src=""img/test2-reward.PNG"">","null","","","","","","",""
"null","","html-keyboard-response","25","1280585","0.0-2.0-2.7","","<div style=""font-size:60px;"">+</div>","null","","","","","","",""
"null","","image-keyboard-response","26","1282095","0.0-2.0-0.8","","img/test3.PNG","null","practice","null","true","","","",""
"null","","html-keyboard-response","27","1283096","0.0-2.0-1.8","","<img src=""img/test3-reward.PNG"">","null","","","","","","",""
"null","","html-keyboard-response","28","1284098","0.0-2.0-2.8","","<div style=""font-size:60px;"">+</div>","null","","","","","","",""
"null","","image-keyboard-response","29","1285616","0.0-2.0-0.9","","img/test2.PNG","null","practice","null","true","","","",""
"null","","html-keyboard-response","30","1286628","0.0-2.0-1.9","","<img src=""img/test2-reward.PNG"">","null","","","","","","",""
"null","","html-keyboard-response","31","1287630","0.0-2.0-2.9","","<div style=""font-size:60px;"">+</div>","null","","","","","","",""
"null","","image-keyboard-response","32","1289136","0.0-2.0-0.10","","img/test3.PNG","null","practice","null","true","","","",""
"null","","html-keyboard-response","33","1290138","0.0-2.0-1.10","","<img src=""img/test3-reward.PNG"">","null","","","","","","",""
"null","","html-keyboard-response","34","1291141","0.0-2.0-2.10","","<div style=""font-size:60px;"">+</div>","null","","","","","","",""
"600.0000000931323","","image-keyboard-response","35","1291743","0.0-2.0-0.11","","img/test1.PNG","32","practice","32","true","","","",""
"null","","html-keyboard-response","36","1292746","0.0-2.0-1.11","","<img src=""img/test1-reward.PNG"" border=""10px; grey"">","null","","","","","","",""
"null","","html-keyboard-response","37","1293761","0.0-2.0-2.11","","<div style=""font-size:60px;"">+</div>","null","","","","","","",""
"4522.000000113621","","instructions","38","1298284","0.0-3.0","[{""page_index"":0,""viewing_time"":4520.999999949709}]","","","","","","","","",""
"1364.0000000596046","","image-keyboard-response","39","1299663","0.0-4.0-0.0","","img/red.png","32","trial","null","false","0.2,0.8","2:nogo_b","",""
"null","","html-keyboard-response","40","1300678","0.0-4.0-1.0","","<img src=""img/red-n.png"" border=""10"">","null","trial","null","","0.2,0.8","2:nogo_b","0",""
"null","","html-keyboard-response","41","1301681","0.0-4.0-2.0","","<div style=""font-size:60px;"">+</div>","null","","","","","","",""
"685.0000000558794","","image-keyboard-response","42","1302368","0.0-4.0-0.1","","img/purple.png","32","trial","32","true","0.8,0.2","1:go_a","",""
"null","","html-keyboard-response","43","1303380","0.0-4.0-1.1","","<img src=""img/purple-r.png"" border=""10"">","null","trial","32","","0.8,0.2","1:go_a","1",""
"null","","html-keyboard-response","44","1304383","0.0-4.0-2.1","","<div style=""font-size:60px;"">+</div>","null","","","","","","",""
"null","","image-keyboard-response","45","1305908","0.0-4.0-0.2","","img/red.png","null","trial","null","true","0.2,0.8","2:nogo_b","",""
"null","","html-keyboard-response","46","1306919","0.0-4.0-1.2","","<img src=""img/red-r.png"">","null","trial","null","","0.2,0.8","2:nogo_b","1",""
"null","","html-keyboard-response","47","1307925","0.0-4.0-2.2","","<div style=""font-size:60px;"">+</div>","null","","","","","","",""
"503.99999995715916","","image-keyboard-response","48","1308431","0.0-4.0-0.3","","img/purple.png","32","trial","32","true","0.8,0.2","1:go_a","",""
"null","","html-keyboard-response","49","1309440","0.0-4.0-1.3","","<img src=""img/purple-r.png"" border=""10"">","null","trial","32","","0.8,0.2","1:go_a","1",""
"null","","html-keyboard-response","50","1310442","0.0-4.0-2.3","","<div style=""font-size:60px;"">+</div>","null","","","","","","",""
"716.0000000149012","","image-keyboard-response","51","1311160","0.0-4.0-0.4","","img/purple.png","32","trial","32","true","0.8,0.2","1:go_a","",""
"null","","html-keyboard-response","52","1312183","0.0-4.0-1.4","","<img src=""img/purple-r.png"" border=""10"">","null","trial","32","","0.8,0.2","1:go_a","1",""
"null","","html-keyboard-response","53","1313188","0.0-4.0-2.4","","<div style=""font-size:60px;"">+</div>","null","","","","","","",""
"554.0000000037253","","image-keyboard-response","54","1313743","0.0-4.0-0.5","","img/red.png","32","trial","null","false","0.2,0.8","2:nogo_b","",""
"null","","html-keyboard-response","55","1314745","0.0-4.0-1.5","","<img src=""img/red-r.png"" border=""10"">","null","trial","null","","0.2,0.8","2:nogo_b","1",""
"null","","html-keyboard-response","56","1315759","0.0-4.0-2.5","","<div style=""font-size:60px;"">+</div>","null","","","","","","",""
"581.9999999366701","","image-keyboard-response","57","1316343","0.0-4.0-0.6","","img/purple.png","32","trial","32","true","0.8,0.2","1:go_a","",""
"null","","html-keyboard-response","58","1317352","0.0-4.0-1.6","","<img src=""img/purple-r.png"" border=""10"">","null","trial","32","","0.8,0.2","1:go_a","1",""
"null","","html-keyboard-response","59","1318367","0.0-4.0-2.6","","<div style=""font-size:60px;"">+</div>","null","","","","","","",""
"429.9999999348074","","image-keyboard-response","60","1318799","0.0-4.0-0.7","","img/red.png","32","trial","null","false","0.2,0.8","2:nogo_b","",""
"null","","html-keyboard-response","61","1319819","0.0-4.0-1.7","","<img src=""img/red-n.png"" border=""10"">","null","trial","null","","0.2,0.8","2:nogo_b","0",""
"null","","html-keyboard-response","62","1320842","0.0-4.0-2.7","","<div style=""font-size:60px;"">+</div>","null","","","","","","",""
"796.000000089407","","image-keyboard-response","63","1321641","0.0-4.0-0.8","","img/purple.png","32","trial","32","true","0.8,0.2","1:go_a","",""
"null","","html-keyboard-response","64","1322657","0.0-4.0-1.8","","<img src=""img/purple-r.png"" border=""10"">","null","trial","32","","0.8,0.2","1:go_a","1",""
"null","","html-keyboard-response","65","1323662","0.0-4.0-2.8","","<div style=""font-size:60px;"">+</div>","null","","","","","","",""
"1031.999999890104","","image-keyboard-response","66","1324695","0.0-4.0-0.9","","img/red.png","32","trial","null","false","0.2,0.8","2:nogo_b","",""
"null","","html-keyboard-response","67","1325699","0.0-4.0-1.9","","<img src=""img/red-n.png"" border=""10"">","null","trial","null","","0.2,0.8","2:nogo_b","0",""
"null","","html-keyboard-response","68","1326705","0.0-4.0-2.9","","<div style=""font-size:60px;"">+</div>","null","","","","","","",""
"524.9999999068677","","image-keyboard-response","69","1327231","0.0-4.0-0.10","","img/red.png","32","trial","null","false","0.2,0.8","2:nogo_b","",""
"null","","html-keyboard-response","70","1328247","0.0-4.0-1.10","","<img src=""img/red-n.png"" border=""10"">","null","trial","null","","0.2,0.8","2:nogo_b","0",""
"null","","html-keyboard-response","71","1329248","0.0-4.0-2.10","","<div style=""font-size:60px;"">+</div>","null","","","","","","",""
"406.00000019185245","","image-keyboard-response","72","1329655","0.0-4.0-0.11","","img/purple.png","32","trial","32","true","0.8,0.2","1:go_a","",""
"null","","html-keyboard-response","73","1330658","0.0-4.0-1.11","","<img src=""img/purple-n.png"" border=""10"">","null","trial","32","","0.8,0.2","1:go_a","0",""
"null","","html-keyboard-response","74","1331659","0.0-4.0-2.11","","<div style=""font-size:60px;"">+</div>","null","","","","","","",""
"null","","image-keyboard-response","75","1333176","0.0-4.0-0.12","","img/red.png","null","trial","null","true","0.2,0.8","2:nogo_b","",""
"null","","html-keyboard-response","76","1334190","0.0-4.0-1.12","","<img src=""img/red-r.png"">","null","trial","null","","0.2,0.8","2:nogo_b","1",""
"null","","html-keyboard-response","77","1335201","0.0-4.0-2.12","","<div style=""font-size:60px;"">+</div>","null","","","","","","",""
"405.0000000279397","","image-keyboard-response","78","1335608","0.0-4.0-0.13","","img/purple.png","32","trial","32","true","0.8,0.2","1:go_a","",""
"null","","html-keyboard-response","79","1336610","0.0-4.0-1.13","","<img src=""img/purple-r.png"" border=""10"">","null","trial","32","","0.8,0.2","1:go_a","1",""
"null","","html-keyboard-response","80","1337610","0.0-4.0-2.13","","<div style=""font-size:60px;"">+</div>","null","","","","","","",""
"null","","image-keyboard-response","81","1339120","0.0-4.0-0.14","","img/red.png","null","trial","null","true","0.2,0.8","2:nogo_b","",""
"null","","html-keyboard-response","82","1340130","0.0-4.0-1.14","","<img src=""img/red-r.png"">","null","trial","null","","0.2,0.8","2:nogo_b","1",""
"null","","html-keyboard-response","83","1341145","0.0-4.0-2.14","","<div style=""font-size:60px;"">+</div>","null","","","","","","",""
"588.9999999199063","","image-keyboard-response","84","1341736","0.0-4.0-0.15","","img/purple.png","32","trial","32","true","0.8,0.2","1:go_a","",""
"null","","html-keyboard-response","85","1342760","0.0-4.0-1.15","","<img src=""img/purple-r.png"" border=""10"">","null","trial","32","","0.8,0.2","1:go_a","1",""
"null","","html-keyboard-response","86","1343764","0.0-4.0-2.15","","<div style=""font-size:60px;"">+</div>","null","","","","","","",""
"834.000000031665","","image-keyboard-response","87","1344599","0.0-4.0-0.16","","img/purple.png","32","trial","32","true","0.8,0.2","1:go_a","",""
"null","","html-keyboard-response","88","1345615","0.0-4.0-1.16","","<img src=""img/purple-r.png"" border=""10"">","null","trial","32","","0.8,0.2","1:go_a","1",""
"null","","html-keyboard-response","89","1346616","0.0-4.0-2.16","","<div style=""font-size:60px;"">+</div>","null","","","","","","",""
"910.0000001490116","","image-keyboard-response","90","1347528","0.0-4.0-0.17","","img/red.png","32","trial","null","false","0.2,0.8","2:nogo_b","",""
"null","","html-keyboard-response","91","1348530","0.0-4.0-1.17","","<img src=""img/red-n.png"" border=""10"">","null","trial","null","","0.2,0.8","2:nogo_b","0",""
"null","","html-keyboard-response","92","1349531","0.0-4.0-2.17","","<div style=""font-size:60px;"">+</div>","null","","","","","","",""
"922.0000000204891","","image-keyboard-response","93","1350455","0.0-4.0-0.18","","img/purple.png","32","trial","32","true","0.8,0.2","1:go_a","",""
"null","","html-keyboard-response","94","1351461","0.0-4.0-1.18","","<img src=""img/purple-r.png"" border=""10"">","null","trial","32","","0.8,0.2","1:go_a","1",""
"null","","html-keyboard-response","95","1352463","0.0-4.0-2.18","","<div style=""font-size:60px;"">+</div>","null","","","","","","",""
"null","","image-keyboard-response","96","1353964","0.0-4.0-0.19","","img/red.png","null","trial","null","true","0.2,0.8","2:nogo_b","",""
"null","","html-keyboard-response","97","1354977","0.0-4.0-1.19","","<img src=""img/red-r.png"">","null","trial","null","","0.2,0.8","2:nogo_b","1",""
"null","","html-keyboard-response","98","1355983","0.0-4.0-2.19","","<div style=""font-size:60px;"">+</div>","null","","","","","","",""
"654.0000000968575","","image-keyboard-response","99","1356638","0.0-4.0-0.20","","img/purple.png","32","trial","32","true","0.8,0.2","1:go_a","",""
"null","","html-keyboard-response","100","1357652","0.0-4.0-1.20","","<img src=""img/purple-r.png"" border=""10"">","null","trial","32","","0.8,0.2","1:go_a","1",""
"null","","html-keyboard-response","101","1358663","0.0-4.0-2.20","","<div style=""font-size:60px;"">+</div>","null","","","","","","",""
"694.0000001341105","","image-keyboard-response","102","1359358","0.0-4.0-0.21","","img/red.png","32","trial","null","false","0.2,0.8","2:nogo_b","",""
"null","","html-keyboard-response","103","1360362","0.0-4.0-1.21","","<img src=""img/red-n.png"" border=""10"">","null","trial","null","","0.2,0.8","2:nogo_b","0",""
"null","","html-keyboard-response","104","1361395","0.0-4.0-2.21","","<div style=""font-size:60px;"">+</div>","null","","","","","","",""
"1121.999999973923","","image-keyboard-response","105","1362519","0.0-4.0-0.22","","img/purple.png","32","trial","32","true","0.8,0.2","1:go_a","",""
"null","","html-keyboard-response","106","1363534","0.0-4.0-1.22","","<img src=""img/purple-r.png"" border=""10"">","null","trial","32","","0.8,0.2","1:go_a","1",""
"null","","html-keyboard-response","107","1364538","0.0-4.0-2.22","","<div style=""font-size:60px;"">+</div>","null","","","","","","",""
"497.9999999050051","","image-keyboard-response","108","1365038","0.0-4.0-0.23","","img/red.png","32","trial","null","false","0.2,0.8","2:nogo_b","",""
"null","","html-keyboard-response","109","1366041","0.0-4.0-1.23","","<img src=""img/red-n.png"" border=""10"">","null","trial","null","","0.2,0.8","2:nogo_b","0",""
"null","","html-keyboard-response","110","1367061","0.0-4.0-2.23","","<div style=""font-size:60px;"">+</div>","null","","","","","","",""
"592.0000001788139","","image-keyboard-response","111","1367654","0.0-4.0-0.24","","img/red.png","32","trial","null","false","0.2,0.8","2:nogo_b","",""
"null","","html-keyboard-response","112","1368663","0.0-4.0-1.24","","<img src=""img/red-r.png"" border=""10"">","null","trial","null","","0.2,0.8","2:nogo_b","1",""
"null","","html-keyboard-response","113","1369664","0.0-4.0-2.24","","<div style=""font-size:60px;"">+</div>","null","","","","","","",""
"572.999999858439","","image-keyboard-response","114","1370239","0.0-4.0-0.25","","img/purple.png","32","trial","32","true","0.8,0.2","1:go_a","",""
"null","","html-keyboard-response","115","1371245","0.0-4.0-1.25","","<img src=""img/purple-r.png"" border=""10"">","null","trial","32","","0.8,0.2","1:go_a","1",""
"null","","html-keyboard-response","116","1372254","0.0-4.0-2.25","","<div style=""font-size:60px;"">+</div>","null","","","","","","",""
"589.9999998509884","","image-keyboard-response","117","1372846","0.0-4.0-0.26","","img/purple.png","32","trial","32","true","0.8,0.2","1:go_a","",""
"null","","html-keyboard-response","118","1373859","0.0-4.0-1.26","","<img src=""img/purple-r.png"" border=""10"">","null","trial","32","","0.8,0.2","1:go_a","1",""
"null","","html-keyboard-response","119","1374860","0.0-4.0-2.26","","<div style=""font-size:60px;"">+</div>","null","","","","","","",""
"496.00000004284084","","image-keyboard-response","120","1375358","0.0-4.0-0.27","","img/red.png","32","trial","null","false","0.2,0.8","2:nogo_b","",""
"null","","html-keyboard-response","121","1376359","0.0-4.0-1.27","","<img src=""img/red-n.png"" border=""10"">","null","trial","null","","0.2,0.8","2:nogo_b","0",""
"null","","html-keyboard-response","122","1377373","0.0-4.0-2.27","","<div style=""font-size:60px;"">+</div>","null","","","","","","",""
"441.0000001080334","","image-keyboard-response","123","1377814","0.0-4.0-0.28","","img/purple.png","32","trial","32","true","0.8,0.2","1:go_a","",""
"null","","html-keyboard-response","124","1378831","0.0-4.0-1.28","","<img src=""img/purple-n.png"" border=""10"">","null","trial","32","","0.8,0.2","1:go_a","0",""
"null","","html-keyboard-response","125","1379852","0.0-4.0-2.28","","<div style=""font-size:60px;"">+</div>","null","","","","","","",""
"337.000000057742","","image-keyboard-response","126","1380190","0.0-4.0-0.29","","img/red.png","32","trial","null","false","0.2,0.8","2:nogo_b","",""
"null","","html-keyboard-response","127","1381203","0.0-4.0-1.29","","<img src=""img/red-n.png"" border=""10"">","null","trial","null","","0.2,0.8","2:nogo_b","0",""
"null","","html-keyboard-response","128","1382205","0.0-4.0-2.29","","<div style=""font-size:60px;"">+</div>","null","","","","","","",""
"472.0000000670552","","image-keyboard-response","129","1382678","0.0-4.0-0.30","","img/purple.png","32","trial","32","true","0.8,0.2","1:go_a","",""
"null","","html-keyboard-response","130","1383695","0.0-4.0-1.30","","<img src=""img/purple-r.png"" border=""10"">","null","trial","32","","0.8,0.2","1:go_a","1",""
"null","","html-keyboard-response","131","1384701","0.0-4.0-2.30","","<div style=""font-size:60px;"">+</div>","null","","","","","","",""
"null","","image-keyboard-response","132","1386219","0.0-4.0-0.31","","img/red.png","null","trial","null","true","0.2,0.8","2:nogo_b","",""
"null","","html-keyboard-response","133","1387256","0.0-4.0-1.31","","<img src=""img/red-r.png"">","null","trial","null","","0.2,0.8","2:nogo_b","1",""
"null","","html-keyboard-response","134","1388261","0.0-4.0-2.31","","<div style=""font-size:60px;"">+</div>","null","","","","","","",""
"464.0000001527369","","image-keyboard-response","135","1388726","0.0-4.0-0.32","","img/purple.png","32","trial","32","true","0.8,0.2","1:go_a","",""
"null","","html-keyboard-response","136","1389736","0.0-4.0-1.32","","<img src=""img/purple-r.png"" border=""10"">","null","trial","32","","0.8,0.2","1:go_a","1",""
"null","","html-keyboard-response","137","1390754","0.0-4.0-2.32","","<div style=""font-size:60px;"">+</div>","null","","","","","","",""
"null","","image-keyboard-response","138","1392261","0.0-4.0-0.33","","img/red.png","null","trial","null","true","0.2,0.8","2:nogo_b","",""
"null","","html-keyboard-response","139","1393263","0.0-4.0-1.33","","<img src=""img/red-n.png"">","null","trial","null","","0.2,0.8","2:nogo_b","0",""
"null","","html-keyboard-response","140","1394274","0.0-4.0-2.33","","<div style=""font-size:60px;"">+</div>","null","","","","","","",""
"442.9999999701977","","image-keyboard-response","141","1394718","0.0-4.0-0.34","","img/purple.png","32","trial","32","true","0.8,0.2","1:go_a","",""
"null","","html-keyboard-response","142","1395734","0.0-4.0-1.34","","<img src=""img/purple-r.png"" border=""10"">","null","trial","32","","0.8,0.2","1:go_a","1",""
"null","","html-keyboard-response","143","1396748","0.0-4.0-2.34","","<div style=""font-size:60px;"">+</div>","null","","","","","","",""
"null","","image-keyboard-response","144","1398250","0.0-4.0-0.35","","img/red.png","null","trial","null","true","0.2,0.8","2:nogo_b","",""
"null","","html-keyboard-response","145","1399261","0.0-4.0-1.35","","<img src=""img/red-r.png"">","null","trial","null","","0.2,0.8","2:nogo_b","1",""
"null","","html-keyboard-response","146","1400269","0.0-4.0-2.35","","<div style=""font-size:60px;"">+</div>","null","","","","","","",""
"null","","image-keyboard-response","147","1401771","0.0-4.0-0.36","","img/red.png","null","trial","null","true","0.2,0.8","2:nogo_b","",""
"null","","html-keyboard-response","148","1402774","0.0-4.0-1.36","","<img src=""img/red-r.png"">","null","trial","null","","0.2,0.8","2:nogo_b","1",""
"null","","html-keyboard-response","149","1403775","0.0-4.0-2.36","","<div style=""font-size:60px;"">+</div>","null","","","","","","",""
"517.9999999236315","","image-keyboard-response","150","1404294","0.0-4.0-0.37","","img/purple.png","32","trial","32","true","0.8,0.2","1:go_a","",""
"null","","html-keyboard-response","151","1405297","0.0-4.0-1.37","","<img src=""img/purple-r.png"" border=""10"">","null","trial","32","","0.8,0.2","1:go_a","1",""
"null","","html-keyboard-response","152","1406308","0.0-4.0-2.37","","<div style=""font-size:60px;"">+</div>","null","","","","","","",""
"408.99999998509884","","image-keyboard-response","153","1406719","0.0-4.0-0.38","","img/purple.png","32","trial","32","true","0.8,0.2","1:go_a","",""
"null","","html-keyboard-response","154","1407750","0.0-4.0-1.38","","<img src=""img/purple-r.png"" border=""10"">","null","trial","32","","0.8,0.2","1:go_a","1",""
"null","","html-keyboard-response","155","1408756","0.0-4.0-2.38","","<div style=""font-size:60px;"">+</div>","null","","","","","","",""
"null","","image-keyboard-response","156","1410258","0.0-4.0-0.39","","img/red.png","null","trial","null","true","0.2,0.8","2:nogo_b","",""
"null","","html-keyboard-response","157","1411267","0.0-4.0-1.39","","<img src=""img/red-r.png"">","null","trial","null","","0.2,0.8","2:nogo_b","1",""
"null","","html-keyboard-response","158","1412269","0.0-4.0-2.39","","<div style=""font-size:60px;"">+</div>","null","","","","","","",""
"384.0000000782311","","image-keyboard-response","159","1412655","0.0-4.0-0.40","","img/purple.png","32","trial","32","true","0.8,0.2","1:go_a","",""
"null","","html-keyboard-response","160","1413657","0.0-4.0-1.40","","<img src=""img/purple-r.png"" border=""10"">","null","trial","32","","0.8,0.2","1:go_a","1",""
"null","","html-keyboard-response","161","1414659","0.0-4.0-2.40","","<div style=""font-size:60px;"">+</div>","null","","","","","","",""
"null","","image-keyboard-response","162","1416166","0.0-4.0-0.41","","img/red.png","null","trial","null","true","0.2,0.8","2:nogo_b","",""
"null","","html-keyboard-response","163","1417184","0.0-4.0-1.41","","<img src=""img/red-r.png"">","null","trial","null","","0.2,0.8","2:nogo_b","1",""
"null","","html-keyboard-response","164","1418186","0.0-4.0-2.41","","<div style=""font-size:60px;"">+</div>","null","","","","","","",""
"508.00000014714897","","image-keyboard-response","165","1418695","0.0-4.0-0.42","","img/purple.png","32","trial","32","true","0.8,0.2","1:go_a","",""
"null","","html-keyboard-response","166","1419696","0.0-4.0-1.42","","<img src=""img/purple-r.png"" border=""10"">","null","trial","32","","0.8,0.2","1:go_a","1",""
"null","","html-keyboard-response","167","1420696","0.0-4.0-2.42","","<div style=""font-size:60px;"">+</div>","null","","","","","","",""
"null","","image-keyboard-response","168","1422204","0.0-4.0-0.43","","img/red.png","null","trial","null","true","0.2,0.8","2:nogo_b","",""
"null","","html-keyboard-response","169","1423218","0.0-4.0-1.43","","<img src=""img/red-r.png"">","null","trial","null","","0.2,0.8","2:nogo_b","1",""
"null","","html-keyboard-response","170","1424220","0.0-4.0-2.43","","<div style=""font-size:60px;"">+</div>","null","","","","","","",""
"472.99999999813735","","image-keyboard-response","171","1424695","0.0-4.0-0.44","","img/purple.png","32","trial","32","true","0.8,0.2","1:go_a","",""
"null","","html-keyboard-response","172","1425710","0.0-4.0-1.44","","<img src=""img/purple-r.png"" border=""10"">","null","trial","32","","0.8,0.2","1:go_a","1",""
"null","","html-keyboard-response","173","1426724","0.0-4.0-2.44","","<div style=""font-size:60px;"">+</div>","null","","","","","","",""
"457.9999998677522","","image-keyboard-response","174","1427184","0.0-4.0-0.45","","img/red.png","32","trial","null","false","0.2,0.8","2:nogo_b","",""
"null","","html-keyboard-response","175","1428186","0.0-4.0-1.45","","<img src=""img/red-n.png"" border=""10"">","null","trial","null","","0.2,0.8","2:nogo_b","0",""
"null","","html-keyboard-response","176","1429186","0.0-4.0-2.45","","<div style=""font-size:60px;"">+</div>","null","","","","","","",""
"618.0000000167638","","image-keyboard-response","177","1429807","0.0-4.0-0.46","","img/red.png","32","trial","null","false","0.2,0.8","2:nogo_b","",""
"null","","html-keyboard-response","178","1430815","0.0-4.0-1.46","","<img src=""img/red-r.png"" border=""10"">","null","trial","null","","0.2,0.8","2:nogo_b","1",""
"null","","html-keyboard-response","179","1431829","0.0-4.0-2.46","","<div style=""font-size:60px;"">+</div>","null","","","","","","",""
"463.99999991990626","","image-keyboard-response","180","1432294","0.0-4.0-0.47","","img/purple.png","32","trial","32","true","0.8,0.2","1:go_a","",""
"null","","html-keyboard-response","181","1433302","0.0-4.0-1.47","","<img src=""img/purple-r.png"" border=""10"">","null","trial","32","","0.8,0.2","1:go_a","1",""
"null","","html-keyboard-response","182","1434320","0.0-4.0-2.47","","<div style=""font-size:60px;"">+</div>","null","","","","","","",""
"null","","image-keyboard-response","183","1435836","0.0-4.0-0.48","","img/red.png","null","trial","null","true","0.2,0.8","2:nogo_b","",""
"null","","html-keyboard-response","184","1436841","0.0-4.0-1.48","","<img src=""img/red-r.png"">","null","trial","null","","0.2,0.8","2:nogo_b","1",""
"null","","html-keyboard-response","185","1437842","0.0-4.0-2.48","","<div style=""font-size:60px;"">+</div>","null","","","","","","",""
"627.0000000949949","","image-keyboard-response","186","1438470","0.0-4.0-0.49","","img/purple.png","32","trial","32","true","0.8,0.2","1:go_a","",""
"null","","html-keyboard-response","187","1439474","0.0-4.0-1.49","","<img src=""img/purple-r.png"" border=""10"">","null","trial","32","","0.8,0.2","1:go_a","1",""
"null","","html-keyboard-response","188","1440476","0.0-4.0-2.49","","<div style=""font-size:60px;"">+</div>","null","","","","","","",""
"905.9999999590218","","image-keyboard-response","189","1441383","0.0-4.0-0.50","","img/purple.png","32","trial","32","true","0.8,0.2","1:go_a","",""
"null","","html-keyboard-response","190","1442394","0.0-4.0-1.50","","<img src=""img/purple-n.png"" border=""10"">","null","trial","32","","0.8,0.2","1:go_a","0",""
"null","","html-keyboard-response","191","1443421","0.0-4.0-2.50","","<div style=""font-size:60px;"">+</div>","null","","","","","","",""
"null","","image-keyboard-response","192","1444931","0.0-4.0-0.51","","img/red.png","null","trial","null","true","0.2,0.8","2:nogo_b","",""
"null","","html-keyboard-response","193","1445947","0.0-4.0-1.51","","<img src=""img/red-r.png"">","null","trial","null","","0.2,0.8","2:nogo_b","1",""
"null","","html-keyboard-response","194","1446949","0.0-4.0-2.51","","<div style=""font-size:60px;"">+</div>","null","","","","","","",""
"391.0000000614673","","image-keyboard-response","195","1447342","0.0-4.0-0.52","","img/purple.png","32","trial","32","true","0.8,0.2","1:go_a","",""
"null","","html-keyboard-response","196","1448344","0.0-4.0-1.52","","<img src=""img/purple-r.png"" border=""10"">","null","trial","32","","0.8,0.2","1:go_a","1",""
"null","","html-keyboard-response","197","1449359","0.0-4.0-2.52","","<div style=""font-size:60px;"">+</div>","null","","","","","","",""
"null","","image-keyboard-response","198","1450865","0.0-4.0-0.53","","img/red.png","null","trial","null","true","0.2,0.8","2:nogo_b","",""
"null","","html-keyboard-response","199","1451882","0.0-4.0-1.53","","<img src=""img/red-r.png"">","null","trial","null","","0.2,0.8","2:nogo_b","1",""
"null","","html-keyboard-response","200","1452896","0.0-4.0-2.53","","<div style=""font-size:60px;"">+</div>","null","","","","","","",""
"443.9999999012798","","image-keyboard-response","201","1453342","0.0-4.0-0.54","","img/purple.png","32","trial","32","true","0.8,0.2","1:go_a","",""
"null","","html-keyboard-response","202","1454344","0.0-4.0-1.54","","<img src=""img/purple-r.png"" border=""10"">","null","trial","32","","0.8,0.2","1:go_a","1",""
"null","","html-keyboard-response","203","1455361","0.0-4.0-2.54","","<div style=""font-size:60px;"">+</div>","null","","","","","","",""
"null","","image-keyboard-response","204","1456863","0.0-4.0-0.55","","img/red.png","null","trial","null","true","0.2,0.8","2:nogo_b","",""
"null","","html-keyboard-response","205","1457865","0.0-4.0-1.55","","<img src=""img/red-r.png"">","null","trial","null","","0.2,0.8","2:nogo_b","1",""
"null","","html-keyboard-response","206","1458881","0.0-4.0-2.55","","<div style=""font-size:60px;"">+</div>","null","","","","","","",""
"563.0000000819564","","image-keyboard-response","207","1459446","0.0-4.0-0.56","","img/purple.png","32","trial","32","true","0.8,0.2","1:go_a","",""
"null","","html-keyboard-response","208","1460452","0.0-4.0-1.56","","<img src=""img/purple-r.png"" border=""10"">","null","trial","32","","0.8,0.2","1:go_a","1",""
"null","","html-keyboard-response","209","1461465","0.0-4.0-2.56","","<div style=""font-size:60px;"">+</div>","null","","","","","","",""
"443.9999999012798","","image-keyboard-response","210","1461910","0.0-4.0-0.57","","img/red.png","32","trial","null","false","0.2,0.8","2:nogo_b","",""
"null","","html-keyboard-response","211","1462911","0.0-4.0-1.57","","<img src=""img/red-n.png"" border=""10"">","null","trial","null","","0.2,0.8","2:nogo_b","0",""
"null","","html-keyboard-response","212","1463913","0.0-4.0-2.57","","<div style=""font-size:60px;"">+</div>","null","","","","","","",""
"452.0000000484288","","image-keyboard-response","213","1464366","0.0-4.0-0.58","","img/purple.png","32","trial","32","true","0.8,0.2","1:go_a","",""
"null","","html-keyboard-response","214","1465377","0.0-4.0-1.58","","<img src=""img/purple-r.png"" border=""10"">","null","trial","32","","0.8,0.2","1:go_a","1",""
"null","","html-keyboard-response","215","1466392","0.0-4.0-2.58","","<div style=""font-size:60px;"">+</div>","null","","","","","","",""
"358.0000000074506","","image-keyboard-response","216","1466751","0.0-4.0-0.59","","img/red.png","32","trial","null","false","0.2,0.8","2:nogo_b","",""
"null","","html-keyboard-response","217","1467753","0.0-4.0-1.59","","<img src=""img/red-n.png"" border=""10"">","null","trial","null","","0.2,0.8","2:nogo_b","0",""
"null","","html-keyboard-response","218","1468754","0.0-4.0-2.59","","<div style=""font-size:60px;"">+</div>","null","","","","","","",""
"2921.000000089407","","instructions","219","1471676","0.0-5.0","[{""page_index"":0,""viewing_time"":2921.000000089407}]","","","","","","","","",""
"854.9999999813735","","image-keyboard-response","220","1472534","0.0-6.0-0.0","","img/pink.png","32","trial","null","false","0.2,0.8","2:nogo_b","",""
"null","","html-keyboard-response","221","1473539","0.0-6.0-1.0","","<img src=""img/pink-n.png"" border=""10"">","null","trial","null","","0.2,0.8","2:nogo_b","0",""
"null","","html-keyboard-response","222","1474541","0.0-6.0-2.0","","<div style=""font-size:60px;"">+</div>","null","","","","","","",""
"415.99999996833503","","image-keyboard-response","223","1474958","0.0-6.0-0.1","","img/blue.png","32","trial","32","true","1,0","3:go_c","",""
"null","","html-keyboard-response","224","1475961","0.0-6.0-1.1","","<img src=""img/blue-r.png"" border=""10"">","null","trial","32","","1,0","3:go_c","1",""
"null","","html-keyboard-response","225","1476963","0.0-6.0-2.1","","<div style=""font-size:60px;"">+</div>","null","","","","","","",""
"626.0000001639128","","image-keyboard-response","226","1477591","0.0-6.0-0.2","","img/orange.png","32","trial","null","false","0,1","4:nogo_d","",""
"null","","html-keyboard-response","227","1478596","0.0-6.0-1.2","","<img src=""img/orange-n.png"" border=""10"">","null","trial","null","","0,1","4:nogo_d","0",""
"null","","html-keyboard-response","228","1479604","0.0-6.0-2.2","","<div style=""font-size:60px;"">+</div>","null","","","","","","",""
"777.0000000018626","","image-keyboard-response","229","1480382","0.0-6.0-0.3","","img/green.png","32","trial","32","true","0.8,0.2","1:go_a","",""
"null","","html-keyboard-response","230","1481405","0.0-6.0-1.3","","<img src=""img/green-r.png"" border=""10"">","null","trial","32","","0.8,0.2","1:go_a","1",""
"null","","html-keyboard-response","231","1482420","0.0-6.0-2.3","","<div style=""font-size:60px;"">+</div>","null","","","","","","",""
"656.9999998901039","","image-keyboard-response","232","1483078","0.0-6.0-0.4","","img/blue.png","32","trial","32","true","1,0","3:go_c","",""
"null","","html-keyboard-response","233","1484094","0.0-6.0-1.4","","<img src=""img/blue-r.png"" border=""10"">","null","trial","32","","1,0","3:go_c","1",""
"null","","html-keyboard-response","234","1485097","0.0-6.0-2.4","","<div style=""font-size:60px;"">+</div>","null","","","","","","",""
"547.0000000204891","","image-keyboard-response","235","1485647","0.0-6.0-0.5","","img/green.png","32","trial","32","true","0.8,0.2","1:go_a","",""
"null","","html-keyboard-response","236","1486657","0.0-6.0-1.5","","<img src=""img/green-r.png"" border=""10"">","null","trial","32","","0.8,0.2","1:go_a","1",""
"null","","html-keyboard-response","237","1487658","0.0-6.0-2.5","","<div style=""font-size:60px;"">+</div>","null","","","","","","",""
"635.0000000093132","","image-keyboard-response","238","1488295","0.0-6.0-0.6","","img/pink.png","32","trial","null","false","0.2,0.8","2:nogo_b","",""
"null","","html-keyboard-response","239","1489307","0.0-6.0-1.6","","<img src=""img/pink-n.png"" border=""10"">","null","trial","null","","0.2,0.8","2:nogo_b","0",""
"null","","html-keyboard-response","240","1490309","0.0-6.0-2.6","","<div style=""font-size:60px;"">+</div>","null","","","","","","",""
"401.0000000707805","","image-keyboard-response","241","1490710","0.0-6.0-0.7","","img/orange.png","32","trial","null","false","0,1","4:nogo_d","",""
"null","","html-keyboard-response","242","1491713","0.0-6.0-1.7","","<img src=""img/orange-n.png"" border=""10"">","null","trial","null","","0,1","4:nogo_d","0",""
"null","","html-keyboard-response","243","1492715","0.0-6.0-2.7","","<div style=""font-size:60px;"">+</div>","null","","","","","","",""
"null","","image-keyboard-response","244","1494216","0.0-6.0-0.8","","img/orange.png","null","trial","null","true","0,1","4:nogo_d","",""
"null","","html-keyboard-response","245","1495242","0.0-6.0-1.8","","<img src=""img/orange-r.png"">","null","trial","null","","0,1","4:nogo_d","1",""
"null","","html-keyboard-response","246","1496245","0.0-6.0-2.8","","<div style=""font-size:60px;"">+</div>","null","","","","","","",""
"null","","image-keyboard-response","247","1497746","0.0-6.0-0.9","","img/pink.png","null","trial","null","true","0.2,0.8","2:nogo_b","",""
"null","","html-keyboard-response","248","1498749","0.0-6.0-1.9","","<img src=""img/pink-r.png"">","null","trial","null","","0.2,0.8","2:nogo_b","1",""
"null","","html-keyboard-response","249","1499757","0.0-6.0-2.9","","<div style=""font-size:60px;"">+</div>","null","","","","","","",""
"442.9999999701977","","image-keyboard-response","250","1500201","0.0-6.0-0.10","","img/blue.png","32","trial","32","true","1,0","3:go_c","",""
"null","","html-keyboard-response","251","1501204","0.0-6.0-1.10","","<img src=""img/blue-r.png"" border=""10"">","null","trial","32","","1,0","3:go_c","1",""
"null","","html-keyboard-response","252","1502273","0.0-6.0-2.10","","<div style=""font-size:60px;"">+</div>","null","","","","","","",""
"371.99999997392297","","image-keyboard-response","253","1502647","0.0-6.0-0.11","","img/green.png","32","trial","32","true","0.8,0.2","1:go_a","",""
"null","","html-keyboard-response","254","1503649","0.0-6.0-1.11","","<img src=""img/green-r.png"" border=""10"">","null","trial","32","","0.8,0.2","1:go_a","1",""
"null","","html-keyboard-response","255","1504652","0.0-6.0-2.11","","<div style=""font-size:60px;"">+</div>","null","","","","","","",""
"543.9999999944121","","image-keyboard-response","256","1505198","0.0-6.0-0.12","","img/green.png","32","trial","32","true","0.8,0.2","1:go_a","",""
"null","","html-keyboard-response","257","1506200","0.0-6.0-1.12","","<img src=""img/green-r.png"" border=""10"">","null","trial","32","","0.8,0.2","1:go_a","1",""
"null","","html-keyboard-response","258","1507204","0.0-6.0-2.12","","<div style=""font-size:60px;"">+</div>","null","","","","","","",""
"null","","image-keyboard-response","259","1508732","0.0-6.0-0.13","","img/pink.png","null","trial","null","true","0.2,0.8","2:nogo_b","",""
"null","","html-keyboard-response","260","1509752","0.0-6.0-1.13","","<img src=""img/pink-n.png"">","null","trial","null","","0.2,0.8","2:nogo_b","0",""
"null","","html-keyboard-response","261","1510756","0.0-6.0-2.13","","<div style=""font-size:60px;"">+</div>","null","","","","","","",""
"null","","image-keyboard-response","262","1512265","0.0-6.0-0.14","","img/orange.png","null","trial","null","true","0,1","4:nogo_d","",""
"null","","html-keyboard-response","263","1513290","0.0-6.0-1.14","","<img src=""img/orange-r.png"">","null","trial","null","","0,1","4:nogo_d","1",""
"null","","html-keyboard-response","264","1514299","0.0-6.0-2.14","","<div style=""font-size:60px;"">+</div>","null","","","","","","",""
"457.9999998677522","","image-keyboard-response","265","1514758","0.0-6.0-0.15","","img/blue.png","32","trial","32","true","1,0","3:go_c","",""
"null","","html-keyboard-response","266","1515761","0.0-6.0-1.15","","<img src=""img/blue-r.png"" border=""10"">","null","trial","32","","1,0","3:go_c","1",""
"null","","html-keyboard-response","267","1516762","0.0-6.0-2.15","","<div style=""font-size:60px;"">+</div>","null","","","","","","",""
"587.000000057742","","image-keyboard-response","268","1517350","0.0-6.0-0.16","","img/blue.png","32","trial","32","true","1,0","3:go_c","",""
"null","","html-keyboard-response","269","1518366","0.0-6.0-1.16","","<img src=""img/blue-r.png"" border=""10"">","null","trial","32","","1,0","3:go_c","1",""
"null","","html-keyboard-response","270","1519366","0.0-6.0-2.16","","<div style=""font-size:60px;"">+</div>","null","","","","","","",""
"null","","image-keyboard-response","271","1520868","0.0-6.0-0.17","","img/pink.png","null","trial","null","true","0.2,0.8","2:nogo_b","",""
"null","","html-keyboard-response","272","1521872","0.0-6.0-1.17","","<img src=""img/pink-r.png"">","null","trial","null","","0.2,0.8","2:nogo_b","1",""
"null","","html-keyboard-response","273","1522882","0.0-6.0-2.17","","<div style=""font-size:60px;"">+</div>","null","","","","","","",""
"427.00000014156103","","image-keyboard-response","274","1523310","0.0-6.0-0.18","","img/orange.png","32","trial","null","false","0,1","4:nogo_d","",""
"null","","html-keyboard-response","275","1524312","0.0-6.0-1.18","","<img src=""img/orange-n.png"" border=""10"">","null","trial","null","","0,1","4:nogo_d","0",""
"null","","html-keyboard-response","276","1525314","0.0-6.0-2.18","","<div style=""font-size:60px;"">+</div>","null","","","","","","",""
"435.00000005587935","","image-keyboard-response","277","1525750","0.0-6.0-0.19","","img/green.png","32","trial","32","true","0.8,0.2","1:go_a","",""
"null","","html-keyboard-response","278","1526753","0.0-6.0-1.19","","<img src=""img/green-r.png"" border=""10"">","null","trial","32","","0.8,0.2","1:go_a","1",""
"null","","html-keyboard-response","279","1527767","0.0-6.0-2.19","","<div style=""font-size:60px;"">+</div>","null","","","","","","",""
"718.0000001098961","","image-keyboard-response","280","1528486","0.0-6.0-0.20","","img/orange.png","32","trial","null","false","0,1","4:nogo_d","",""
"null","","html-keyboard-response","281","1529488","0.0-6.0-1.20","","<img src=""img/orange-n.png"" border=""10"">","null","trial","null","","0,1","4:nogo_d","0",""
"null","","html-keyboard-response","282","1530490","0.0-6.0-2.20","","<div style=""font-size:60px;"">+</div>","null","","","","","","",""
"442.9999999701977","","image-keyboard-response","283","1530934","0.0-6.0-0.21","","img/green.png","32","trial","32","true","0.8,0.2","1:go_a","",""
"null","","html-keyboard-response","284","1531937","0.0-6.0-1.21","","<img src=""img/green-r.png"" border=""10"">","null","trial","32","","0.8,0.2","1:go_a","1",""
"null","","html-keyboard-response","285","1532950","0.0-6.0-2.21","","<div style=""font-size:60px;"">+</div>","null","","","","","","",""
"501.99999986216426","","image-keyboard-response","286","1533454","0.0-6.0-0.22","","img/blue.png","32","trial","32","true","1,0","3:go_c","",""
"null","","html-keyboard-response","287","1534463","0.0-6.0-1.22","","<img src=""img/blue-r.png"" border=""10"">","null","trial","32","","1,0","3:go_c","1",""
"null","","html-keyboard-response","288","1535477","0.0-6.0-2.22","","<div style=""font-size:60px;"">+</div>","null","","","","","","",""
"473.9999999292195","","image-keyboard-response","289","1535951","0.0-6.0-0.23","","img/pink.png","32","trial","null","false","0.2,0.8","2:nogo_b","",""
"null","","html-keyboard-response","290","1536954","0.0-6.0-1.23","","<img src=""img/pink-n.png"" border=""10"">","null","trial","null","","0.2,0.8","2:nogo_b","0",""
"null","","html-keyboard-response","291","1537968","0.0-6.0-2.23","","<div style=""font-size:60px;"">+</div>","null","","","","","","",""
"444.99999983236194","","image-keyboard-response","292","1538414","0.0-6.0-0.24","","img/pink.png","32","trial","null","false","0.2,0.8","2:nogo_b","",""
"null","","html-keyboard-response","293","1539416","0.0-6.0-1.24","","<img src=""img/pink-r.png"" border=""10"">","null","trial","null","","0.2,0.8","2:nogo_b","1",""
"null","","html-keyboard-response","294","1540417","0.0-6.0-2.24","","<div style=""font-size:60px;"">+</div>","null","","","","","","",""
"571.9999999273568","","image-keyboard-response","295","1540990","0.0-6.0-0.25","","img/orange.png","32","trial","null","false","0,1","4:nogo_d","",""
"null","","html-keyboard-response","296","1541997","0.0-6.0-1.25","","<img src=""img/orange-n.png"" border=""10"">","null","trial","null","","0,1","4:nogo_d","0",""
"null","","html-keyboard-response","297","1543004","0.0-6.0-2.25","","<div style=""font-size:60px;"">+</div>","null","","","","","","",""
"537.0000000111759","","image-keyboard-response","298","1543542","0.0-6.0-0.26","","img/blue.png","32","trial","32","true","1,0","3:go_c","",""
"null","","html-keyboard-response","299","1544546","0.0-6.0-1.26","","<img src=""img/blue-r.png"" border=""10"">","null","trial","32","","1,0","3:go_c","1",""
"null","","html-keyboard-response","300","1545557","0.0-6.0-2.26","","<div style=""font-size:60px;"">+</div>","null","","","","","","",""
"511.000000173226","","image-keyboard-response","301","1546070","0.0-6.0-0.27","","img/green.png","32","trial","32","true","0.8,0.2","1:go_a","",""
"null","","html-keyboard-response","302","1547114","0.0-6.0-1.27","","<img src=""img/green-n.png"" border=""10"">","null","trial","32","","0.8,0.2","1:go_a","0",""
"null","","html-keyboard-response","303","1548116","0.0-6.0-2.27","","<div style=""font-size:60px;"">+</div>","null","","","","","","",""
"481.9999998435378","","image-keyboard-response","304","1548599","0.0-6.0-0.28","","img/green.png","32","trial","32","true","0.8,0.2","1:go_a","",""
"null","","html-keyboard-response","305","1549602","0.0-6.0-1.28","","<img src=""img/green-r.png"" border=""10"">","null","trial","32","","0.8,0.2","1:go_a","1",""
"null","","html-keyboard-response","306","1550610","0.0-6.0-2.28","","<div style=""font-size:60px;"">+</div>","null","","","","","","",""
"602.9999998863786","","image-keyboard-response","307","1551214","0.0-6.0-0.29","","img/blue.png","32","trial","32","true","1,0","3:go_c","",""
"null","","html-keyboard-response","308","1552220","0.0-6.0-1.29","","<img src=""img/blue-r.png"" border=""10"">","null","trial","32","","1,0","3:go_c","1",""
"null","","html-keyboard-response","309","1553230","0.0-6.0-2.29","","<div style=""font-size:60px;"">+</div>","null","","","","","","",""
"null","","image-keyboard-response","310","1554740","0.0-6.0-0.30","","img/orange.png","null","trial","null","true","0,1","4:nogo_d","",""
"null","","html-keyboard-response","311","1555754","0.0-6.0-1.30","","<img src=""img/orange-r.png"">","null","trial","null","","0,1","4:nogo_d","1",""
"null","","html-keyboard-response","312","1556756","0.0-6.0-2.30","","<div style=""font-size:60px;"">+</div>","null","","","","","","",""
"595.9999999031425","","image-keyboard-response","313","1557352","0.0-6.0-0.31","","img/pink.png","32","trial","null","false","0.2,0.8","2:nogo_b","",""
"null","","html-keyboard-response","314","1558365","0.0-6.0-1.31","","<img src=""img/pink-n.png"" border=""10"">","null","trial","null","","0.2,0.8","2:nogo_b","0",""
"null","","html-keyboard-response","315","1559365","0.0-6.0-2.31","","<div style=""font-size:60px;"">+</div>","null","","","","","","",""
"464.0000001527369","","image-keyboard-response","316","1559830","0.0-6.0-0.32","","img/blue.png","32","trial","32","true","1,0","3:go_c","",""
"null","","html-keyboard-response","317","1560841","0.0-6.0-1.32","","<img src=""img/blue-r.png"" border=""10"">","null","trial","32","","1,0","3:go_c","1",""
"null","","html-keyboard-response","318","1561855","0.0-6.0-2.32","","<div style=""font-size:60px;"">+</div>","null","","","","","","",""
"398.0000000447035","","image-keyboard-response","319","1562254","0.0-6.0-0.33","","img/green.png","32","trial","32","true","0.8,0.2","1:go_a","",""
"null","","html-keyboard-response","320","1563256","0.0-6.0-1.33","","<img src=""img/green-r.png"" border=""10"">","null","trial","32","","0.8,0.2","1:go_a","1",""
"null","","html-keyboard-response","321","1564270","0.0-6.0-2.33","","<div style=""font-size:60px;"">+</div>","null","","","","","","",""
"null","","image-keyboard-response","322","1565776","0.0-6.0-0.34","","img/pink.png","null","trial","null","true","0.2,0.8","2:nogo_b","",""
"null","","html-keyboard-response","323","1566803","0.0-6.0-1.34","","<img src=""img/pink-r.png"">","null","trial","null","","0.2,0.8","2:nogo_b","1",""
"null","","html-keyboard-response","324","1567826","0.0-6.0-2.34","","<div style=""font-size:60px;"">+</div>","null","","","","","","",""
"null","","image-keyboard-response","325","1569333","0.0-6.0-0.35","","img/orange.png","null","trial","null","true","0,1","4:nogo_d","",""
"null","","html-keyboard-response","326","1570335","0.0-6.0-1.35","","<img src=""img/orange-r.png"">","null","trial","null","","0,1","4:nogo_d","1",""
"null","","html-keyboard-response","327","1571337","0.0-6.0-2.35","","<div style=""font-size:60px;"">+</div>","null","","","","","","",""
"548.9999998826534","","image-keyboard-response","328","1571887","0.0-6.0-0.36","","img/orange.png","32","trial","null","false","0,1","4:nogo_d","",""
"null","","html-keyboard-response","329","1572906","0.0-6.0-1.36","","<img src=""img/orange-n.png"" border=""10"">","null","trial","null","","0,1","4:nogo_d","0",""
"null","","html-keyboard-response","330","1573926","0.0-6.0-2.36","","<div style=""font-size:60px;"">+</div>","null","","","","","","",""
"483.9999999385327","","image-keyboard-response","331","1574415","0.0-6.0-0.37","","img/blue.png","32","trial","32","true","1,0","3:go_c","",""
"null","","html-keyboard-response","332","1575418","0.0-6.0-1.37","","<img src=""img/blue-r.png"" border=""10"">","null","trial","32","","1,0","3:go_c","1",""
"null","","html-keyboard-response","333","1576433","0.0-6.0-2.37","","<div style=""font-size:60px;"">+</div>","null","","","","","","",""
"508.00000014714897","","image-keyboard-response","334","1576943","0.0-6.0-0.38","","img/green.png","32","trial","32","true","0.8,0.2","1:go_a","",""
"null","","html-keyboard-response","335","1577947","0.0-6.0-1.38","","<img src=""img/green-r.png"" border=""10"">","null","trial","32","","0.8,0.2","1:go_a","1",""
"null","","html-keyboard-response","336","1578963","0.0-6.0-2.38","","<div style=""font-size:60px;"">+</div>","null","","","","","","",""
"null","","image-keyboard-response","337","1580471","0.0-6.0-0.39","","img/pink.png","null","trial","null","true","0.2,0.8","2:nogo_b","",""
"null","","html-keyboard-response","338","1581477","0.0-6.0-1.39","","<img src=""img/pink-n.png"">","null","trial","null","","0.2,0.8","2:nogo_b","0",""
"null","","html-keyboard-response","339","1582488","0.0-6.0-2.39","","<div style=""font-size:60px;"">+</div>","null","","","","","","",""
"541.9999998994172","","image-keyboard-response","340","1583031","0.0-6.0-0.40","","img/green.png","32","trial","32","true","0.8,0.2","1:go_a","",""
"null","","html-keyboard-response","341","1584047","0.0-6.0-1.40","","<img src=""img/green-r.png"" border=""10"">","null","trial","32","","0.8,0.2","1:go_a","1",""
"null","","html-keyboard-response","342","1585065","0.0-6.0-2.40","","<div style=""font-size:60px;"">+</div>","null","","","","","","",""
"null","","image-keyboard-response","343","1586567","0.0-6.0-0.41","","img/orange.png","null","trial","null","true","0,1","4:nogo_d","",""
"null","","html-keyboard-response","344","1587573","0.0-6.0-1.41","","<img src=""img/orange-r.png"">","null","trial","null","","0,1","4:nogo_d","1",""
"null","","html-keyboard-response","345","1588574","0.0-6.0-2.41","","<div style=""font-size:60px;"">+</div>","null","","","","","","",""
"462.99999998882413","","image-keyboard-response","346","1589039","0.0-6.0-0.42","","img/blue.png","32","trial","32","true","1,0","3:go_c","",""
"null","","html-keyboard-response","347","1590042","0.0-6.0-1.42","","<img src=""img/blue-r.png"" border=""10"">","null","trial","32","","1,0","3:go_c","1",""
"null","","html-keyboard-response","348","1591045","0.0-6.0-2.42","","<div style=""font-size:60px;"">+</div>","null","","","","","","",""
"null","","image-keyboard-response","349","1592547","0.0-6.0-0.43","","img/pink.png","null","trial","null","true","0.2,0.8","2:nogo_b","",""
"null","","html-keyboard-response","350","1593550","0.0-6.0-1.43","","<img src=""img/pink-r.png"">","null","trial","null","","0.2,0.8","2:nogo_b","1",""
"null","","html-keyboard-response","351","1594552","0.0-6.0-2.43","","<div style=""font-size:60px;"">+</div>","null","","","","","","",""
"420.9999998565763","","image-keyboard-response","352","1594974","0.0-6.0-0.44","","img/blue.png","32","trial","32","true","1,0","3:go_c","",""
"null","","html-keyboard-response","353","1595979","0.0-6.0-1.44","","<img src=""img/blue-r.png"" border=""10"">","null","trial","32","","1,0","3:go_c","1",""
"null","","html-keyboard-response","354","1596982","0.0-6.0-2.44","","<div style=""font-size:60px;"">+</div>","null","","","","","","",""
"503.00000002607703","","image-keyboard-response","355","1597502","0.0-6.0-0.45","","img/green.png","32","trial","32","true","0.8,0.2","1:go_a","",""
"null","","html-keyboard-response","356","1598513","0.0-6.0-1.45","","<img src=""img/green-r.png"" border=""10"">","null","trial","32","","0.8,0.2","1:go_a","1",""
"null","","html-keyboard-response","357","1599514","0.0-6.0-2.45","","<div style=""font-size:60px;"">+</div>","null","","","","","","",""
"null","","image-keyboard-response","358","1601015","0.0-6.0-0.46","","img/orange.png","null","trial","null","true","0,1","4:nogo_d","",""
"null","","html-keyboard-response","359","1602031","0.0-6.0-1.46","","<img src=""img/orange-r.png"">","null","trial","null","","0,1","4:nogo_d","1",""
"null","","html-keyboard-response","360","1603032","0.0-6.0-2.46","","<div style=""font-size:60px;"">+</div>","null","","","","","","",""
"null","","image-keyboard-response","361","1604536","0.0-6.0-0.47","","img/pink.png","null","trial","null","true","0.2,0.8","2:nogo_b","",""
"null","","html-keyboard-response","362","1605542","0.0-6.0-1.47","","<img src=""img/pink-r.png"">","null","trial","null","","0.2,0.8","2:nogo_b","1",""
"null","","html-keyboard-response","363","1606554","0.0-6.0-2.47","","<div style=""font-size:60px;"">+</div>","null","","","","","","",""
"476.0000000242144","","image-keyboard-response","364","1607031","0.0-6.0-0.48","","img/green.png","32","trial","32","true","0.8,0.2","1:go_a","",""
"null","","html-keyboard-response","365","1608035","0.0-6.0-1.48","","<img src=""img/green-r.png"" border=""10"">","null","trial","32","","0.8,0.2","1:go_a","1",""
"null","","html-keyboard-response","366","1609051","0.0-6.0-2.48","","<div style=""font-size:60px;"">+</div>","null","","","","","","",""
"441.0000001080334","","image-keyboard-response","367","1609494","0.0-6.0-0.49","","img/blue.png","32","trial","32","true","1,0","3:go_c","",""
"null","","html-keyboard-response","368","1610496","0.0-6.0-1.49","","<img src=""img/blue-r.png"" border=""10"">","null","trial","32","","1,0","3:go_c","1",""
"null","","html-keyboard-response","369","1611497","0.0-6.0-2.49","","<div style=""font-size:60px;"">+</div>","null","","","","","","",""
"873.0000001378357","","image-keyboard-response","370","1612372","0.0-6.0-0.50","","img/orange.png","32","trial","null","false","0,1","4:nogo_d","",""
"null","","html-keyboard-response","371","1613389","0.0-6.0-1.50","","<img src=""img/orange-n.png"" border=""10"">","null","trial","null","","0,1","4:nogo_d","0",""
"null","","html-keyboard-response","372","1614393","0.0-6.0-2.50","","<div style=""font-size:60px;"">+</div>","null","","","","","","",""
"491.99999985285103","","image-keyboard-response","373","1614886","0.0-6.0-0.51","","img/pink.png","32","trial","null","false","0.2,0.8","2:nogo_b","",""
"null","","html-keyboard-response","374","1615892","0.0-6.0-1.51","","<img src=""img/pink-r.png"" border=""10"">","null","trial","null","","0.2,0.8","2:nogo_b","1",""
"null","","html-keyboard-response","375","1616892","0.0-6.0-2.51","","<div style=""font-size:60px;"">+</div>","null","","","","","","",""
"498.00000013783574","","image-keyboard-response","376","1617391","0.0-6.0-0.52","","img/pink.png","32","trial","null","false","0.2,0.8","2:nogo_b","",""
"null","","html-keyboard-response","377","1618393","0.0-6.0-1.52","","<img src=""img/pink-n.png"" border=""10"">","null","trial","null","","0.2,0.8","2:nogo_b","0",""
"null","","html-keyboard-response","378","1619394","0.0-6.0-2.52","","<div style=""font-size:60px;"">+</div>","null","","","","","","",""
"459.00000003166497","","image-keyboard-response","379","1619854","0.0-6.0-0.53","","img/blue.png","32","trial","32","true","1,0","3:go_c","",""
"null","","html-keyboard-response","380","1620859","0.0-6.0-1.53","","<img src=""img/blue-r.png"" border=""10"">","null","trial","32","","1,0","3:go_c","1",""
"null","","html-keyboard-response","381","1621862","0.0-6.0-2.53","","<div style=""font-size:60px;"">+</div>","null","","","","","","",""
"null","","image-keyboard-response","382","1623372","0.0-6.0-0.54","","img/orange.png","null","trial","null","true","0,1","4:nogo_d","",""
"null","","html-keyboard-response","383","1624383","0.0-6.0-1.54","","<img src=""img/orange-r.png"">","null","trial","null","","0,1","4:nogo_d","1",""
"null","","html-keyboard-response","384","1625384","0.0-6.0-2.54","","<div style=""font-size:60px;"">+</div>","null","","","","","","",""
"372.9999999050051","","image-keyboard-response","385","1625758","0.0-6.0-0.55","","img/green.png","32","trial","32","true","0.8,0.2","1:go_a","",""
"null","","html-keyboard-response","386","1626761","0.0-6.0-1.55","","<img src=""img/green-n.png"" border=""10"">","null","trial","32","","0.8,0.2","1:go_a","0",""
"null","","html-keyboard-response","387","1627765","0.0-6.0-2.55","","<div style=""font-size:60px;"">+</div>","null","","","","","","",""
"1024.9999999068677","","image-keyboard-response","388","1628791","0.0-6.0-0.56","","img/pink.png","32","trial","null","false","0.2,0.8","2:nogo_b","",""
"null","","html-keyboard-response","389","1629795","0.0-6.0-1.56","","<img src=""img/pink-n.png"" border=""10"">","null","trial","null","","0.2,0.8","2:nogo_b","0",""
"null","","html-keyboard-response","390","1630797","0.0-6.0-2.56","","<div style=""font-size:60px;"">+</div>","null","","","","","","",""
"390.99999982863665","","image-keyboard-response","391","1631191","0.0-6.0-0.57","","img/blue.png","32","trial","32","true","1,0","3:go_c","",""
"null","","html-keyboard-response","392","1632204","0.0-6.0-1.57","","<img src=""img/blue-r.png"" border=""10"">","null","trial","32","","1,0","3:go_c","1",""
"null","","html-keyboard-response","393","1633208","0.0-6.0-2.57","","<div style=""font-size:60px;"">+</div>","null","","","","","","",""
"500.99999993108213","","image-keyboard-response","394","1633711","0.0-6.0-0.58","","img/green.png","32","trial","32","true","0.8,0.2","1:go_a","",""
"null","","html-keyboard-response","395","1634727","0.0-6.0-1.58","","<img src=""img/green-r.png"" border=""10"">","null","trial","32","","0.8,0.2","1:go_a","1",""
"null","","html-keyboard-response","396","1635766","0.0-6.0-2.58","","<div style=""font-size:60px;"">+</div>","null","","","","","","",""
"null","","image-keyboard-response","397","1637282","0.0-6.0-0.59","","img/orange.png","null","trial","null","true","0,1","4:nogo_d","",""
"null","","html-keyboard-response","398","1638287","0.0-6.0-1.59","","<img src=""img/orange-r.png"">","null","trial","null","","0,1","4:nogo_d","1",""
"null","","html-keyboard-response","399","1639290","0.0-6.0-2.59","","<div style=""font-size:60px;"">+</div>","null","","","","","","",""
"null","","image-keyboard-response","400","1640791","0.0-6.0-0.60","","img/orange.png","null","trial","null","true","0,1","4:nogo_d","",""
"null","","html-keyboard-response","401","1641799","0.0-6.0-1.60","","<img src=""img/orange-r.png"">","null","trial","null","","0,1","4:nogo_d","1",""
"null","","html-keyboard-response","402","1642801","0.0-6.0-2.60","","<div style=""font-size:60px;"">+</div>","null","","","","","","",""
"556.0000000987202","","image-keyboard-response","403","1643358","0.0-6.0-0.61","","img/green.png","32","trial","32","true","0.8,0.2","1:go_a","",""
"null","","html-keyboard-response","404","1644370","0.0-6.0-1.61","","<img src=""img/green-r.png"" border=""10"">","null","trial","32","","0.8,0.2","1:go_a","1",""
"null","","html-keyboard-response","405","1645371","0.0-6.0-2.61","","<div style=""font-size:60px;"">+</div>","null","","","","","","",""
"402.00000000186265","","image-keyboard-response","406","1645774","0.0-6.0-0.62","","img/pink.png","32","trial","null","false","0.2,0.8","2:nogo_b","",""
"null","","html-keyboard-response","407","1646778","0.0-6.0-1.62","","<img src=""img/pink-r.png"" border=""10"">","null","trial","null","","0.2,0.8","2:nogo_b","1",""
"null","","html-keyboard-response","408","1647791","0.0-6.0-2.62","","<div style=""font-size:60px;"">+</div>","null","","","","","","",""
"430.99999986588955","","image-keyboard-response","409","1648224","0.0-6.0-0.63","","img/blue.png","32","trial","32","true","1,0","3:go_c","",""
"null","","html-keyboard-response","410","1649228","0.0-6.0-1.63","","<img src=""img/blue-r.png"" border=""10"">","null","trial","32","","1,0","3:go_c","1",""
"null","","html-keyboard-response","411","1650229","0.0-6.0-2.63","","<div style=""font-size:60px;"">+</div>","null","","","","","","",""
"null","","image-keyboard-response","412","1651730","0.0-6.0-0.64","","img/orange.png","null","trial","null","true","0,1","4:nogo_d","",""
"null","","html-keyboard-response","413","1652733","0.0-6.0-1.64","","<img src=""img/orange-r.png"">","null","trial","null","","0,1","4:nogo_d","1",""
"null","","html-keyboard-response","414","1653748","0.0-6.0-2.64","","<div style=""font-size:60px;"">+</div>","null","","","","","","",""
"563.0000000819564","","image-keyboard-response","415","1654312","0.0-6.0-0.65","","img/blue.png","32","trial","32","true","1,0","3:go_c","",""
"null","","html-keyboard-response","416","1655318","0.0-6.0-1.65","","<img src=""img/blue-r.png"" border=""10"">","null","trial","32","","1,0","3:go_c","1",""
"null","","html-keyboard-response","417","1656318","0.0-6.0-2.65","","<div style=""font-size:60px;"">+</div>","null","","","","","","",""
"null","","image-keyboard-response","418","1657828","0.0-6.0-0.66","","img/pink.png","null","trial","null","true","0.2,0.8","2:nogo_b","",""
"null","","html-keyboard-response","419","1658844","0.0-6.0-1.66","","<img src=""img/pink-n.png"">","null","trial","null","","0.2,0.8","2:nogo_b","0",""
"null","","html-keyboard-response","420","1659855","0.0-6.0-2.66","","<div style=""font-size:60px;"">+</div>","null","","","","","","",""
"712.000000057742","","image-keyboard-response","421","1660568","0.0-6.0-0.67","","img/green.png","32","trial","32","true","0.8,0.2","1:go_a","",""
"null","","html-keyboard-response","422","1661571","0.0-6.0-1.67","","<img src=""img/green-r.png"" border=""10"">","null","trial","32","","0.8,0.2","1:go_a","1",""
"null","","html-keyboard-response","423","1662591","0.0-6.0-2.67","","<div style=""font-size:60px;"">+</div>","null","","","","","","",""
"510.99999994039536","","image-keyboard-response","424","1663103","0.0-6.0-0.68","","img/blue.png","32","trial","32","true","1,0","3:go_c","",""
"null","","html-keyboard-response","425","1664105","0.0-6.0-1.68","","<img src=""img/blue-r.png"" border=""10"">","null","trial","32","","1,0","3:go_c","1",""
"null","","html-keyboard-response","426","1665108","0.0-6.0-2.68","","<div style=""font-size:60px;"">+</div>","null","","","","","","",""
"null","","image-keyboard-response","427","1666617","0.0-6.0-0.69","","img/orange.png","null","trial","null","true","0,1","4:nogo_d","",""
"null","","html-keyboard-response","428","1667619","0.0-6.0-1.69","","<img src=""img/orange-r.png"">","null","trial","null","","0,1","4:nogo_d","1",""
"null","","html-keyboard-response","429","1668626","0.0-6.0-2.69","","<div style=""font-size:60px;"">+</div>","null","","","","","","",""
"412.00000001117587","","image-keyboard-response","430","1669040","0.0-6.0-0.70","","img/green.png","32","trial","32","true","0.8,0.2","1:go_a","",""
"null","","html-keyboard-response","431","1670043","0.0-6.0-1.70","","<img src=""img/green-n.png"" border=""10"">","null","trial","32","","0.8,0.2","1:go_a","0",""
"null","","html-keyboard-response","432","1671043","0.0-6.0-2.70","","<div style=""font-size:60px;"">+</div>","null","","","","","","",""
"930.9999998658895","","image-keyboard-response","433","1671976","0.0-6.0-0.71","","img/pink.png","32","trial","null","false","0.2,0.8","2:nogo_b","",""
"null","","html-keyboard-response","434","1672979","0.0-6.0-1.71","","<img src=""img/pink-n.png"" border=""10"">","null","trial","null","","0.2,0.8","2:nogo_b","0",""
"null","","html-keyboard-response","435","1673984","0.0-6.0-2.71","","<div style=""font-size:60px;"">+</div>","null","","","","","","",""
"831.0000000055879","","image-keyboard-response","436","1674818","0.0-6.0-0.72","","img/pink.png","32","trial","null","false","0.2,0.8","2:nogo_b","",""
"null","","html-keyboard-response","437","1675831","0.0-6.0-1.72","","<img src=""img/pink-n.png"" border=""10"">","null","trial","null","","0.2,0.8","2:nogo_b","0",""
"null","","html-keyboard-response","438","1676833","0.0-6.0-2.72","","<div style=""font-size:60px;"">+</div>","null","","","","","","",""
"438.0000000819564","","image-keyboard-response","439","1677272","0.0-6.0-0.73","","img/green.png","32","trial","32","true","0.8,0.2","1:go_a","",""
"null","","html-keyboard-response","440","1678282","0.0-6.0-1.73","","<img src=""img/green-r.png"" border=""10"">","null","trial","32","","0.8,0.2","1:go_a","1",""
"null","","html-keyboard-response","441","1679286","0.0-6.0-2.73","","<div style=""font-size:60px;"">+</div>","null","","","","","","",""
"null","","image-keyboard-response","442","1680794","0.0-6.0-0.74","","img/orange.png","null","trial","null","true","0,1","4:nogo_d","",""
"null","","html-keyboard-response","443","1681796","0.0-6.0-1.74","","<img src=""img/orange-r.png"">","null","trial","null","","0,1","4:nogo_d","1",""
"null","","html-keyboard-response","444","1682799","0.0-6.0-2.74","","<div style=""font-size:60px;"">+</div>","null","","","","","","",""
"519.0000000875443","","image-keyboard-response","445","1683320","0.0-6.0-0.75","","img/blue.png","32","trial","32","true","1,0","3:go_c","",""
"null","","html-keyboard-response","446","1684335","0.0-6.0-1.75","","<img src=""img/blue-r.png"" border=""10"">","null","trial","32","","1,0","3:go_c","1",""
"null","","html-keyboard-response","447","1685347","0.0-6.0-2.75","","<div style=""font-size:60px;"">+</div>","null","","","","","","",""
"495.9999998100102","","image-keyboard-response","448","1685847","0.0-6.0-0.76","","img/blue.png","32","trial","32","true","1,0","3:go_c","",""
"null","","html-keyboard-response","449","1686864","0.0-6.0-1.76","","<img src=""img/blue-r.png"" border=""10"">","null","trial","32","","1,0","3:go_c","1",""
"null","","html-keyboard-response","450","1687866","0.0-6.0-2.76","","<div style=""font-size:60px;"">+</div>","null","","","","","","",""
"null","","image-keyboard-response","451","1689368","0.0-6.0-0.77","","img/orange.png","null","trial","null","true","0,1","4:nogo_d","",""
"null","","html-keyboard-response","452","1690375","0.0-6.0-1.77","","<img src=""img/orange-r.png"">","null","trial","null","","0,1","4:nogo_d","1",""
"null","","html-keyboard-response","453","1691377","0.0-6.0-2.77","","<div style=""font-size:60px;"">+</div>","null","","","","","","",""
"null","","image-keyboard-response","454","1692878","0.0-6.0-0.78","","img/pink.png","null","trial","null","true","0.2,0.8","2:nogo_b","",""
"null","","html-keyboard-response","455","1693887","0.0-6.0-1.78","","<img src=""img/pink-r.png"">","null","trial","null","","0.2,0.8","2:nogo_b","1",""
"null","","html-keyboard-response","456","1694901","0.0-6.0-2.78","","<div style=""font-size:60px;"">+</div>","null","","","","","","",""
"449.99999995343387","","image-keyboard-response","457","1695352","0.0-6.0-0.79","","img/green.png","32","trial","32","true","0.8,0.2","1:go_a","",""
"null","","html-keyboard-response","458","1696360","0.0-6.0-1.79","","<img src=""img/green-r.png"" border=""10"">","null","trial","32","","0.8,0.2","1:go_a","1",""
"null","","html-keyboard-response","459","1697361","0.0-6.0-2.79","","<div style=""font-size:60px;"">+</div>","null","","","","","","",""
"476.9999999552965","","image-keyboard-response","460","1697839","0.0-6.0-0.80","","img/blue.png","32","trial","32","true","1,0","3:go_c","",""
"null","","html-keyboard-response","461","1698841","0.0-6.0-1.80","","<img src=""img/blue-r.png"" border=""10"">","null","trial","32","","1,0","3:go_c","1",""
"null","","html-keyboard-response","462","1699846","0.0-6.0-2.80","","<div style=""font-size:60px;"">+</div>","null","","","","","","",""
"null","","image-keyboard-response","463","1701348","0.0-6.0-0.81","","img/pink.png","null","trial","null","true","0.2,0.8","2:nogo_b","",""
"null","","html-keyboard-response","464","1702353","0.0-6.0-1.81","","<img src=""img/pink-r.png"">","null","trial","null","","0.2,0.8","2:nogo_b","1",""
"null","","html-keyboard-response","465","1703358","0.0-6.0-2.81","","<div style=""font-size:60px;"">+</div>","null","","","","","","",""
"720.9999999031425","","image-keyboard-response","466","1704080","0.0-6.0-0.82","","img/green.png","32","trial","32","true","0.8,0.2","1:go_a","",""
"null","","html-keyboard-response","467","1705083","0.0-6.0-1.82","","<img src=""img/green-r.png"" border=""10"">","null","trial","32","","0.8,0.2","1:go_a","1",""
"null","","html-keyboard-response","468","1706090","0.0-6.0-2.82","","<div style=""font-size:60px;"">+</div>","null","","","","","","",""
"null","","image-keyboard-response","469","1707592","0.0-6.0-0.83","","img/orange.png","null","trial","null","true","0,1","4:nogo_d","",""
"null","","html-keyboard-response","470","1708597","0.0-6.0-1.83","","<img src=""img/orange-r.png"">","null","trial","null","","0,1","4:nogo_d","1",""
"null","","html-keyboard-response","471","1709597","0.0-6.0-2.83","","<div style=""font-size:60px;"">+</div>","null","","","","","","",""
"872.9999999050051","","image-keyboard-response","472","1710471","0.0-6.0-0.84","","img/pink.png","32","trial","null","false","0.2,0.8","2:nogo_b","",""
"null","","html-keyboard-response","473","1711488","0.0-6.0-1.84","","<img src=""img/pink-n.png"" border=""10"">","null","trial","null","","0.2,0.8","2:nogo_b","0",""
"null","","html-keyboard-response","474","1712511","0.0-6.0-2.84","","<div style=""font-size:60px;"">+</div>","null","","","","","","",""
"588.9999999199063","","image-keyboard-response","475","1713102","0.0-6.0-0.85","","img/green.png","32","trial","32","true","0.8,0.2","1:go_a","",""
"null","","html-keyboard-response","476","1714114","0.0-6.0-1.85","","<img src=""img/green-n.png"" border=""10"">","null","trial","32","","0.8,0.2","1:go_a","0",""
"null","","html-keyboard-response","477","1715115","0.0-6.0-2.85","","<div style=""font-size:60px;"">+</div>","null","","","","","","",""
"890.0000001303852","","image-keyboard-response","478","1716006","0.0-6.0-0.86","","img/orange.png","32","trial","null","false","0,1","4:nogo_d","",""
"null","","html-keyboard-response","479","1717019","0.0-6.0-1.86","","<img src=""img/orange-n.png"" border=""10"">","null","trial","null","","0,1","4:nogo_d","0",""
"null","","html-keyboard-response","480","1718020","0.0-6.0-2.86","","<div style=""font-size:60px;"">+</div>","null","","","","","","",""
"392.99999992363155","","image-keyboard-response","481","1718414","0.0-6.0-0.87","","img/blue.png","32","trial","32","true","1,0","3:go_c","",""
"null","","html-keyboard-response","482","1719417","0.0-6.0-1.87","","<img src=""img/blue-r.png"" border=""10"">","null","trial","32","","1,0","3:go_c","1",""
"null","","html-keyboard-response","483","1720425","0.0-6.0-2.87","","<div style=""font-size:60px;"">+</div>","null","","","","","","",""
"null","","image-keyboard-response","484","1721935","0.0-6.0-0.88","","img/orange.png","null","trial","null","true","0,1","4:nogo_d","",""
"null","","html-keyboard-response","485","1722950","0.0-6.0-1.88","","<img src=""img/orange-r.png"">","null","trial","null","","0,1","4:nogo_d","1",""
"null","","html-keyboard-response","486","1723951","0.0-6.0-2.88","","<div style=""font-size:60px;"">+</div>","null","","","","","","",""
"1102.9999998863786","","image-keyboard-response","487","1725055","0.0-6.0-0.89","","img/pink.png","32","trial","null","false","0.2,0.8","2:nogo_b","",""
"null","","html-keyboard-response","488","1726091","0.0-6.0-1.89","","<img src=""img/pink-n.png"" border=""10"">","null","trial","null","","0.2,0.8","2:nogo_b","0",""
"null","","html-keyboard-response","489","1727096","0.0-6.0-2.89","","<div style=""font-size:60px;"">+</div>","null","","","","","","",""
"405.0000000279397","","image-keyboard-response","490","1727502","0.0-6.0-0.90","","img/green.png","32","trial","32","true","0.8,0.2","1:go_a","",""
"null","","html-keyboard-response","491","1728517","0.0-6.0-1.90","","<img src=""img/green-r.png"" border=""10"">","null","trial","32","","0.8,0.2","1:go_a","1",""
"null","","html-keyboard-response","492","1729523","0.0-6.0-2.90","","<div style=""font-size:60px;"">+</div>","null","","","","","","",""
"418.00000006332994","","image-keyboard-response","493","1729942","0.0-6.0-0.91","","img/blue.png","32","trial","32","true","1,0","3:go_c","",""
"null","","html-keyboard-response","494","1730954","0.0-6.0-1.91","","<img src=""img/blue-r.png"" border=""10"">","null","trial","32","","1,0","3:go_c","1",""
"null","","html-keyboard-response","495","1731956","0.0-6.0-2.91","","<div style=""font-size:60px;"">+</div>","null","","","","","","",""
"402.00000000186265","","image-keyboard-response","496","1732360","0.0-6.0-0.92","","img/green.png","32","trial","32","true","0.8,0.2","1:go_a","",""
"null","","html-keyboard-response","497","1733373","0.0-6.0-1.92","","<img src=""img/green-n.png"" border=""10"">","null","trial","32","","0.8,0.2","1:go_a","0",""
"null","","html-keyboard-response","498","1734376","0.0-6.0-2.92","","<div style=""font-size:60px;"">+</div>","null","","","","","","",""
"419.9999999254942","","image-keyboard-response","499","1734799","0.0-6.0-0.93","","img/blue.png","32","trial","32","true","1,0","3:go_c","",""
"null","","html-keyboard-response","500","1735802","0.0-6.0-1.93","","<img src=""img/blue-r.png"" border=""10"">","null","trial","32","","1,0","3:go_c","1",""
"null","","html-keyboard-response","501","1736804","0.0-6.0-2.93","","<div style=""font-size:60px;"">+</div>","null","","","","","","",""
"null","","image-keyboard-response","502","1738306","0.0-6.0-0.94","","img/orange.png","null","trial","null","true","0,1","4:nogo_d","",""
"null","","html-keyboard-response","503","1739308","0.0-6.0-1.94","","<img src=""img/orange-r.png"">","null","trial","null","","0,1","4:nogo_d","1",""
"null","","html-keyboard-response","504","1740310","0.0-6.0-2.94","","<div style=""font-size:60px;"">+</div>","null","","","","","","",""
"null","","image-keyboard-response","505","1741819","0.0-6.0-0.95","","img/pink.png","null","trial","null","true","0.2,0.8","2:nogo_b","",""
"null","","html-keyboard-response","506","1742821","0.0-6.0-1.95","","<img src=""img/pink-r.png"">","null","trial","null","","0.2,0.8","2:nogo_b","1",""
"null","","html-keyboard-response","507","1743824","0.0-6.0-2.95","","<div style=""font-size:60px;"">+</div>","null","","","","","","",""
"null","","image-keyboard-response","508","1745326","0.0-6.0-0.96","","img/pink.png","null","trial","null","true","0.2,0.8","2:nogo_b","",""
"null","","html-keyboard-response","509","1746340","0.0-6.0-1.96","","<img src=""img/pink-n.png"">","null","trial","null","","0.2,0.8","2:nogo_b","0",""
"null","","html-keyboard-response","510","1747340","0.0-6.0-2.96","","<div style=""font-size:60px;"">+</div>","null","","","","","","",""
"489.9999999906868","","image-keyboard-response","511","1747832","0.0-6.0-0.97","","img/green.png","32","trial","32","true","0.8,0.2","1:go_a","",""
"null","","html-keyboard-response","512","1748834","0.0-6.0-1.97","","<img src=""img/green-r.png"" border=""10"">","null","trial","32","","0.8,0.2","1:go_a","1",""
"null","","html-keyboard-response","513","1749851","0.0-6.0-2.97","","<div style=""font-size:60px;"">+</div>","null","","","","","","",""
"1130.000000121072","","image-keyboard-response","514","1750982","0.0-6.0-0.98","","img/orange.png","32","trial","null","false","0,1","4:nogo_d","",""
"null","","html-keyboard-response","515","1751990","0.0-6.0-1.98","","<img src=""img/orange-n.png"" border=""10"">","null","trial","null","","0,1","4:nogo_d","0",""
"null","","html-keyboard-response","516","1752992","0.0-6.0-2.98","","<div style=""font-size:60px;"">+</div>","null","","","","","","",""
"358.0000000074506","","image-keyboard-response","517","1753351","0.0-6.0-0.99","","img/blue.png","32","trial","32","true","1,0","3:go_c","",""
"null","","html-keyboard-response","518","1754362","0.0-6.0-1.99","","<img src=""img/blue-r.png"" border=""10"">","null","trial","32","","1,0","3:go_c","1",""
"null","","html-keyboard-response","519","1755365","0.0-6.0-2.99","","<div style=""font-size:60px;"">+</div>","null","","","","","","",""
"null","","image-keyboard-response","520","1756895","0.0-6.0-0.100","","img/orange.png","null","trial","null","true","0,1","4:nogo_d","",""
"null","","html-keyboard-response","521","1757905","0.0-6.0-1.100","","<img src=""img/orange-r.png"">","null","trial","null","","0,1","4:nogo_d","1",""
"null","","html-keyboard-response","522","1758907","0.0-6.0-2.100","","<div style=""font-size:60px;"">+</div>","null","","","","","","",""
"null","","image-keyboard-response","523","1760421","0.0-6.0-0.101","","img/pink.png","null","trial","null","true","0.2,0.8","2:nogo_b","",""
"null","","html-keyboard-response","524","1761466","0.0-6.0-1.101","","<img src=""img/pink-r.png"">","null","trial","null","","0.2,0.8","2:nogo_b","1",""
"null","","html-keyboard-response","525","1762481","0.0-6.0-2.101","","<div style=""font-size:60px;"">+</div>","null","","","","","","",""
"435.9999999869615","","image-keyboard-response","526","1762919","0.0-6.0-0.102","","img/green.png","32","trial","32","true","0.8,0.2","1:go_a","",""
"null","","html-keyboard-response","527","1763933","0.0-6.0-1.102","","<img src=""img/green-n.png"" border=""10"">","null","trial","32","","0.8,0.2","1:go_a","0",""
"null","","html-keyboard-response","528","1764954","0.0-6.0-2.102","","<div style=""font-size:60px;"">+</div>","null","","","","","","",""
"498.9999998360872","","image-keyboard-response","529","1765455","0.0-6.0-0.103","","img/blue.png","32","trial","32","true","1,0","3:go_c","",""
"null","","html-keyboard-response","530","1766470","0.0-6.0-1.103","","<img src=""img/blue-r.png"" border=""10"">","null","trial","32","","1,0","3:go_c","1",""
"null","","html-keyboard-response","531","1767486","0.0-6.0-2.103","","<div style=""font-size:60px;"">+</div>","null","","","","","","",""
"502.0000000949949","","image-keyboard-response","532","1767990","0.0-6.0-0.104","","img/blue.png","32","trial","32","true","1,0","3:go_c","",""
"null","","html-keyboard-response","533","1768994","0.0-6.0-1.104","","<img src=""img/blue-r.png"" border=""10"">","null","trial","32","","1,0","3:go_c","1",""
"null","","html-keyboard-response","534","1770002","0.0-6.0-2.104","","<div style=""font-size:60px;"">+</div>","null","","","","","","",""
"468.99999980814755","","image-keyboard-response","535","1770473","0.0-6.0-0.105","","img/green.png","32","trial","32","true","0.8,0.2","1:go_a","",""
"null","","html-keyboard-response","536","1771475","0.0-6.0-1.105","","<img src=""img/green-r.png"" border=""10"">","null","trial","32","","0.8,0.2","1:go_a","1",""
"null","","html-keyboard-response","537","1772488","0.0-6.0-2.105","","<div style=""font-size:60px;"">+</div>","null","","","","","","",""
"null","","image-keyboard-response","538","1773991","0.0-6.0-0.106","","img/pink.png","null","trial","null","true","0.2,0.8","2:nogo_b","",""
"null","","html-keyboard-response","539","1774993","0.0-6.0-1.106","","<img src=""img/pink-r.png"">","null","trial","null","","0.2,0.8","2:nogo_b","1",""
"null","","html-keyboard-response","540","1775995","0.0-6.0-2.106","","<div style=""font-size:60px;"">+</div>","null","","","","","","",""
"null","","image-keyboard-response","541","1777497","0.0-6.0-0.107","","img/orange.png","null","trial","null","true","0,1","4:nogo_d","",""
"null","","html-keyboard-response","542","1778514","0.0-6.0-1.107","","<img src=""img/orange-r.png"">","null","trial","null","","0,1","4:nogo_d","1",""
"null","","html-keyboard-response","543","1779535","0.0-6.0-2.107","","<div style=""font-size:60px;"">+</div>","null","","","","","","",""
"513.0000000353903","","image-keyboard-response","544","1780050","0.0-6.0-0.108","","img/green.png","32","trial","32","true","0.8,0.2","1:go_a","",""
"null","","html-keyboard-response","545","1781062","0.0-6.0-1.108","","<img src=""img/green-r.png"" border=""10"">","null","trial","32","","0.8,0.2","1:go_a","1",""
"null","","html-keyboard-response","546","1782062","0.0-6.0-2.108","","<div style=""font-size:60px;"">+</div>","null","","","","","","",""
"320.0000000651926","","image-keyboard-response","547","1782383","0.0-6.0-0.109","","img/blue.png","32","trial","32","true","1,0","3:go_c","",""
"null","","html-keyboard-response","548","1783387","0.0-6.0-1.109","","<img src=""img/blue-r.png"" border=""10"">","null","trial","32","","1,0","3:go_c","1",""
"null","","html-keyboard-response","549","1784388","0.0-6.0-2.109","","<div style=""font-size:60px;"">+</div>","null","","","","","","",""
"null","","image-keyboard-response","550","1785891","0.0-6.0-0.110","","img/orange.png","null","trial","null","true","0,1","4:nogo_d","",""
"null","","html-keyboard-response","551","1786894","0.0-6.0-1.110","","<img src=""img/orange-r.png"">","null","trial","null","","0,1","4:nogo_d","1",""
"null","","html-keyboard-response","552","1787896","0.0-6.0-2.110","","<div style=""font-size:60px;"">+</div>","null","","","","","","",""
"null","","image-keyboard-response","553","1789407","0.0-6.0-0.111","","img/pink.png","null","trial","null","true","0.2,0.8","2:nogo_b","",""
"null","","html-keyboard-response","554","1790436","0.0-6.0-1.111","","<img src=""img/pink-r.png"">","null","trial","null","","0.2,0.8","2:nogo_b","1",""
"null","","html-keyboard-response","555","1791438","0.0-6.0-2.111","","<div style=""font-size:60px;"">+</div>","null","","","","","","",""
"433.9999998919666","","image-keyboard-response","556","1791873","0.0-6.0-0.112","","img/green.png","32","trial","32","true","0.8,0.2","1:go_a","",""
"null","","html-keyboard-response","557","1792879","0.0-6.0-1.112","","<img src=""img/green-r.png"" border=""10"">","null","trial","32","","0.8,0.2","1:go_a","1",""
"null","","html-keyboard-response","558","1793881","0.0-6.0-2.112","","<div style=""font-size:60px;"">+</div>","null","","","","","","",""
"349.9999998603016","","image-keyboard-response","559","1794232","0.0-6.0-0.113","","img/blue.png","32","trial","32","true","1,0","3:go_c","",""
"null","","html-keyboard-response","560","1795236","0.0-6.0-1.113","","<img src=""img/blue-r.png"" border=""10"">","null","trial","32","","1,0","3:go_c","1",""
"null","","html-keyboard-response","561","1796236","0.0-6.0-2.113","","<div style=""font-size:60px;"">+</div>","null","","","","","","",""
"null","","image-keyboard-response","562","1797738","0.0-6.0-0.114","","img/pink.png","null","trial","null","true","0.2,0.8","2:nogo_b","",""
"null","","html-keyboard-response","563","1798742","0.0-6.0-1.114","","<img src=""img/pink-r.png"">","null","trial","null","","0.2,0.8","2:nogo_b","1",""
"null","","html-keyboard-response","564","1799755","0.0-6.0-2.114","","<div style=""font-size:60px;"">+</div>","null","","","","","","",""
"null","","image-keyboard-response","565","1801257","0.0-6.0-0.115","","img/orange.png","null","trial","null","true","0,1","4:nogo_d","",""
"null","","html-keyboard-response","566","1802280","0.0-6.0-1.115","","<img src=""img/orange-r.png"">","null","trial","null","","0,1","4:nogo_d","1",""
"null","","html-keyboard-response","567","1803281","0.0-6.0-2.115","","<div style=""font-size:60px;"">+</div>","null","","","","","","",""
"null","","image-keyboard-response","568","1804785","0.0-6.0-0.116","","img/pink.png","null","trial","null","true","0.2,0.8","2:nogo_b","",""
"null","","html-keyboard-response","569","1805795","0.0-6.0-1.116","","<img src=""img/pink-r.png"">","null","trial","null","","0.2,0.8","2:nogo_b","1",""
"null","","html-keyboard-response","570","1806813","0.0-6.0-2.116","","<div style=""font-size:60px;"">+</div>","null","","","","","","",""
"584.9999999627471","","image-keyboard-response","571","1807400","0.0-6.0-0.117","","img/green.png","32","trial","32","true","0.8,0.2","1:go_a","",""
"null","","html-keyboard-response","572","1808413","0.0-6.0-1.117","","<img src=""img/green-r.png"" border=""10"">","null","trial","32","","0.8,0.2","1:go_a","1",""
"null","","html-keyboard-response","573","1809417","0.0-6.0-2.117","","<div style=""font-size:60px;"">+</div>","null","","","","","","",""
"null","","image-keyboard-response","574","1810937","0.0-6.0-0.118","","img/orange.png","null","trial","null","true","0,1","4:nogo_d","",""
"null","","html-keyboard-response","575","1811939","0.0-6.0-1.118","","<img src=""img/orange-r.png"">","null","trial","null","","0,1","4:nogo_d","1",""
"null","","html-keyboard-response","576","1812954","0.0-6.0-2.118","","<div style=""font-size:60px;"">+</div>","null","","","","","","",""
"340.00000008381903","","image-keyboard-response","577","1813296","0.0-6.0-0.119","","img/blue.png","32","trial","32","true","1,0","3:go_c","",""
"null","","html-keyboard-response","578","1814319","0.0-6.0-1.119","","<img src=""img/blue-r.png"" border=""10"">","null","trial","32","","1,0","3:go_c","1",""
"null","","html-keyboard-response","579","1815320","0.0-6.0-2.119","","<div style=""font-size:60px;"">+</div>","null","","","","","","",""
"2157.999999821186","","instructions","580","1817479","0.0-7.0","[{""page_index"":0,""viewing_time"":2157.999999821186}]","","","","","","","","",""
"878.000000026077","","image-keyboard-response","581","1818360","0.0-8.0-0.0","","img/red.png","32","trial","32","true","0.8,0.2","3:go_c","",""
"null","","html-keyboard-response","582","1819369","0.0-8.0-1.0","","<img src=""img/red-r.png"" border=""10"">","null","trial","32","","0.8,0.2","3:go_c","1",""
"null","","html-keyboard-response","583","1820388","0.0-8.0-2.0","","<div style=""font-size:60px;"">+</div>","null","","","","","","",""
"449.00000002235174","","image-keyboard-response","584","1820840","0.0-8.0-0.1","","img/yellow.png","32","trial","32","true","0.8,0.2","1:go_a","",""
"null","","html-keyboard-response","585","1821842","0.0-8.0-1.1","","<img src=""img/yellow-n.png"" border=""10"">","null","trial","32","","0.8,0.2","1:go_a","0",""
"null","","html-keyboard-response","586","1822859","0.0-8.0-2.1","","<div style=""font-size:60px;"">+</div>","null","","","","","","",""
"475.00000009313226","","image-keyboard-response","587","1823335","0.0-8.0-0.2","","img/purple.png","32","trial","null","false","0.2,0.8","2:nogo_b","",""
"null","","html-keyboard-response","588","1824338","0.0-8.0-1.2","","<img src=""img/purple-n.png"" border=""10"">","null","trial","null","","0.2,0.8","2:nogo_b","0",""
"null","","html-keyboard-response","589","1825341","0.0-8.0-2.2","","<div style=""font-size:60px;"">+</div>","null","","","","","","",""
"584.9999999627471","","image-keyboard-response","590","1825927","0.0-8.0-0.3","","img/orange.png","32","trial","null","false","0.2,0.8","4:nogo_d","",""
"null","","html-keyboard-response","591","1826943","0.0-8.0-1.3","","<img src=""img/orange-n.png"" border=""10"">","null","trial","null","","0.2,0.8","4:nogo_d","0",""
"null","","html-keyboard-response","592","1827943","0.0-8.0-2.3","","<div style=""font-size:60px;"">+</div>","null","","","","","","",""
"726.9999999552965","","image-keyboard-response","593","1828671","0.0-8.0-0.4","","img/purple.png","32","trial","null","false","0.2,0.8","2:nogo_b","",""
"null","","html-keyboard-response","594","1829678","0.0-8.0-1.4","","<img src=""img/purple-n.png"" border=""10"">","null","trial","null","","0.2,0.8","2:nogo_b","0",""
"null","","html-keyboard-response","595","1830691","0.0-8.0-2.4","","<div style=""font-size:60px;"">+</div>","null","","","","","","",""
"651.0000000707805","","image-keyboard-response","596","1831343","0.0-8.0-0.5","","img/yellow.png","32","trial","32","true","0.8,0.2","1:go_a","",""
"null","","html-keyboard-response","597","1832346","0.0-8.0-1.5","","<img src=""img/yellow-r.png"" border=""10"">","null","trial","32","","0.8,0.2","1:go_a","1",""
"null","","html-keyboard-response","598","1833347","0.0-8.0-2.5","","<div style=""font-size:60px;"">+</div>","null","","","","","","",""
"593.9999998081475","","image-keyboard-response","599","1833942","0.0-8.0-0.6","","img/orange.png","32","trial","null","false","0.2,0.8","4:nogo_d","",""
"null","","html-keyboard-response","600","1834952","0.0-8.0-1.6","","<img src=""img/orange-n.png"" border=""10"">","null","trial","null","","0.2,0.8","4:nogo_d","0",""
"null","","html-keyboard-response","601","1835967","0.0-8.0-2.6","","<div style=""font-size:60px;"">+</div>","null","","","","","","",""
"398.0000000447035","","image-keyboard-response","602","1836367","0.0-8.0-0.7","","img/red.png","32","trial","32","true","0.8,0.2","3:go_c","",""
"null","","html-keyboard-response","603","1837368","0.0-8.0-1.7","","<img src=""img/red-r.png"" border=""10"">","null","trial","32","","0.8,0.2","3:go_c","1",""
"null","","html-keyboard-response","604","1838396","0.0-8.0-2.7","","<div style=""font-size:60px;"">+</div>","null","","","","","","",""
"475.00000009313226","","image-keyboard-response","605","1838873","0.0-8.0-0.8","","img/yellow.png","32","trial","32","true","0.8,0.2","1:go_a","",""
"null","","html-keyboard-response","606","1839882","0.0-8.0-1.8","","<img src=""img/yellow-r.png"" border=""10"">","null","trial","32","","0.8,0.2","1:go_a","1",""
"null","","html-keyboard-response","607","1840903","0.0-8.0-2.8","","<div style=""font-size:60px;"">+</div>","null","","","","","","",""
"576.0000001173466","","image-keyboard-response","608","1841480","0.0-8.0-0.9","","img/red.png","32","trial","32","true","0.8,0.2","3:go_c","",""
"null","","html-keyboard-response","609","1842482","0.0-8.0-1.9","","<img src=""img/red-r.png"" border=""10"">","null","trial","32","","0.8,0.2","3:go_c","1",""
"null","","html-keyboard-response","610","1843496","0.0-8.0-2.9","","<div style=""font-size:60px;"">+</div>","null","","","","","","",""
"null","","image-keyboard-response","611","1845005","0.0-8.0-0.10","","img/purple.png","null","trial","null","true","0.2,0.8","2:nogo_b","",""
"null","","html-keyboard-response","612","1846017","0.0-8.0-1.10","","<img src=""img/purple-r.png"">","null","trial","null","","0.2,0.8","2:nogo_b","1",""
"null","","html-keyboard-response","613","1847018","0.0-8.0-2.10","","<div style=""font-size:60px;"">+</div>","null","","","","","","",""
"972.0000000670552","","image-keyboard-response","614","1847991","0.0-8.0-0.11","","img/orange.png","32","trial","null","false","0.2,0.8","4:nogo_d","",""
"null","","html-keyboard-response","615","1848993","0.0-8.0-1.11","","<img src=""img/orange-r.png"" border=""10"">","null","trial","null","","0.2,0.8","4:nogo_d","1",""
"null","","html-keyboard-response","616","1849994","0.0-8.0-2.11","","<div style=""font-size:60px;"">+</div>","null","","","","","","",""
"515.0000001303852","","image-keyboard-response","617","1850512","0.0-8.0-0.12","","img/orange.png","32","trial","null","false","0.2,0.8","4:nogo_d","",""
"null","","html-keyboard-response","618","1851516","0.0-8.0-1.12","","<img src=""img/orange-r.png"" border=""10"">","null","trial","null","","0.2,0.8","4:nogo_d","1",""
"null","","html-keyboard-response","619","1852549","0.0-8.0-2.12","","<div style=""font-size:60px;"">+</div>","null","","","","","","",""
"873.0000001378357","","image-keyboard-response","620","1853424","0.0-8.0-0.13","","img/purple.png","32","trial","null","false","0.2,0.8","2:nogo_b","",""
"null","","html-keyboard-response","621","1854425","0.0-8.0-1.13","","<img src=""img/purple-r.png"" border=""10"">","null","trial","null","","0.2,0.8","2:nogo_b","1",""
"null","","html-keyboard-response","622","1855426","0.0-8.0-2.13","","<div style=""font-size:60px;"">+</div>","null","","","","","","",""
"540.0000000372529","","image-keyboard-response","623","1855967","0.0-8.0-0.14","","img/red.png","32","trial","32","true","0.8,0.2","3:go_c","",""
"null","","html-keyboard-response","624","1856969","0.0-8.0-1.14","","<img src=""img/red-r.png"" border=""10"">","null","trial","32","","0.8,0.2","3:go_c","1",""
"null","","html-keyboard-response","625","1857983","0.0-8.0-2.14","","<div style=""font-size:60px;"">+</div>","null","","","","","","",""
"408.0000000540167","","image-keyboard-response","626","1858393","0.0-8.0-0.15","","img/yellow.png","32","trial","32","true","0.8,0.2","1:go_a","",""
"null","","html-keyboard-response","627","1859396","0.0-8.0-1.15","","<img src=""img/yellow-n.png"" border=""10"">","null","trial","32","","0.8,0.2","1:go_a","0",""
"null","","html-keyboard-response","628","1860398","0.0-8.0-2.15","","<div style=""font-size:60px;"">+</div>","null","","","","","","",""
"440.9999998752028","","image-keyboard-response","629","1860841","0.0-8.0-0.16","","img/orange.png","32","trial","null","false","0.2,0.8","4:nogo_d","",""
"null","","html-keyboard-response","630","1861845","0.0-8.0-1.16","","<img src=""img/orange-n.png"" border=""10"">","null","trial","null","","0.2,0.8","4:nogo_d","0",""
"null","","html-keyboard-response","631","1862856","0.0-8.0-2.16","","<div style=""font-size:60px;"">+</div>","null","","","","","","",""
"445.9999999962747","","image-keyboard-response","632","1863303","0.0-8.0-0.17","","img/red.png","32","trial","32","true","0.8,0.2","3:go_c","",""
"null","","html-keyboard-response","633","1864306","0.0-8.0-1.17","","<img src=""img/red-r.png"" border=""10"">","null","trial","32","","0.8,0.2","3:go_c","1",""
"null","","html-keyboard-response","634","1865309","0.0-8.0-2.17","","<div style=""font-size:60px;"">+</div>","null","","","","","","",""
"401.0000000707805","","image-keyboard-response","635","1865711","0.0-8.0-0.18","","img/purple.png","32","trial","null","false","0.2,0.8","2:nogo_b","",""
"null","","html-keyboard-response","636","1866725","0.0-8.0-1.18","","<img src=""img/purple-n.png"" border=""10"">","null","trial","null","","0.2,0.8","2:nogo_b","0",""
"null","","html-keyboard-response","637","1867731","0.0-8.0-2.18","","<div style=""font-size:60px;"">+</div>","null","","","","","","",""
"691.0000001080334","","image-keyboard-response","638","1868423","0.0-8.0-0.19","","img/yellow.png","32","trial","32","true","0.8,0.2","1:go_a","",""
"null","","html-keyboard-response","639","1869432","0.0-8.0-1.19","","<img src=""img/yellow-r.png"" border=""10"">","null","trial","32","","0.8,0.2","1:go_a","1",""
"null","","html-keyboard-response","640","1870435","0.0-8.0-2.19","","<div style=""font-size:60px;"">+</div>","null","","","","","","",""
"547.0000000204891","","image-keyboard-response","641","1870984","0.0-8.0-0.20","","img/red.png","32","trial","32","true","0.8,0.2","3:go_c","",""
"null","","html-keyboard-response","642","1871999","0.0-8.0-1.20","","<img src=""img/red-r.png"" border=""10"">","null","trial","32","","0.8,0.2","3:go_c","1",""
"null","","html-keyboard-response","643","1873011","0.0-8.0-2.20","","<div style=""font-size:60px;"">+</div>","null","","","","","","",""
"451.00000011734664","","image-keyboard-response","644","1873463","0.0-8.0-0.21","","img/orange.png","32","trial","null","false","0.2,0.8","4:nogo_d","",""
"null","","html-keyboard-response","645","1874477","0.0-8.0-1.21","","<img src=""img/orange-r.png"" border=""10"">","null","trial","null","","0.2,0.8","4:nogo_d","1",""
"null","","html-keyboard-response","646","1875479","0.0-8.0-2.21","","<div style=""font-size:60px;"">+</div>","null","","","","","","",""
"null","","image-keyboard-response","647","1876982","0.0-8.0-0.22","","img/purple.png","null","trial","null","true","0.2,0.8","2:nogo_b","",""
"null","","html-keyboard-response","648","1877983","0.0-8.0-1.22","","<img src=""img/purple-n.png"">","null","trial","null","","0.2,0.8","2:nogo_b","0",""
"null","","html-keyboard-response","649","1878984","0.0-8.0-2.22","","<div style=""font-size:60px;"">+</div>","null","","","","","","",""
"590.000000083819","","image-keyboard-response","650","1879575","0.0-8.0-0.23","","img/yellow.png","32","trial","32","true","0.8,0.2","1:go_a","",""
"null","","html-keyboard-response","651","1880584","0.0-8.0-1.23","","<img src=""img/yellow-r.png"" border=""10"">","null","trial","32","","0.8,0.2","1:go_a","1",""
"null","","html-keyboard-response","652","1881607","0.0-8.0-2.23","","<div style=""font-size:60px;"">+</div>","null","","","","","","",""
"487.9999998956919","","image-keyboard-response","653","1882096","0.0-8.0-0.24","","img/orange.png","32","trial","null","false","0.2,0.8","4:nogo_d","",""
"null","","html-keyboard-response","654","1883102","0.0-8.0-1.24","","<img src=""img/orange-n.png"" border=""10"">","null","trial","null","","0.2,0.8","4:nogo_d","0",""
"null","","html-keyboard-response","655","1884104","0.0-8.0-2.24","","<div style=""font-size:60px;"">+</div>","null","","","","","","",""
"477.99999988637865","","image-keyboard-response","656","1884583","0.0-8.0-0.25","","img/yellow.png","32","trial","32","true","0.8,0.2","1:go_a","",""
"null","","html-keyboard-response","657","1885587","0.0-8.0-1.25","","<img src=""img/yellow-r.png"" border=""10"">","null","trial","32","","0.8,0.2","1:go_a","1",""
"null","","html-keyboard-response","658","1886611","0.0-8.0-2.25","","<div style=""font-size:60px;"">+</div>","null","","","","","","",""
"395.00000001862645","","image-keyboard-response","659","1887007","0.0-8.0-0.26","","img/red.png","32","trial","32","true","0.8,0.2","3:go_c","",""
"null","","html-keyboard-response","660","1888011","0.0-8.0-1.26","","<img src=""img/red-r.png"" border=""10"">","null","trial","32","","0.8,0.2","3:go_c","1",""
"null","","html-keyboard-response","661","1889018","0.0-8.0-2.26","","<div style=""font-size:60px;"">+</div>","null","","","","","","",""
"null","","image-keyboard-response","662","1890519","0.0-8.0-0.27","","img/purple.png","null","trial","null","true","0.2,0.8","2:nogo_b","",""
"null","","html-keyboard-response","663","1891530","0.0-8.0-1.27","","<img src=""img/purple-r.png"">","null","trial","null","","0.2,0.8","2:nogo_b","1",""
"null","","html-keyboard-response","664","1892532","0.0-8.0-2.27","","<div style=""font-size:60px;"">+</div>","null","","","","","","",""
"584.9999999627471","","image-keyboard-response","665","1893118","0.0-8.0-0.28","","img/red.png","32","trial","32","true","0.8,0.2","3:go_c","",""
"null","","html-keyboard-response","666","1894122","0.0-8.0-1.28","","<img src=""img/red-r.png"" border=""10"">","null","trial","32","","0.8,0.2","3:go_c","1",""
"null","","html-keyboard-response","667","1895133","0.0-8.0-2.28","","<div style=""font-size:60px;"">+</div>","null","","","","","","",""
"503.00000002607703","","image-keyboard-response","668","1895638","0.0-8.0-0.29","","img/yellow.png","32","trial","32","true","0.8,0.2","1:go_a","",""
"null","","html-keyboard-response","669","1896652","0.0-8.0-1.29","","<img src=""img/yellow-r.png"" border=""10"">","null","trial","32","","0.8,0.2","1:go_a","1",""
"null","","html-keyboard-response","670","1897655","0.0-8.0-2.29","","<div style=""font-size:60px;"">+</div>","null","","","","","","",""
"492.0000000856817","","image-keyboard-response","671","1898150","0.0-8.0-0.30","","img/orange.png","32","trial","null","false","0.2,0.8","4:nogo_d","",""
"null","","html-keyboard-response","672","1899153","0.0-8.0-1.30","","<img src=""img/orange-r.png"" border=""10"">","null","trial","null","","0.2,0.8","4:nogo_d","1",""
