"rt","url","trial_type","trial_index","time_elapsed","internal_node_id","view_history","stimulus","key_press","test_part","correct_response","correct","use_rew","which_stim","reward","responses"
"16129.800000011921","consent.html","external-html","0","16215","0.0-0.0","","","","","","","","","",""
"98701.89999997616","","instructions","1","114918","0.0-1.0","[{""page_index"":0,""viewing_time"":7036.899999976158},{""page_index"":1,""viewing_time"":23103.90000000596},{""page_index"":2,""viewing_time"":6344.5999999940395},{""page_index"":3,""viewing_time"":24088},{""page_index"":4,""viewing_time"":14424},{""page_index"":5,""viewing_time"":8183.800000011921},{""page_index"":6,""viewing_time"":15519.90000000596}]","","","","","","","","",""
"null","","image-keyboard-response","2","116431","0.0-2.0-0.0","","img/test3.PNG","null","practice","null","true","","","",""
"null","","html-keyboard-response","3","117439","0.0-2.0-1.0","","<img src=""img/test3-reward.PNG"">","null","","","","","","",""
"null","","html-keyboard-response","4","118450","0.0-2.0-2.0","","<div style=""font-size:60px;"">+</div>","null","","","","","","",""
"501.40000000596046","","image-keyboard-response","5","118952","0.0-2.0-0.1","","img/test1.PNG","32","practice","32","true","","","",""
"null","","html-keyboard-response","6","119967","0.0-2.0-1.1","","<img src=""img/test1-reward.PNG"" border=""10px; grey"">","null","","","","","","",""
"null","","html-keyboard-response","7","120982","0.0-2.0-2.1","","<div style=""font-size:60px;"">+</div>","null","","","","","","",""
"null","","image-keyboard-response","8","122497","0.0-2.0-0.2","","img/test2.PNG","null","practice","null","true","","","",""
"null","","html-keyboard-response","9","123500","0.0-2.0-1.2","","<img src=""img/test2-reward.PNG"">","null","","","","","","",""
"null","","html-keyboard-response","10","124502","0.0-2.0-2.2","","<div style=""font-size:60px;"">+</div>","null","","","","","","",""
"null","","image-keyboard-response","11","126012","0.0-2.0-0.3","","img/test3.PNG","null","practice","null","true","","","",""
"null","","html-keyboard-response","12","127019","0.0-2.0-1.3","","<img src=""img/test3-reward.PNG"">","null","","","","","","",""
"null","","html-keyboard-response","13","128025","0.0-2.0-2.3","","<div style=""font-size:60px;"">+</div>","null","","","","","","",""
"362.7999999821186","","image-keyboard-response","14","128390","0.0-2.0-0.4","","img/test1.PNG","32","practice","32","true","","","",""
"null","","html-keyboard-response","15","129405","0.0-2.0-1.4","","<img src=""img/test1-reward.PNG"" border=""10px; grey"">","null","","","","","","",""
"null","","html-keyboard-response","16","130408","0.0-2.0-2.4","","<div style=""font-size:60px;"">+</div>","null","","","","","","",""
"null","","image-keyboard-response","17","131916","0.0-2.0-0.5","","img/test2.PNG","null","practice","null","true","","","",""
"null","","html-keyboard-response","18","132918","0.0-2.0-1.5","","<img src=""img/test2-reward.PNG"">","null","","","","","","",""
"null","","html-keyboard-response","19","133922","0.0-2.0-2.5","","<div style=""font-size:60px;"">+</div>","null","","","","","","",""
"497.59999999403954","","image-keyboard-response","20","134421","0.0-2.0-0.6","","img/test1.PNG","32","practice","32","true","","","",""
"null","","html-keyboard-response","21","135426","0.0-2.0-1.6","","<img src=""img/test1-reward.PNG"" border=""10px; grey"">","null","","","","","","",""
"null","","html-keyboard-response","22","136440","0.0-2.0-2.6","","<div style=""font-size:60px;"">+</div>","null","","","","","","",""
"null","","image-keyboard-response","23","137954","0.0-2.0-0.7","","img/test2.PNG","null","practice","null","true","","","",""
"null","","html-keyboard-response","24","138964","0.0-2.0-1.7","","<img src=""img/test2-reward.PNG"">","null","","","","","","",""
"null","","html-keyboard-response","25","139973","0.0-2.0-2.7","","<div style=""font-size:60px;"">+</div>","null","","","","","","",""
"null","","image-keyboard-response","26","141481","0.0-2.0-0.8","","img/test3.PNG","null","practice","null","true","","","",""
"null","","html-keyboard-response","27","142490","0.0-2.0-1.8","","<img src=""img/test3-reward.PNG"">","null","","","","","","",""
"null","","html-keyboard-response","28","143492","0.0-2.0-2.8","","<div style=""font-size:60px;"">+</div>","null","","","","","","",""
"null","","image-keyboard-response","29","145000","0.0-2.0-0.9","","img/test3.PNG","null","practice","null","true","","","",""
"null","","html-keyboard-response","30","146001","0.0-2.0-1.9","","<img src=""img/test3-reward.PNG"">","null","","","","","","",""
"null","","html-keyboard-response","31","147004","0.0-2.0-2.9","","<div style=""font-size:60px;"">+</div>","null","","","","","","",""
"null","","image-keyboard-response","32","148512","0.0-2.0-0.10","","img/test2.PNG","null","practice","null","true","","","",""
"null","","html-keyboard-response","33","149517","0.0-2.0-1.10","","<img src=""img/test2-reward.PNG"">","null","","","","","","",""
"null","","html-keyboard-response","34","150529","0.0-2.0-2.10","","<div style=""font-size:60px;"">+</div>","null","","","","","","",""
"362.7999999821186","","image-keyboard-response","35","150893","0.0-2.0-0.11","","img/test1.PNG","32","practice","32","true","","","",""
"null","","html-keyboard-response","36","151896","0.0-2.0-1.11","","<img src=""img/test1-reward.PNG"" border=""10px; grey"">","null","","","","","","",""
"null","","html-keyboard-response","37","152903","0.0-2.0-2.11","","<div style=""font-size:60px;"">+</div>","null","","","","","","",""
"17157.90000000596","","instructions","38","170062","0.0-3.0","[{""page_index"":0,""viewing_time"":17157.69999998808}]","","","","","","","","",""
"541.7999999821186","","image-keyboard-response","39","170605","0.0-4.0-0.0","","img/purple.png","32","trial","null","false","0.2,0.8","2:nogo_b","",""
"null","","html-keyboard-response","40","171608","0.0-4.0-1.0","","<img src=""img/purple-n.png"" border=""10"">","null","trial","null","","0.2,0.8","2:nogo_b","0",""
"null","","html-keyboard-response","41","172610","0.0-4.0-2.0","","<div style=""font-size:60px;"">+</div>","null","","","","","","",""
"577.4000000059605","","image-keyboard-response","42","173189","0.0-4.0-0.1","","img/blue.png","32","trial","32","true","0.8,0.2","1:go_a","",""
"null","","html-keyboard-response","43","174212","0.0-4.0-1.1","","<img src=""img/blue-r.png"" border=""10"">","null","trial","32","","0.8,0.2","1:go_a","1",""
"null","","html-keyboard-response","44","175227","0.0-4.0-2.1","","<div style=""font-size:60px;"">+</div>","null","","","","","","",""
"520.4000000059605","","image-keyboard-response","45","175748","0.0-4.0-0.2","","img/purple.png","32","trial","null","false","0.2,0.8","2:nogo_b","",""
"null","","html-keyboard-response","46","176765","0.0-4.0-1.2","","<img src=""img/purple-n.png"" border=""10"">","null","trial","null","","0.2,0.8","2:nogo_b","0",""
"null","","html-keyboard-response","47","177772","0.0-4.0-2.2","","<div style=""font-size:60px;"">+</div>","null","","","","","","",""
"661.5","","image-keyboard-response","48","178435","0.0-4.0-0.3","","img/blue.png","32","trial","32","true","0.8,0.2","1:go_a","",""
"null","","html-keyboard-response","49","179449","0.0-4.0-1.3","","<img src=""img/blue-r.png"" border=""10"">","null","trial","32","","0.8,0.2","1:go_a","1",""
"null","","html-keyboard-response","50","180456","0.0-4.0-2.3","","<div style=""font-size:60px;"">+</div>","null","","","","","","",""
"460.2999999821186","","image-keyboard-response","51","180918","0.0-4.0-0.4","","img/blue.png","32","trial","32","true","0.8,0.2","1:go_a","",""
"null","","html-keyboard-response","52","181928","0.0-4.0-1.4","","<img src=""img/blue-n.png"" border=""10"">","null","trial","32","","0.8,0.2","1:go_a","0",""
"null","","html-keyboard-response","53","182931","0.0-4.0-2.4","","<div style=""font-size:60px;"">+</div>","null","","","","","","",""
"null","","image-keyboard-response","54","184432","0.0-4.0-0.5","","img/purple.png","null","trial","null","true","0.2,0.8","2:nogo_b","",""
"null","","html-keyboard-response","55","185446","0.0-4.0-1.5","","<img src=""img/purple-r.png"">","null","trial","null","","0.2,0.8","2:nogo_b","1",""
"null","","html-keyboard-response","56","186453","0.0-4.0-2.5","","<div style=""font-size:60px;"">+</div>","null","","","","","","",""
"null","","image-keyboard-response","57","187961","0.0-4.0-0.6","","img/purple.png","null","trial","null","true","0.2,0.8","2:nogo_b","",""
"null","","html-keyboard-response","58","188970","0.0-4.0-1.6","","<img src=""img/purple-r.png"">","null","trial","null","","0.2,0.8","2:nogo_b","1",""
"null","","html-keyboard-response","59","189986","0.0-4.0-2.6","","<div style=""font-size:60px;"">+</div>","null","","","","","","",""
"601.5999999940395","","image-keyboard-response","60","190589","0.0-4.0-0.7","","img/blue.png","32","trial","32","true","0.8,0.2","1:go_a","",""
"null","","html-keyboard-response","61","191605","0.0-4.0-1.7","","<img src=""img/blue-r.png"" border=""10"">","null","trial","32","","0.8,0.2","1:go_a","1",""
"null","","html-keyboard-response","62","192612","0.0-4.0-2.7","","<div style=""font-size:60px;"">+</div>","null","","","","","","",""
"600.5","","image-keyboard-response","63","193214","0.0-4.0-0.8","","img/blue.png","32","trial","32","true","0.8,0.2","1:go_a","",""
"null","","html-keyboard-response","64","194225","0.0-4.0-1.8","","<img src=""img/blue-r.png"" border=""10"">","null","trial","32","","0.8,0.2","1:go_a","1",""
"null","","html-keyboard-response","65","195234","0.0-4.0-2.8","","<div style=""font-size:60px;"">+</div>","null","","","","","","",""
"706.3999999761581","","image-keyboard-response","66","195941","0.0-4.0-0.9","","img/purple.png","32","trial","null","false","0.2,0.8","2:nogo_b","",""
"null","","html-keyboard-response","67","196943","0.0-4.0-1.9","","<img src=""img/purple-r.png"" border=""10"">","null","trial","null","","0.2,0.8","2:nogo_b","1",""
"null","","html-keyboard-response","68","197946","0.0-4.0-2.9","","<div style=""font-size:60px;"">+</div>","null","","","","","","",""
"465.90000000596046","","image-keyboard-response","69","198413","0.0-4.0-0.10","","img/purple.png","32","trial","null","false","0.2,0.8","2:nogo_b","",""
"null","","html-keyboard-response","70","199427","0.0-4.0-1.10","","<img src=""img/purple-n.png"" border=""10"">","null","trial","null","","0.2,0.8","2:nogo_b","0",""
"null","","html-keyboard-response","71","200433","0.0-4.0-2.10","","<div style=""font-size:60px;"">+</div>","null","","","","","","",""
"506.7999999821186","","image-keyboard-response","72","200941","0.0-4.0-0.11","","img/blue.png","32","trial","32","true","0.8,0.2","1:go_a","",""
"null","","html-keyboard-response","73","201943","0.0-4.0-1.11","","<img src=""img/blue-r.png"" border=""10"">","null","trial","32","","0.8,0.2","1:go_a","1",""
"null","","html-keyboard-response","74","202946","0.0-4.0-2.11","","<div style=""font-size:60px;"">+</div>","null","","","","","","",""
"537.3000000119209","","image-keyboard-response","75","203484","0.0-4.0-0.12","","img/purple.png","32","trial","null","false","0.2,0.8","2:nogo_b","",""
"null","","html-keyboard-response","76","204488","0.0-4.0-1.12","","<img src=""img/purple-r.png"" border=""10"">","null","trial","null","","0.2,0.8","2:nogo_b","1",""
"null","","html-keyboard-response","77","205497","0.0-4.0-2.12","","<div style=""font-size:60px;"">+</div>","null","","","","","","",""
"529.9000000059605","","image-keyboard-response","78","206029","0.0-4.0-0.13","","img/blue.png","32","trial","32","true","0.8,0.2","1:go_a","",""
"null","","html-keyboard-response","79","207045","0.0-4.0-1.13","","<img src=""img/blue-n.png"" border=""10"">","null","trial","32","","0.8,0.2","1:go_a","0",""
"null","","html-keyboard-response","80","208050","0.0-4.0-2.13","","<div style=""font-size:60px;"">+</div>","null","","","","","","",""
"601.6999999880791","","image-keyboard-response","81","208653","0.0-4.0-0.14","","img/blue.png","32","trial","32","true","0.8,0.2","1:go_a","",""
"null","","html-keyboard-response","82","209656","0.0-4.0-1.14","","<img src=""img/blue-r.png"" border=""10"">","null","trial","32","","0.8,0.2","1:go_a","1",""
"null","","html-keyboard-response","83","210662","0.0-4.0-2.14","","<div style=""font-size:60px;"">+</div>","null","","","","","","",""
"636.6999999880791","","image-keyboard-response","84","211300","0.0-4.0-0.15","","img/purple.png","32","trial","null","false","0.2,0.8","2:nogo_b","",""
"null","","html-keyboard-response","85","212317","0.0-4.0-1.15","","<img src=""img/purple-n.png"" border=""10"">","null","trial","null","","0.2,0.8","2:nogo_b","0",""
"null","","html-keyboard-response","86","213325","0.0-4.0-2.15","","<div style=""font-size:60px;"">+</div>","null","","","","","","",""
"479.2000000178814","","image-keyboard-response","87","213806","0.0-4.0-0.16","","img/blue.png","32","trial","32","true","0.8,0.2","1:go_a","",""
"null","","html-keyboard-response","88","214821","0.0-4.0-1.16","","<img src=""img/blue-r.png"" border=""10"">","null","trial","32","","0.8,0.2","1:go_a","1",""
"null","","html-keyboard-response","89","215826","0.0-4.0-2.16","","<div style=""font-size:60px;"">+</div>","null","","","","","","",""
"641.8999999761581","","image-keyboard-response","90","216468","0.0-4.0-0.17","","img/purple.png","32","trial","null","false","0.2,0.8","2:nogo_b","",""
"null","","html-keyboard-response","91","217485","0.0-4.0-1.17","","<img src=""img/purple-n.png"" border=""10"">","null","trial","null","","0.2,0.8","2:nogo_b","0",""
"null","","html-keyboard-response","92","218501","0.0-4.0-2.17","","<div style=""font-size:60px;"">+</div>","null","","","","","","",""
"447.40000000596046","","image-keyboard-response","93","218949","0.0-4.0-0.18","","img/blue.png","32","trial","32","true","0.8,0.2","1:go_a","",""
"null","","html-keyboard-response","94","219957","0.0-4.0-1.18","","<img src=""img/blue-n.png"" border=""10"">","null","trial","32","","0.8,0.2","1:go_a","0",""
"null","","html-keyboard-response","95","220968","0.0-4.0-2.18","","<div style=""font-size:60px;"">+</div>","null","","","","","","",""
"null","","image-keyboard-response","96","222471","0.0-4.0-0.19","","img/purple.png","null","trial","null","true","0.2,0.8","2:nogo_b","",""
"null","","html-keyboard-response","97","223475","0.0-4.0-1.19","","<img src=""img/purple-r.png"">","null","trial","null","","0.2,0.8","2:nogo_b","1",""
"null","","html-keyboard-response","98","224489","0.0-4.0-2.19","","<div style=""font-size:60px;"">+</div>","null","","","","","","",""
"null","","image-keyboard-response","99","226004","0.0-4.0-0.20","","img/purple.png","null","trial","null","true","0.2,0.8","2:nogo_b","",""
"null","","html-keyboard-response","100","227012","0.0-4.0-1.20","","<img src=""img/purple-r.png"">","null","trial","null","","0.2,0.8","2:nogo_b","1",""
"null","","html-keyboard-response","101","228018","0.0-4.0-2.20","","<div style=""font-size:60px;"">+</div>","null","","","","","","",""
"506.5","","image-keyboard-response","102","228525","0.0-4.0-0.21","","img/blue.png","32","trial","32","true","0.8,0.2","1:go_a","",""
"null","","html-keyboard-response","103","229537","0.0-4.0-1.21","","<img src=""img/blue-r.png"" border=""10"">","null","trial","32","","0.8,0.2","1:go_a","1",""
"null","","html-keyboard-response","104","230543","0.0-4.0-2.21","","<div style=""font-size:60px;"">+</div>","null","","","","","","",""
"492.90000000596046","","image-keyboard-response","105","231037","0.0-4.0-0.22","","img/blue.png","32","trial","32","true","0.8,0.2","1:go_a","",""
"null","","html-keyboard-response","106","232039","0.0-4.0-1.22","","<img src=""img/blue-r.png"" border=""10"">","null","trial","32","","0.8,0.2","1:go_a","1",""
"null","","html-keyboard-response","107","233045","0.0-4.0-2.22","","<div style=""font-size:60px;"">+</div>","null","","","","","","",""
"598.6000000238419","","image-keyboard-response","108","233645","0.0-4.0-0.23","","img/purple.png","32","trial","null","false","0.2,0.8","2:nogo_b","",""
"null","","html-keyboard-response","109","234661","0.0-4.0-1.23","","<img src=""img/purple-n.png"" border=""10"">","null","trial","null","","0.2,0.8","2:nogo_b","0",""
"null","","html-keyboard-response","110","235665","0.0-4.0-2.23","","<div style=""font-size:60px;"">+</div>","null","","","","","","",""
"618.4000000059605","","image-keyboard-response","111","236284","0.0-4.0-0.24","","img/blue.png","32","trial","32","true","0.8,0.2","1:go_a","",""
"null","","html-keyboard-response","112","237295","0.0-4.0-1.24","","<img src=""img/blue-r.png"" border=""10"">","null","trial","32","","0.8,0.2","1:go_a","1",""
"null","","html-keyboard-response","113","238312","0.0-4.0-2.24","","<div style=""font-size:60px;"">+</div>","null","","","","","","",""
"708.8999999761581","","image-keyboard-response","114","239021","0.0-4.0-0.25","","img/purple.png","32","trial","null","false","0.2,0.8","2:nogo_b","",""
"null","","html-keyboard-response","115","240031","0.0-4.0-1.25","","<img src=""img/purple-n.png"" border=""10"">","null","trial","null","","0.2,0.8","2:nogo_b","0",""
"null","","html-keyboard-response","116","241048","0.0-4.0-2.25","","<div style=""font-size:60px;"">+</div>","null","","","","","","",""
"644.4000000059605","","image-keyboard-response","117","241693","0.0-4.0-0.26","","img/blue.png","32","trial","32","true","0.8,0.2","1:go_a","",""
"null","","html-keyboard-response","118","242710","0.0-4.0-1.26","","<img src=""img/blue-r.png"" border=""10"">","null","trial","32","","0.8,0.2","1:go_a","1",""
"null","","html-keyboard-response","119","243723","0.0-4.0-2.26","","<div style=""font-size:60px;"">+</div>","null","","","","","","",""
"953.0999999940395","","image-keyboard-response","120","244677","0.0-4.0-0.27","","img/purple.png","32","trial","null","false","0.2,0.8","2:nogo_b","",""
"null","","html-keyboard-response","121","245693","0.0-4.0-1.27","","<img src=""img/purple-r.png"" border=""10"">","null","trial","null","","0.2,0.8","2:nogo_b","1",""
"null","","html-keyboard-response","122","246707","0.0-4.0-2.27","","<div style=""font-size:60px;"">+</div>","null","","","","","","",""
"632.5","","image-keyboard-response","123","247341","0.0-4.0-0.28","","img/blue.png","32","trial","32","true","0.8,0.2","1:go_a","",""
"null","","html-keyboard-response","124","248354","0.0-4.0-1.28","","<img src=""img/blue-r.png"" border=""10"">","null","trial","32","","0.8,0.2","1:go_a","1",""
"null","","html-keyboard-response","125","249363","0.0-4.0-2.28","","<div style=""font-size:60px;"">+</div>","null","","","","","","",""
"null","","image-keyboard-response","126","250875","0.0-4.0-0.29","","img/purple.png","null","trial","null","true","0.2,0.8","2:nogo_b","",""
"null","","html-keyboard-response","127","251886","0.0-4.0-1.29","","<img src=""img/purple-r.png"">","null","trial","null","","0.2,0.8","2:nogo_b","1",""
"null","","html-keyboard-response","128","252888","0.0-4.0-2.29","","<div style=""font-size:60px;"">+</div>","null","","","","","","",""
"460.2999999821186","","image-keyboard-response","129","253349","0.0-4.0-0.30","","img/purple.png","32","trial","null","false","0.2,0.8","2:nogo_b","",""
"null","","html-keyboard-response","130","254365","0.0-4.0-1.30","","<img src=""img/purple-r.png"" border=""10"">","null","trial","null","","0.2,0.8","2:nogo_b","1",""
"null","","html-keyboard-response","131","255372","0.0-4.0-2.30","","<div style=""font-size:60px;"">+</div>","null","","","","","","",""
"599.4000000059605","","image-keyboard-response","132","255973","0.0-4.0-0.31","","img/blue.png","32","trial","32","true","0.8,0.2","1:go_a","",""
"null","","html-keyboard-response","133","256986","0.0-4.0-1.31","","<img src=""img/blue-r.png"" border=""10"">","null","trial","32","","0.8,0.2","1:go_a","1",""
"null","","html-keyboard-response","134","257989","0.0-4.0-2.31","","<div style=""font-size:60px;"">+</div>","null","","","","","","",""
"null","","image-keyboard-response","135","259502","0.0-4.0-0.32","","img/purple.png","null","trial","null","true","0.2,0.8","2:nogo_b","",""
"null","","html-keyboard-response","136","260508","0.0-4.0-1.32","","<img src=""img/purple-n.png"">","null","trial","null","","0.2,0.8","2:nogo_b","0",""
"null","","html-keyboard-response","137","261511","0.0-4.0-2.32","","<div style=""font-size:60px;"">+</div>","null","","","","","","",""
"1157.2999999821186","","image-keyboard-response","138","262669","0.0-4.0-0.33","","img/blue.png","32","trial","32","true","0.8,0.2","1:go_a","",""
"null","","html-keyboard-response","139","263678","0.0-4.0-1.33","","<img src=""img/blue-r.png"" border=""10"">","null","trial","32","","0.8,0.2","1:go_a","1",""
"null","","html-keyboard-response","140","264681","0.0-4.0-2.33","","<div style=""font-size:60px;"">+</div>","null","","","","","","",""
"443.59999999403954","","image-keyboard-response","141","265125","0.0-4.0-0.34","","img/blue.png","32","trial","32","true","0.8,0.2","1:go_a","",""
"null","","html-keyboard-response","142","266131","0.0-4.0-1.34","","<img src=""img/blue-r.png"" border=""10"">","null","trial","32","","0.8,0.2","1:go_a","1",""
"null","","html-keyboard-response","143","267139","0.0-4.0-2.34","","<div style=""font-size:60px;"">+</div>","null","","","","","","",""
"null","","image-keyboard-response","144","268649","0.0-4.0-0.35","","img/purple.png","null","trial","null","true","0.2,0.8","2:nogo_b","",""
"null","","html-keyboard-response","145","269663","0.0-4.0-1.35","","<img src=""img/purple-r.png"">","null","trial","null","","0.2,0.8","2:nogo_b","1",""
"null","","html-keyboard-response","146","270677","0.0-4.0-2.35","","<div style=""font-size:60px;"">+</div>","null","","","","","","",""
"711.7000000178814","","image-keyboard-response","147","271389","0.0-4.0-0.36","","img/purple.png","32","trial","null","false","0.2,0.8","2:nogo_b","",""
"null","","html-keyboard-response","148","272405","0.0-4.0-1.36","","<img src=""img/purple-n.png"" border=""10"">","null","trial","null","","0.2,0.8","2:nogo_b","0",""
"null","","html-keyboard-response","149","273410","0.0-4.0-2.36","","<div style=""font-size:60px;"">+</div>","null","","","","","","",""
"433.59999999403954","","image-keyboard-response","150","273845","0.0-4.0-0.37","","img/blue.png","32","trial","32","true","0.8,0.2","1:go_a","",""
"null","","html-keyboard-response","151","274852","0.0-4.0-1.37","","<img src=""img/blue-r.png"" border=""10"">","null","trial","32","","0.8,0.2","1:go_a","1",""
"null","","html-keyboard-response","152","275853","0.0-4.0-2.37","","<div style=""font-size:60px;"">+</div>","null","","","","","","",""
"null","","image-keyboard-response","153","277366","0.0-4.0-0.38","","img/purple.png","null","trial","null","true","0.2,0.8","2:nogo_b","",""
"null","","html-keyboard-response","154","278381","0.0-4.0-1.38","","<img src=""img/purple-n.png"">","null","trial","null","","0.2,0.8","2:nogo_b","0",""
"null","","html-keyboard-response","155","279395","0.0-4.0-2.38","","<div style=""font-size:60px;"">+</div>","null","","","","","","",""
"545.7999999821186","","image-keyboard-response","156","279941","0.0-4.0-0.39","","img/blue.png","32","trial","32","true","0.8,0.2","1:go_a","",""
"null","","html-keyboard-response","157","280957","0.0-4.0-1.39","","<img src=""img/blue-r.png"" border=""10"">","null","trial","32","","0.8,0.2","1:go_a","1",""
"null","","html-keyboard-response","158","281967","0.0-4.0-2.39","","<div style=""font-size:60px;"">+</div>","null","","","","","","",""
"909.5","","image-keyboard-response","159","282877","0.0-4.0-0.40","","img/purple.png","32","trial","null","false","0.2,0.8","2:nogo_b","",""
"null","","html-keyboard-response","160","283886","0.0-4.0-1.40","","<img src=""img/purple-n.png"" border=""10"">","null","trial","null","","0.2,0.8","2:nogo_b","0",""
"null","","html-keyboard-response","161","284898","0.0-4.0-2.40","","<div style=""font-size:60px;"">+</div>","null","","","","","","",""
"557.7999999821186","","image-keyboard-response","162","285456","0.0-4.0-0.41","","img/blue.png","32","trial","32","true","0.8,0.2","1:go_a","",""
"null","","html-keyboard-response","163","286459","0.0-4.0-1.41","","<img src=""img/blue-r.png"" border=""10"">","null","trial","32","","0.8,0.2","1:go_a","1",""
"null","","html-keyboard-response","164","287469","0.0-4.0-2.41","","<div style=""font-size:60px;"">+</div>","null","","","","","","",""
"631.0999999940395","","image-keyboard-response","165","288101","0.0-4.0-0.42","","img/blue.png","32","trial","32","true","0.8,0.2","1:go_a","",""
"null","","html-keyboard-response","166","289108","0.0-4.0-1.42","","<img src=""img/blue-n.png"" border=""10"">","null","trial","32","","0.8,0.2","1:go_a","0",""
"null","","html-keyboard-response","167","290124","0.0-4.0-2.42","","<div style=""font-size:60px;"">+</div>","null","","","","","","",""
"null","","image-keyboard-response","168","291627","0.0-4.0-0.43","","img/purple.png","null","trial","null","true","0.2,0.8","2:nogo_b","",""
"null","","html-keyboard-response","169","292639","0.0-4.0-1.43","","<img src=""img/purple-r.png"">","null","trial","null","","0.2,0.8","2:nogo_b","1",""
"null","","html-keyboard-response","170","293644","0.0-4.0-2.43","","<div style=""font-size:60px;"">+</div>","null","","","","","","",""
"552.6999999880791","","image-keyboard-response","171","294197","0.0-4.0-0.44","","img/blue.png","32","trial","32","true","0.8,0.2","1:go_a","",""
"null","","html-keyboard-response","172","295207","0.0-4.0-1.44","","<img src=""img/blue-n.png"" border=""10"">","null","trial","32","","0.8,0.2","1:go_a","0",""
"null","","html-keyboard-response","173","296219","0.0-4.0-2.44","","<div style=""font-size:60px;"">+</div>","null","","","","","","",""
"680.2999999821186","","image-keyboard-response","174","296901","0.0-4.0-0.45","","img/purple.png","32","trial","null","false","0.2,0.8","2:nogo_b","",""
"null","","html-keyboard-response","175","297907","0.0-4.0-1.45","","<img src=""img/purple-n.png"" border=""10"">","null","trial","null","","0.2,0.8","2:nogo_b","0",""
"null","","html-keyboard-response","176","298913","0.0-4.0-2.45","","<div style=""font-size:60px;"">+</div>","null","","","","","","",""
"1275.2999999821186","","image-keyboard-response","177","300189","0.0-4.0-0.46","","img/purple.png","32","trial","null","false","0.2,0.8","2:nogo_b","",""
"null","","html-keyboard-response","178","301194","0.0-4.0-1.46","","<img src=""img/purple-n.png"" border=""10"">","null","trial","null","","0.2,0.8","2:nogo_b","0",""
"null","","html-keyboard-response","179","302198","0.0-4.0-2.46","","<div style=""font-size:60px;"">+</div>","null","","","","","","",""
"397.60000002384186","","image-keyboard-response","180","302597","0.0-4.0-0.47","","img/blue.png","32","trial","32","true","0.8,0.2","1:go_a","",""
"null","","html-keyboard-response","181","303606","0.0-4.0-1.47","","<img src=""img/blue-n.png"" border=""10"">","null","trial","32","","0.8,0.2","1:go_a","0",""
"null","","html-keyboard-response","182","304615","0.0-4.0-2.47","","<div style=""font-size:60px;"">+</div>","null","","","","","","",""
"1125.5","","image-keyboard-response","183","305741","0.0-4.0-0.48","","img/purple.png","32","trial","null","false","0.2,0.8","2:nogo_b","",""
"null","","html-keyboard-response","184","306743","0.0-4.0-1.48","","<img src=""img/purple-r.png"" border=""10"">","null","trial","null","","0.2,0.8","2:nogo_b","1",""
"null","","html-keyboard-response","185","307756","0.0-4.0-2.48","","<div style=""font-size:60px;"">+</div>","null","","","","","","",""
"360","","image-keyboard-response","186","308117","0.0-4.0-0.49","","img/blue.png","32","trial","32","true","0.8,0.2","1:go_a","",""
"null","","html-keyboard-response","187","309130","0.0-4.0-1.49","","<img src=""img/blue-r.png"" border=""10"">","null","trial","32","","0.8,0.2","1:go_a","1",""
"null","","html-keyboard-response","188","310142","0.0-4.0-2.49","","<div style=""font-size:60px;"">+</div>","null","","","","","","",""
"781.8000000119209","","image-keyboard-response","189","310925","0.0-4.0-0.50","","img/purple.png","32","trial","null","false","0.2,0.8","2:nogo_b","",""
"null","","html-keyboard-response","190","311928","0.0-4.0-1.50","","<img src=""img/purple-n.png"" border=""10"">","null","trial","null","","0.2,0.8","2:nogo_b","0",""
"null","","html-keyboard-response","191","312933","0.0-4.0-2.50","","<div style=""font-size:60px;"">+</div>","null","","","","","","",""
"590","","image-keyboard-response","192","313524","0.0-4.0-0.51","","img/blue.png","32","trial","32","true","0.8,0.2","1:go_a","",""
"null","","html-keyboard-response","193","314526","0.0-4.0-1.51","","<img src=""img/blue-r.png"" border=""10"">","null","trial","32","","0.8,0.2","1:go_a","1",""
"null","","html-keyboard-response","194","315539","0.0-4.0-2.51","","<div style=""font-size:60px;"">+</div>","null","","","","","","",""
"null","","image-keyboard-response","195","317054","0.0-4.0-0.52","","img/purple.png","null","trial","null","true","0.2,0.8","2:nogo_b","",""
"null","","html-keyboard-response","196","318059","0.0-4.0-1.52","","<img src=""img/purple-r.png"">","null","trial","null","","0.2,0.8","2:nogo_b","1",""
"null","","html-keyboard-response","197","319065","0.0-4.0-2.52","","<div style=""font-size:60px;"">+</div>","null","","","","","","",""
"451.59999999403954","","image-keyboard-response","198","319517","0.0-4.0-0.53","","img/blue.png","32","trial","32","true","0.8,0.2","1:go_a","",""
"null","","html-keyboard-response","199","320521","0.0-4.0-1.53","","<img src=""img/blue-r.png"" border=""10"">","null","trial","32","","0.8,0.2","1:go_a","1",""
"null","","html-keyboard-response","200","321527","0.0-4.0-2.53","","<div style=""font-size:60px;"">+</div>","null","","","","","","",""
"596.8000000119209","","image-keyboard-response","201","322125","0.0-4.0-0.54","","img/blue.png","32","trial","32","true","0.8,0.2","1:go_a","",""
"null","","html-keyboard-response","202","323135","0.0-4.0-1.54","","<img src=""img/blue-r.png"" border=""10"">","null","trial","32","","0.8,0.2","1:go_a","1",""
"null","","html-keyboard-response","203","324140","0.0-4.0-2.54","","<div style=""font-size:60px;"">+</div>","null","","","","","","",""
"null","","image-keyboard-response","204","325642","0.0-4.0-0.55","","img/purple.png","null","trial","null","true","0.2,0.8","2:nogo_b","",""
"null","","html-keyboard-response","205","326654","0.0-4.0-1.55","","<img src=""img/purple-r.png"">","null","trial","null","","0.2,0.8","2:nogo_b","1",""
"null","","html-keyboard-response","206","327660","0.0-4.0-2.55","","<div style=""font-size:60px;"">+</div>","null","","","","","","",""
"488.40000000596046","","image-keyboard-response","207","328149","0.0-4.0-0.56","","img/blue.png","32","trial","32","true","0.8,0.2","1:go_a","",""
"null","","html-keyboard-response","208","329157","0.0-4.0-1.56","","<img src=""img/blue-n.png"" border=""10"">","null","trial","32","","0.8,0.2","1:go_a","0",""
"null","","html-keyboard-response","209","330162","0.0-4.0-2.56","","<div style=""font-size:60px;"">+</div>","null","","","","","","",""
"null","","image-keyboard-response","210","331664","0.0-4.0-0.57","","img/purple.png","null","trial","null","true","0.2,0.8","2:nogo_b","",""
"null","","html-keyboard-response","211","332679","0.0-4.0-1.57","","<img src=""img/purple-n.png"">","null","trial","null","","0.2,0.8","2:nogo_b","0",""
"null","","html-keyboard-response","212","333694","0.0-4.0-2.57","","<div style=""font-size:60px;"">+</div>","null","","","","","","",""
"1302.199999988079","","image-keyboard-response","213","334997","0.0-4.0-0.58","","img/purple.png","32","trial","null","false","0.2,0.8","2:nogo_b","",""
"null","","html-keyboard-response","214","336012","0.0-4.0-1.58","","<img src=""img/purple-n.png"" border=""10"">","null","trial","null","","0.2,0.8","2:nogo_b","0",""
"null","","html-keyboard-response","215","337025","0.0-4.0-2.58","","<div style=""font-size:60px;"">+</div>","null","","","","","","",""
"627.3999999761581","","image-keyboard-response","216","337653","0.0-4.0-0.59","","img/blue.png","32","trial","32","true","0.8,0.2","1:go_a","",""
"null","","html-keyboard-response","217","338665","0.0-4.0-1.59","","<img src=""img/blue-r.png"" border=""10"">","null","trial","32","","0.8,0.2","1:go_a","1",""
"null","","html-keyboard-response","218","339669","0.0-4.0-2.59","","<div style=""font-size:60px;"">+</div>","null","","","","","","",""
"4367.5","","instructions","219","344037","0.0-5.0","[{""page_index"":0,""viewing_time"":4367.300000011921}]","","","","","","","","",""
"894.1999999880791","","image-keyboard-response","220","344932","0.0-6.0-0.0","","img/green.png","32","trial","null","false","0,1","4:nogo_d","",""
"null","","html-keyboard-response","221","345935","0.0-6.0-1.0","","<img src=""img/green-n.png"" border=""10"">","null","trial","null","","0,1","4:nogo_d","0",""
"null","","html-keyboard-response","222","346945","0.0-6.0-2.0","","<div style=""font-size:60px;"">+</div>","null","","","","","","",""
"459.09999999403954","","image-keyboard-response","223","347405","0.0-6.0-0.1","","img/pink.png","32","trial","32","true","1,0","3:go_c","",""
"null","","html-keyboard-response","224","348407","0.0-6.0-1.1","","<img src=""img/pink-r.png"" border=""10"">","null","trial","32","","1,0","3:go_c","1",""
"null","","html-keyboard-response","225","349414","0.0-6.0-2.1","","<div style=""font-size:60px;"">+</div>","null","","","","","","",""
"790.1000000238419","","image-keyboard-response","226","350205","0.0-6.0-0.2","","img/yellow.png","32","trial","null","false","0.2,0.8","2:nogo_b","",""
"null","","html-keyboard-response","227","351210","0.0-6.0-1.2","","<img src=""img/yellow-n.png"" border=""10"">","null","trial","null","","0.2,0.8","2:nogo_b","0",""
"null","","html-keyboard-response","228","352214","0.0-6.0-2.2","","<div style=""font-size:60px;"">+</div>","null","","","","","","",""
"718.3000000119209","","image-keyboard-response","229","352933","0.0-6.0-0.3","","img/blue.png","32","trial","32","true","0.8,0.2","1:go_a","",""
"null","","html-keyboard-response","230","353951","0.0-6.0-1.3","","<img src=""img/blue-n.png"" border=""10"">","null","trial","32","","0.8,0.2","1:go_a","0",""
"null","","html-keyboard-response","231","354952","0.0-6.0-2.3","","<div style=""font-size:60px;"">+</div>","null","","","","","","",""
"null","","image-keyboard-response","232","356468","0.0-6.0-0.4","","img/yellow.png","null","trial","null","true","0.2,0.8","2:nogo_b","",""
"null","","html-keyboard-response","233","357485","0.0-6.0-1.4","","<img src=""img/yellow-r.png"">","null","trial","null","","0.2,0.8","2:nogo_b","1",""
"null","","html-keyboard-response","234","358490","0.0-6.0-2.4","","<div style=""font-size:60px;"">+</div>","null","","","","","","",""
"882.2999999821186","","image-keyboard-response","235","359373","0.0-6.0-0.5","","img/green.png","32","trial","null","false","0,1","4:nogo_d","",""
"null","","html-keyboard-response","236","360387","0.0-6.0-1.5","","<img src=""img/green-n.png"" border=""10"">","null","trial","null","","0,1","4:nogo_d","0",""
"null","","html-keyboard-response","237","361398","0.0-6.0-2.5","","<div style=""font-size:60px;"">+</div>","null","","","","","","",""
"null","","image-keyboard-response","238","362911","0.0-6.0-0.6","","img/blue.png","null","trial","32","false","0.8,0.2","1:go_a","",""
"null","","html-keyboard-response","239","363926","0.0-6.0-1.6","","<img src=""img/blue-n.png"">","null","trial","32","","0.8,0.2","1:go_a","0",""
"null","","html-keyboard-response","240","364932","0.0-6.0-2.6","","<div style=""font-size:60px;"">+</div>","null","","","","","","",""
"495.7999999821186","","image-keyboard-response","241","365429","0.0-6.0-0.7","","img/pink.png","32","trial","32","true","1,0","3:go_c","",""
"null","","html-keyboard-response","242","366442","0.0-6.0-1.7","","<img src=""img/pink-r.png"" border=""10"">","null","trial","32","","1,0","3:go_c","1",""
"null","","html-keyboard-response","243","367444","0.0-6.0-2.7","","<div style=""font-size:60px;"">+</div>","null","","","","","","",""
"null","","image-keyboard-response","244","368948","0.0-6.0-0.8","","img/green.png","null","trial","null","true","0,1","4:nogo_d","",""
"null","","html-keyboard-response","245","369961","0.0-6.0-1.8","","<img src=""img/green-r.png"">","null","trial","null","","0,1","4:nogo_d","1",""
"null","","html-keyboard-response","246","370964","0.0-6.0-2.8","","<div style=""font-size:60px;"">+</div>","null","","","","","","",""
"null","","image-keyboard-response","247","372468","0.0-6.0-0.9","","img/blue.png","null","trial","32","false","0.8,0.2","1:go_a","",""
"null","","html-keyboard-response","248","373478","0.0-6.0-1.9","","<img src=""img/blue-r.png"">","null","trial","32","","0.8,0.2","1:go_a","1",""
"null","","html-keyboard-response","249","374488","0.0-6.0-2.9","","<div style=""font-size:60px;"">+</div>","null","","","","","","",""
"692.0999999940395","","image-keyboard-response","250","375181","0.0-6.0-0.10","","img/pink.png","32","trial","32","true","1,0","3:go_c","",""
"null","","html-keyboard-response","251","376189","0.0-6.0-1.10","","<img src=""img/pink-r.png"" border=""10"">","null","trial","32","","1,0","3:go_c","1",""
"null","","html-keyboard-response","252","377196","0.0-6.0-2.10","","<div style=""font-size:60px;"">+</div>","null","","","","","","",""
"1406.300000011921","","image-keyboard-response","253","378604","0.0-6.0-0.11","","img/yellow.png","32","trial","null","false","0.2,0.8","2:nogo_b","",""
"null","","html-keyboard-response","254","379606","0.0-6.0-1.11","","<img src=""img/yellow-n.png"" border=""10"">","null","trial","null","","0.2,0.8","2:nogo_b","0",""
"null","","html-keyboard-response","255","380612","0.0-6.0-2.11","","<div style=""font-size:60px;"">+</div>","null","","","","","","",""
"887.8000000119209","","image-keyboard-response","256","381501","0.0-6.0-0.12","","img/yellow.png","32","trial","null","false","0.2,0.8","2:nogo_b","",""
"null","","html-keyboard-response","257","382508","0.0-6.0-1.12","","<img src=""img/yellow-n.png"" border=""10"">","null","trial","null","","0.2,0.8","2:nogo_b","0",""
"null","","html-keyboard-response","258","383522","0.0-6.0-2.12","","<div style=""font-size:60px;"">+</div>","null","","","","","","",""
"497.69999998807907","","image-keyboard-response","259","384021","0.0-6.0-0.13","","img/pink.png","32","trial","32","true","1,0","3:go_c","",""
"null","","html-keyboard-response","260","385030","0.0-6.0-1.13","","<img src=""img/pink-r.png"" border=""10"">","null","trial","32","","1,0","3:go_c","1",""
"null","","html-keyboard-response","261","386031","0.0-6.0-2.13","","<div style=""font-size:60px;"">+</div>","null","","","","","","",""
"null","","image-keyboard-response","262","387545","0.0-6.0-0.14","","img/green.png","null","trial","null","true","0,1","4:nogo_d","",""
"null","","html-keyboard-response","263","388561","0.0-6.0-1.14","","<img src=""img/green-r.png"">","null","trial","null","","0,1","4:nogo_d","1",""
"null","","html-keyboard-response","264","389571","0.0-6.0-2.14","","<div style=""font-size:60px;"">+</div>","null","","","","","","",""
"433.09999999403954","","image-keyboard-response","265","390005","0.0-6.0-0.15","","img/blue.png","32","trial","32","true","0.8,0.2","1:go_a","",""
"null","","html-keyboard-response","266","391017","0.0-6.0-1.15","","<img src=""img/blue-r.png"" border=""10"">","null","trial","32","","0.8,0.2","1:go_a","1",""
"null","","html-keyboard-response","267","392024","0.0-6.0-2.15","","<div style=""font-size:60px;"">+</div>","null","","","","","","",""
"null","","image-keyboard-response","268","393538","0.0-6.0-0.16","","img/green.png","null","trial","null","true","0,1","4:nogo_d","",""
"null","","html-keyboard-response","269","394549","0.0-6.0-1.16","","<img src=""img/green-r.png"">","null","trial","null","","0,1","4:nogo_d","1",""
"null","","html-keyboard-response","270","395556","0.0-6.0-2.16","","<div style=""font-size:60px;"">+</div>","null","","","","","","",""
"null","","image-keyboard-response","271","397072","0.0-6.0-0.17","","img/yellow.png","null","trial","null","true","0.2,0.8","2:nogo_b","",""
"null","","html-keyboard-response","272","398077","0.0-6.0-1.17","","<img src=""img/yellow-r.png"">","null","trial","null","","0.2,0.8","2:nogo_b","1",""
"null","","html-keyboard-response","273","399089","0.0-6.0-2.17","","<div style=""font-size:60px;"">+</div>","null","","","","","","",""
"1043.2000000178814","","image-keyboard-response","274","400133","0.0-6.0-0.18","","img/blue.png","32","trial","32","true","0.8,0.2","1:go_a","",""
"null","","html-keyboard-response","275","401144","0.0-6.0-1.18","","<img src=""img/blue-r.png"" border=""10"">","null","trial","32","","0.8,0.2","1:go_a","1",""
"null","","html-keyboard-response","276","402145","0.0-6.0-2.18","","<div style=""font-size:60px;"">+</div>","null","","","","","","",""
"434.69999998807907","","image-keyboard-response","277","402581","0.0-6.0-0.19","","img/pink.png","32","trial","32","true","1,0","3:go_c","",""
"null","","html-keyboard-response","278","403585","0.0-6.0-1.19","","<img src=""img/pink-r.png"" border=""10"">","null","trial","32","","1,0","3:go_c","1",""
"null","","html-keyboard-response","279","404591","0.0-6.0-2.19","","<div style=""font-size:60px;"">+</div>","null","","","","","","",""
"null","","image-keyboard-response","280","406102","0.0-6.0-0.20","","img/green.png","null","trial","null","true","0,1","4:nogo_d","",""
"null","","html-keyboard-response","281","407113","0.0-6.0-1.20","","<img src=""img/green-r.png"">","null","trial","null","","0,1","4:nogo_d","1",""
"null","","html-keyboard-response","282","408118","0.0-6.0-2.20","","<div style=""font-size:60px;"">+</div>","null","","","","","","",""
"566.1999999880791","","image-keyboard-response","283","408685","0.0-6.0-0.21","","img/blue.png","32","trial","32","true","0.8,0.2","1:go_a","",""
"null","","html-keyboard-response","284","409702","0.0-6.0-1.21","","<img src=""img/blue-r.png"" border=""10"">","null","trial","32","","0.8,0.2","1:go_a","1",""
"null","","html-keyboard-response","285","410707","0.0-6.0-2.21","","<div style=""font-size:60px;"">+</div>","null","","","","","","",""
"929.6999999880791","","image-keyboard-response","286","411637","0.0-6.0-0.22","","img/yellow.png","32","trial","null","false","0.2,0.8","2:nogo_b","",""
"null","","html-keyboard-response","287","412646","0.0-6.0-1.22","","<img src=""img/yellow-r.png"" border=""10"">","null","trial","null","","0.2,0.8","2:nogo_b","1",""
"null","","html-keyboard-response","288","413661","0.0-6.0-2.22","","<div style=""font-size:60px;"">+</div>","null","","","","","","",""
"551.2999999821186","","image-keyboard-response","289","414206","0.0-6.0-0.23","","img/pink.png","32","trial","32","true","1,0","3:go_c","",""
"null","","html-keyboard-response","290","415221","0.0-6.0-1.23","","<img src=""img/pink-r.png"" border=""10"">","null","trial","32","","1,0","3:go_c","1",""
"null","","html-keyboard-response","291","416235","0.0-6.0-2.23","","<div style=""font-size:60px;"">+</div>","null","","","","","","",""
"null","","image-keyboard-response","292","417752","0.0-6.0-0.24","","img/yellow.png","null","trial","null","true","0.2,0.8","2:nogo_b","",""
"null","","html-keyboard-response","293","418754","0.0-6.0-1.24","","<img src=""img/yellow-n.png"">","null","trial","null","","0.2,0.8","2:nogo_b","0",""
"null","","html-keyboard-response","294","419764","0.0-6.0-2.24","","<div style=""font-size:60px;"">+</div>","null","","","","","","",""
"null","","image-keyboard-response","295","421274","0.0-6.0-0.25","","img/blue.png","null","trial","32","false","0.8,0.2","1:go_a","",""
"null","","html-keyboard-response","296","422287","0.0-6.0-1.25","","<img src=""img/blue-n.png"">","null","trial","32","","0.8,0.2","1:go_a","0",""
"null","","html-keyboard-response","297","423295","0.0-6.0-2.25","","<div style=""font-size:60px;"">+</div>","null","","","","","","",""
"null","","image-keyboard-response","298","424807","0.0-6.0-0.26","","img/green.png","null","trial","null","true","0,1","4:nogo_d","",""
"null","","html-keyboard-response","299","425822","0.0-6.0-1.26","","<img src=""img/green-r.png"">","null","trial","null","","0,1","4:nogo_d","1",""
"null","","html-keyboard-response","300","426827","0.0-6.0-2.26","","<div style=""font-size:60px;"">+</div>","null","","","","","","",""
"610.0999999940395","","image-keyboard-response","301","427438","0.0-6.0-0.27","","img/pink.png","32","trial","32","true","1,0","3:go_c","",""
"null","","html-keyboard-response","302","428454","0.0-6.0-1.27","","<img src=""img/pink-r.png"" border=""10"">","null","trial","32","","1,0","3:go_c","1",""
"null","","html-keyboard-response","303","429460","0.0-6.0-2.27","","<div style=""font-size:60px;"">+</div>","null","","","","","","",""
"513.2000000178814","","image-keyboard-response","304","429974","0.0-6.0-0.28","","img/green.png","32","trial","null","false","0,1","4:nogo_d","",""
"null","","html-keyboard-response","305","430983","0.0-6.0-1.28","","<img src=""img/green-n.png"" border=""10"">","null","trial","null","","0,1","4:nogo_d","0",""
"null","","html-keyboard-response","306","431999","0.0-6.0-2.28","","<div style=""font-size:60px;"">+</div>","null","","","","","","",""
"null","","image-keyboard-response","307","433504","0.0-6.0-0.29","","img/pink.png","null","trial","32","false","1,0","3:go_c","",""
"null","","html-keyboard-response","308","434522","0.0-6.0-1.29","","<img src=""img/pink-n.png"">","null","trial","32","","1,0","3:go_c","0",""
"null","","html-keyboard-response","309","435535","0.0-6.0-2.29","","<div style=""font-size:60px;"">+</div>","null","","","","","","",""
"null","","image-keyboard-response","310","437050","0.0-6.0-0.30","","img/yellow.png","null","trial","null","true","0.2,0.8","2:nogo_b","",""
"null","","html-keyboard-response","311","438066","0.0-6.0-1.30","","<img src=""img/yellow-r.png"">","null","trial","null","","0.2,0.8","2:nogo_b","1",""
"null","","html-keyboard-response","312","439079","0.0-6.0-2.30","","<div style=""font-size:60px;"">+</div>","null","","","","","","",""
"1157.699999988079","","image-keyboard-response","313","440238","0.0-6.0-0.31","","img/blue.png","32","trial","32","true","0.8,0.2","1:go_a","",""
"null","","html-keyboard-response","314","441251","0.0-6.0-1.31","","<img src=""img/blue-n.png"" border=""10"">","null","trial","32","","0.8,0.2","1:go_a","0",""
"null","","html-keyboard-response","315","442261","0.0-6.0-2.31","","<div style=""font-size:60px;"">+</div>","null","","","","","","",""
"null","","image-keyboard-response","316","443764","0.0-6.0-0.32","","img/yellow.png","null","trial","null","true","0.2,0.8","2:nogo_b","",""
"null","","html-keyboard-response","317","444777","0.0-6.0-1.32","","<img src=""img/yellow-n.png"">","null","trial","null","","0.2,0.8","2:nogo_b","0",""
"null","","html-keyboard-response","318","445778","0.0-6.0-2.32","","<div style=""font-size:60px;"">+</div>","null","","","","","","",""
"null","","image-keyboard-response","319","447292","0.0-6.0-0.33","","img/green.png","null","trial","null","true","0,1","4:nogo_d","",""
"null","","html-keyboard-response","320","448298","0.0-6.0-1.33","","<img src=""img/green-r.png"">","null","trial","null","","0,1","4:nogo_d","1",""
"null","","html-keyboard-response","321","449303","0.0-6.0-2.33","","<div style=""font-size:60px;"">+</div>","null","","","","","","",""
"566.1999999880791","","image-keyboard-response","322","449870","0.0-6.0-0.34","","img/pink.png","32","trial","32","true","1,0","3:go_c","",""
"null","","html-keyboard-response","323","450877","0.0-6.0-1.34","","<img src=""img/pink-r.png"" border=""10"">","null","trial","32","","1,0","3:go_c","1",""
"null","","html-keyboard-response","324","451893","0.0-6.0-2.34","","<div style=""font-size:60px;"">+</div>","null","","","","","","",""
"351.90000000596046","","image-keyboard-response","325","452246","0.0-6.0-0.35","","img/blue.png","32","trial","32","true","0.8,0.2","1:go_a","",""
"null","","html-keyboard-response","326","453257","0.0-6.0-1.35","","<img src=""img/blue-r.png"" border=""10"">","null","trial","32","","0.8,0.2","1:go_a","1",""
"null","","html-keyboard-response","327","454273","0.0-6.0-2.35","","<div style=""font-size:60px;"">+</div>","null","","","","","","",""
"427.7999999821186","","image-keyboard-response","328","454702","0.0-6.0-0.36","","img/green.png","32","trial","null","false","0,1","4:nogo_d","",""
"null","","html-keyboard-response","329","455709","0.0-6.0-1.36","","<img src=""img/green-n.png"" border=""10"">","null","trial","null","","0,1","4:nogo_d","0",""
"null","","html-keyboard-response","330","456712","0.0-6.0-2.36","","<div style=""font-size:60px;"">+</div>","null","","","","","","",""
"989","","image-keyboard-response","331","457702","0.0-6.0-0.37","","img/blue.png","32","trial","32","true","0.8,0.2","1:go_a","",""
"null","","html-keyboard-response","332","458709","0.0-6.0-1.37","","<img src=""img/blue-r.png"" border=""10"">","null","trial","32","","0.8,0.2","1:go_a","1",""
"null","","html-keyboard-response","333","459712","0.0-6.0-2.37","","<div style=""font-size:60px;"">+</div>","null","","","","","","",""
"485.2000000178814","","image-keyboard-response","334","460198","0.0-6.0-0.38","","img/yellow.png","32","trial","null","false","0.2,0.8","2:nogo_b","",""
"null","","html-keyboard-response","335","461215","0.0-6.0-1.38","","<img src=""img/yellow-r.png"" border=""10"">","null","trial","null","","0.2,0.8","2:nogo_b","1",""
"null","","html-keyboard-response","336","462217","0.0-6.0-2.38","","<div style=""font-size:60px;"">+</div>","null","","","","","","",""
"500.09999999403954","","image-keyboard-response","337","462718","0.0-6.0-0.39","","img/pink.png","32","trial","32","true","1,0","3:go_c","",""
"null","","html-keyboard-response","338","463725","0.0-6.0-1.39","","<img src=""img/pink-r.png"" border=""10"">","null","trial","32","","1,0","3:go_c","1",""
"null","","html-keyboard-response","339","464733","0.0-6.0-2.39","","<div style=""font-size:60px;"">+</div>","null","","","","","","",""
"null","","image-keyboard-response","340","466236","0.0-6.0-0.40","","img/yellow.png","null","trial","null","true","0.2,0.8","2:nogo_b","",""
"null","","html-keyboard-response","341","467252","0.0-6.0-1.40","","<img src=""img/yellow-r.png"">","null","trial","null","","0.2,0.8","2:nogo_b","1",""
"null","","html-keyboard-response","342","468267","0.0-6.0-2.40","","<div style=""font-size:60px;"">+</div>","null","","","","","","",""
"1322.199999988079","","image-keyboard-response","343","469590","0.0-6.0-0.41","","img/green.png","32","trial","null","false","0,1","4:nogo_d","",""
"null","","html-keyboard-response","344","470593","0.0-6.0-1.41","","<img src=""img/green-n.png"" border=""10"">","null","trial","null","","0,1","4:nogo_d","0",""
"null","","html-keyboard-response","345","471599","0.0-6.0-2.41","","<div style=""font-size:60px;"">+</div>","null","","","","","","",""
"701.1999999880791","","image-keyboard-response","346","472302","0.0-6.0-0.42","","img/pink.png","32","trial","32","true","1,0","3:go_c","",""
"null","","html-keyboard-response","347","473314","0.0-6.0-1.42","","<img src=""img/pink-r.png"" border=""10"">","null","trial","32","","1,0","3:go_c","1",""
"null","","html-keyboard-response","348","474334","0.0-6.0-2.42","","<div style=""font-size:60px;"">+</div>","null","","","","","","",""
"294.19999998807907","","image-keyboard-response","349","474629","0.0-6.0-0.43","","img/blue.png","32","trial","32","true","0.8,0.2","1:go_a","",""
"null","","html-keyboard-response","350","475641","0.0-6.0-1.43","","<img src=""img/blue-n.png"" border=""10"">","null","trial","32","","0.8,0.2","1:go_a","0",""
"null","","html-keyboard-response","351","476654","0.0-6.0-2.43","","<div style=""font-size:60px;"">+</div>","null","","","","","","",""
"null","","image-keyboard-response","352","478171","0.0-6.0-0.44","","img/yellow.png","null","trial","null","true","0.2,0.8","2:nogo_b","",""
"null","","html-keyboard-response","353","479176","0.0-6.0-1.44","","<img src=""img/yellow-r.png"">","null","trial","null","","0.2,0.8","2:nogo_b","1",""
"null","","html-keyboard-response","354","480192","0.0-6.0-2.44","","<div style=""font-size:60px;"">+</div>","null","","","","","","",""
"867.7999999821186","","image-keyboard-response","355","481061","0.0-6.0-0.45","","img/blue.png","32","trial","32","true","0.8,0.2","1:go_a","",""
"null","","html-keyboard-response","356","482074","0.0-6.0-1.45","","<img src=""img/blue-r.png"" border=""10"">","null","trial","32","","0.8,0.2","1:go_a","1",""
"null","","html-keyboard-response","357","483081","0.0-6.0-2.45","","<div style=""font-size:60px;"">+</div>","null","","","","","","",""
"306.5","","image-keyboard-response","358","483389","0.0-6.0-0.46","","img/green.png","32","trial","null","false","0,1","4:nogo_d","",""
"null","","html-keyboard-response","359","484392","0.0-6.0-1.46","","<img src=""img/green-n.png"" border=""10"">","null","trial","null","","0,1","4:nogo_d","0",""
"null","","html-keyboard-response","360","485402","0.0-6.0-2.46","","<div style=""font-size:60px;"">+</div>","null","","","","","","",""
"506.5","","image-keyboard-response","361","485909","0.0-6.0-0.47","","img/pink.png","32","trial","32","true","1,0","3:go_c","",""
"null","","html-keyboard-response","362","486923","0.0-6.0-1.47","","<img src=""img/pink-r.png"" border=""10"">","null","trial","32","","1,0","3:go_c","1",""
"null","","html-keyboard-response","363","487931","0.0-6.0-2.47","","<div style=""font-size:60px;"">+</div>","null","","","","","","",""
"353","","image-keyboard-response","364","488285","0.0-6.0-0.48","","img/yellow.png","32","trial","null","false","0.2,0.8","2:nogo_b","",""
"null","","html-keyboard-response","365","489297","0.0-6.0-1.48","","<img src=""img/yellow-n.png"" border=""10"">","null","trial","null","","0.2,0.8","2:nogo_b","0",""
"null","","html-keyboard-response","366","490298","0.0-6.0-2.48","","<div style=""font-size:60px;"">+</div>","null","","","","","","",""
"977.8000000119209","","image-keyboard-response","367","491277","0.0-6.0-0.49","","img/blue.png","32","trial","32","true","0.8,0.2","1:go_a","",""
"null","","html-keyboard-response","368","492286","0.0-6.0-1.49","","<img src=""img/blue-n.png"" border=""10"">","null","trial","32","","0.8,0.2","1:go_a","0",""
"null","","html-keyboard-response","369","493288","0.0-6.0-2.49","","<div style=""font-size:60px;"">+</div>","null","","","","","","",""
"null","","image-keyboard-response","370","494797","0.0-6.0-0.50","","img/green.png","null","trial","null","true","0,1","4:nogo_d","",""
"null","","html-keyboard-response","371","495802","0.0-6.0-1.50","","<img src=""img/green-r.png"">","null","trial","null","","0,1","4:nogo_d","1",""
"null","","html-keyboard-response","372","496812","0.0-6.0-2.50","","<div style=""font-size:60px;"">+</div>","null","","","","","","",""
"584.2999999821186","","image-keyboard-response","373","497397","0.0-6.0-0.51","","img/pink.png","32","trial","32","true","1,0","3:go_c","",""
"null","","html-keyboard-response","374","498413","0.0-6.0-1.51","","<img src=""img/pink-r.png"" border=""10"">","null","trial","32","","1,0","3:go_c","1",""
"null","","html-keyboard-response","375","499425","0.0-6.0-2.51","","<div style=""font-size:60px;"">+</div>","null","","","","","","",""
"306.69999998807907","","image-keyboard-response","376","499733","0.0-6.0-0.52","","img/blue.png","32","trial","32","true","0.8,0.2","1:go_a","",""
"null","","html-keyboard-response","377","500744","0.0-6.0-1.52","","<img src=""img/blue-r.png"" border=""10"">","null","trial","32","","0.8,0.2","1:go_a","1",""
"null","","html-keyboard-response","378","501749","0.0-6.0-2.52","","<div style=""font-size:60px;"">+</div>","null","","","","","","",""
"415.2000000178814","","image-keyboard-response","379","502165","0.0-6.0-0.53","","img/yellow.png","32","trial","null","false","0.2,0.8","2:nogo_b","",""
"null","","html-keyboard-response","380","503182","0.0-6.0-1.53","","<img src=""img/yellow-r.png"" border=""10"">","null","trial","null","","0.2,0.8","2:nogo_b","1",""
"null","","html-keyboard-response","381","504197","0.0-6.0-2.53","","<div style=""font-size:60px;"">+</div>","null","","","","","","",""
"807","","image-keyboard-response","382","505005","0.0-6.0-0.54","","img/pink.png","32","trial","32","true","1,0","3:go_c","",""
"null","","html-keyboard-response","383","506015","0.0-6.0-1.54","","<img src=""img/pink-r.png"" border=""10"">","null","trial","32","","1,0","3:go_c","1",""
"null","","html-keyboard-response","384","507018","0.0-6.0-2.54","","<div style=""font-size:60px;"">+</div>","null","","","","","","",""
"602.5","","image-keyboard-response","385","507621","0.0-6.0-0.55","","img/green.png","32","trial","null","false","0,1","4:nogo_d","",""
"null","","html-keyboard-response","386","508634","0.0-6.0-1.55","","<img src=""img/green-n.png"" border=""10"">","null","trial","null","","0,1","4:nogo_d","0",""
"null","","html-keyboard-response","387","509640","0.0-6.0-2.55","","<div style=""font-size:60px;"">+</div>","null","","","","","","",""
"null","","image-keyboard-response","388","511154","0.0-6.0-0.56","","img/green.png","null","trial","null","true","0,1","4:nogo_d","",""
"null","","html-keyboard-response","389","512159","0.0-6.0-1.56","","<img src=""img/green-r.png"">","null","trial","null","","0,1","4:nogo_d","1",""
"null","","html-keyboard-response","390","513171","0.0-6.0-2.56","","<div style=""font-size:60px;"">+</div>","null","","","","","","",""
"1512.5999999940395","","image-keyboard-response","391","514685","0.0-6.0-0.57","","img/yellow.png","32","trial","null","false","0.2,0.8","2:nogo_b","",""
"null","","html-keyboard-response","392","515693","0.0-6.0-1.57","","<img src=""img/yellow-n.png"" border=""10"">","null","trial","null","","0.2,0.8","2:nogo_b","0",""
"null","","html-keyboard-response","393","516704","0.0-6.0-2.57","","<div style=""font-size:60px;"">+</div>","null","","","","","","",""
"988.6999999880791","","image-keyboard-response","394","517694","0.0-6.0-0.58","","img/blue.png","32","trial","32","true","0.8,0.2","1:go_a","",""
"null","","html-keyboard-response","395","518711","0.0-6.0-1.58","","<img src=""img/blue-n.png"" border=""10"">","null","trial","32","","0.8,0.2","1:go_a","0",""
"null","","html-keyboard-response","396","519715","0.0-6.0-2.58","","<div style=""font-size:60px;"">+</div>","null","","","","","","",""
"593","","image-keyboard-response","397","520309","0.0-6.0-0.59","","img/pink.png","32","trial","32","true","1,0","3:go_c","",""
"null","","html-keyboard-response","398","521315","0.0-6.0-1.59","","<img src=""img/pink-r.png"" border=""10"">","null","trial","32","","1,0","3:go_c","1",""
"null","","html-keyboard-response","399","522316","0.0-6.0-2.59","","<div style=""font-size:60px;"">+</div>","null","","","","","","",""
"439.59999999403954","","image-keyboard-response","400","522757","0.0-6.0-0.60","","img/yellow.png","32","trial","null","false","0.2,0.8","2:nogo_b","",""
"null","","html-keyboard-response","401","523765","0.0-6.0-1.60","","<img src=""img/yellow-n.png"" border=""10"">","null","trial","null","","0.2,0.8","2:nogo_b","0",""
"null","","html-keyboard-response","402","524773","0.0-6.0-2.60","","<div style=""font-size:60px;"">+</div>","null","","","","","","",""
"null","","image-keyboard-response","403","526289","0.0-6.0-0.61","","img/green.png","null","trial","null","true","0,1","4:nogo_d","",""
"null","","html-keyboard-response","404","527300","0.0-6.0-1.61","","<img src=""img/green-r.png"">","null","trial","null","","0,1","4:nogo_d","1",""
"null","","html-keyboard-response","405","528324","0.0-6.0-2.61","","<div style=""font-size:60px;"">+</div>","null","","","","","","",""
"688.6999999880791","","image-keyboard-response","406","529013","0.0-6.0-0.62","","img/blue.png","32","trial","32","true","0.8,0.2","1:go_a","",""
"null","","html-keyboard-response","407","530021","0.0-6.0-1.62","","<img src=""img/blue-r.png"" border=""10"">","null","trial","32","","0.8,0.2","1:go_a","1",""
"null","","html-keyboard-response","408","531038","0.0-6.0-2.62","","<div style=""font-size:60px;"">+</div>","null","","","","","","",""
"413.90000000596046","","image-keyboard-response","409","531453","0.0-6.0-0.63","","img/pink.png","32","trial","32","true","1,0","3:go_c","",""
"null","","html-keyboard-response","410","532455","0.0-6.0-1.63","","<img src=""img/pink-r.png"" border=""10"">","null","trial","32","","1,0","3:go_c","1",""
"null","","html-keyboard-response","411","533467","0.0-6.0-2.63","","<div style=""font-size:60px;"">+</div>","null","","","","","","",""
"313","","image-keyboard-response","412","533781","0.0-6.0-0.64","","img/green.png","32","trial","null","false","0,1","4:nogo_d","",""
"null","","html-keyboard-response","413","534782","0.0-6.0-1.64","","<img src=""img/green-n.png"" border=""10"">","null","trial","null","","0,1","4:nogo_d","0",""
"null","","html-keyboard-response","414","535793","0.0-6.0-2.64","","<div style=""font-size:60px;"">+</div>","null","","","","","","",""
"1290.5999999940395","","image-keyboard-response","415","537085","0.0-6.0-0.65","","img/blue.png","32","trial","32","true","0.8,0.2","1:go_a","",""
"null","","html-keyboard-response","416","538096","0.0-6.0-1.65","","<img src=""img/blue-n.png"" border=""10"">","null","trial","32","","0.8,0.2","1:go_a","0",""
"null","","html-keyboard-response","417","539101","0.0-6.0-2.65","","<div style=""font-size:60px;"">+</div>","null","","","","","","",""
"502.59999999403954","","image-keyboard-response","418","539605","0.0-6.0-0.66","","img/yellow.png","32","trial","null","false","0.2,0.8","2:nogo_b","",""
"null","","html-keyboard-response","419","540613","0.0-6.0-1.66","","<img src=""img/yellow-n.png"" border=""10"">","null","trial","null","","0.2,0.8","2:nogo_b","0",""
"null","","html-keyboard-response","420","541624","0.0-6.0-2.66","","<div style=""font-size:60px;"">+</div>","null","","","","","","",""
"419.90000000596046","","image-keyboard-response","421","542045","0.0-6.0-0.67","","img/pink.png","32","trial","32","true","1,0","3:go_c","",""
"null","","html-keyboard-response","422","543055","0.0-6.0-1.67","","<img src=""img/pink-r.png"" border=""10"">","null","trial","32","","1,0","3:go_c","1",""
"null","","html-keyboard-response","423","544064","0.0-6.0-2.67","","<div style=""font-size:60px;"">+</div>","null","","","","","","",""
"372","","image-keyboard-response","424","544437","0.0-6.0-0.68","","img/green.png","32","trial","null","false","0,1","4:nogo_d","",""
"null","","html-keyboard-response","425","545439","0.0-6.0-1.68","","<img src=""img/green-n.png"" border=""10"">","null","trial","null","","0,1","4:nogo_d","0",""
"null","","html-keyboard-response","426","546445","0.0-6.0-2.68","","<div style=""font-size:60px;"">+</div>","null","","","","","","",""
"1286.4000000059605","","image-keyboard-response","427","547732","0.0-6.0-0.69","","img/blue.png","32","trial","32","true","0.8,0.2","1:go_a","",""
"null","","html-keyboard-response","428","548739","0.0-6.0-1.69","","<img src=""img/blue-r.png"" border=""10"">","null","trial","32","","0.8,0.2","1:go_a","1",""
"null","","html-keyboard-response","429","549745","0.0-6.0-2.69","","<div style=""font-size:60px;"">+</div>","null","","","","","","",""
"434.09999999403954","","image-keyboard-response","430","550180","0.0-6.0-0.70","","img/pink.png","32","trial","32","true","1,0","3:go_c","",""
"null","","html-keyboard-response","431","551194","0.0-6.0-1.70","","<img src=""img/pink-r.png"" border=""10"">","null","trial","32","","1,0","3:go_c","1",""
"null","","html-keyboard-response","432","552198","0.0-6.0-2.70","","<div style=""font-size:60px;"">+</div>","null","","","","","","",""
"493.60000002384186","","image-keyboard-response","433","552693","0.0-6.0-0.71","","img/yellow.png","32","trial","null","false","0.2,0.8","2:nogo_b","",""
"null","","html-keyboard-response","434","553697","0.0-6.0-1.71","","<img src=""img/yellow-n.png"" border=""10"">","null","trial","null","","0.2,0.8","2:nogo_b","0",""
"null","","html-keyboard-response","435","554713","0.0-6.0-2.71","","<div style=""font-size:60px;"">+</div>","null","","","","","","",""
"699.3000000119209","","image-keyboard-response","436","555413","0.0-6.0-0.72","","img/blue.png","32","trial","32","true","0.8,0.2","1:go_a","",""
"null","","html-keyboard-response","437","556424","0.0-6.0-1.72","","<img src=""img/blue-n.png"" border=""10"">","null","trial","32","","0.8,0.2","1:go_a","0",""
"null","","html-keyboard-response","438","557428","0.0-6.0-2.72","","<div style=""font-size:60px;"">+</div>","null","","","","","","",""
"null","","image-keyboard-response","439","558930","0.0-6.0-0.73","","img/yellow.png","null","trial","null","true","0.2,0.8","2:nogo_b","",""
"null","","html-keyboard-response","440","559944","0.0-6.0-1.73","","<img src=""img/yellow-r.png"">","null","trial","null","","0.2,0.8","2:nogo_b","1",""
"null","","html-keyboard-response","441","560948","0.0-6.0-2.73","","<div style=""font-size:60px;"">+</div>","null","","","","","","",""
"null","","image-keyboard-response","442","562464","0.0-6.0-0.74","","img/green.png","null","trial","null","true","0,1","4:nogo_d","",""
"null","","html-keyboard-response","443","563480","0.0-6.0-1.74","","<img src=""img/green-r.png"">","null","trial","null","","0,1","4:nogo_d","1",""
"null","","html-keyboard-response","444","564483","0.0-6.0-2.74","","<div style=""font-size:60px;"">+</div>","null","","","","","","",""
"393.2000000178814","","image-keyboard-response","445","564877","0.0-6.0-0.75","","img/pink.png","32","trial","32","true","1,0","3:go_c","",""
"null","","html-keyboard-response","446","565880","0.0-6.0-1.75","","<img src=""img/pink-r.png"" border=""10"">","null","trial","32","","1,0","3:go_c","1",""
"null","","html-keyboard-response","447","566883","0.0-6.0-2.75","","<div style=""font-size:60px;"">+</div>","null","","","","","","",""
"568.9000000059605","","image-keyboard-response","448","567453","0.0-6.0-0.76","","img/blue.png","32","trial","32","true","0.8,0.2","1:go_a","",""
"null","","html-keyboard-response","449","568465","0.0-6.0-1.76","","<img src=""img/blue-n.png"" border=""10"">","null","trial","32","","0.8,0.2","1:go_a","0",""
"null","","html-keyboard-response","450","569475","0.0-6.0-2.76","","<div style=""font-size:60px;"">+</div>","null","","","","","","",""
"1016.1999999880791","","image-keyboard-response","451","570492","0.0-6.0-0.77","","img/pink.png","32","trial","32","true","1,0","3:go_c","",""
"null","","html-keyboard-response","452","571504","0.0-6.0-1.77","","<img src=""img/pink-r.png"" border=""10"">","null","trial","32","","1,0","3:go_c","1",""
"null","","html-keyboard-response","453","572517","0.0-6.0-2.77","","<div style=""font-size:60px;"">+</div>","null","","","","","","",""
"null","","image-keyboard-response","454","574019","0.0-6.0-0.78","","img/green.png","null","trial","null","true","0,1","4:nogo_d","",""
"null","","html-keyboard-response","455","575023","0.0-6.0-1.78","","<img src=""img/green-r.png"">","null","trial","null","","0,1","4:nogo_d","1",""
"null","","html-keyboard-response","456","576031","0.0-6.0-2.78","","<div style=""font-size:60px;"">+</div>","null","","","","","","",""
"461","","image-keyboard-response","457","576493","0.0-6.0-0.79","","img/yellow.png","32","trial","null","false","0.2,0.8","2:nogo_b","",""
"null","","html-keyboard-response","458","577502","0.0-6.0-1.79","","<img src=""img/yellow-n.png"" border=""10"">","null","trial","null","","0.2,0.8","2:nogo_b","0",""
"null","","html-keyboard-response","459","578518","0.0-6.0-2.79","","<div style=""font-size:60px;"">+</div>","null","","","","","","",""
"958.6999999880791","","image-keyboard-response","460","579477","0.0-6.0-0.80","","img/blue.png","32","trial","32","true","0.8,0.2","1:go_a","",""
"null","","html-keyboard-response","461","580491","0.0-6.0-1.80","","<img src=""img/blue-r.png"" border=""10"">","null","trial","32","","0.8,0.2","1:go_a","1",""
"null","","html-keyboard-response","462","581520","0.0-6.0-2.80","","<div style=""font-size:60px;"">+</div>","null","","","","","","",""
"603.5","","image-keyboard-response","463","582125","0.0-6.0-0.81","","img/pink.png","32","trial","32","true","1,0","3:go_c","",""
"null","","html-keyboard-response","464","583128","0.0-6.0-1.81","","<img src=""img/pink-r.png"" border=""10"">","null","trial","32","","1,0","3:go_c","1",""
"null","","html-keyboard-response","465","584135","0.0-6.0-2.81","","<div style=""font-size:60px;"">+</div>","null","","","","","","",""
"null","","image-keyboard-response","466","585650","0.0-6.0-0.82","","img/green.png","null","trial","null","true","0,1","4:nogo_d","",""
"null","","html-keyboard-response","467","586652","0.0-6.0-1.82","","<img src=""img/green-r.png"">","null","trial","null","","0,1","4:nogo_d","1",""
"null","","html-keyboard-response","468","587669","0.0-6.0-2.82","","<div style=""font-size:60px;"">+</div>","null","","","","","","",""
"887.9000000059605","","image-keyboard-response","469","588557","0.0-6.0-0.83","","img/yellow.png","32","trial","null","false","0.2,0.8","2:nogo_b","",""
"null","","html-keyboard-response","470","589560","0.0-6.0-1.83","","<img src=""img/yellow-n.png"" border=""10"">","null","trial","null","","0.2,0.8","2:nogo_b","0",""
"null","","html-keyboard-response","471","590568","0.0-6.0-2.83","","<div style=""font-size:60px;"">+</div>","null","","","","","","",""
"364","","image-keyboard-response","472","590933","0.0-6.0-0.84","","img/blue.png","32","trial","32","true","0.8,0.2","1:go_a","",""
"null","","html-keyboard-response","473","591950","0.0-6.0-1.84","","<img src=""img/blue-r.png"" border=""10"">","null","trial","32","","0.8,0.2","1:go_a","1",""
"null","","html-keyboard-response","474","592960","0.0-6.0-2.84","","<div style=""font-size:60px;"">+</div>","null","","","","","","",""
"339.7000000178814","","image-keyboard-response","475","593301","0.0-6.0-0.85","","img/green.png","32","trial","null","false","0,1","4:nogo_d","",""
"null","","html-keyboard-response","476","594313","0.0-6.0-1.85","","<img src=""img/green-n.png"" border=""10"">","null","trial","null","","0,1","4:nogo_d","0",""
"null","","html-keyboard-response","477","595322","0.0-6.0-2.85","","<div style=""font-size:60px;"">+</div>","null","","","","","","",""
"570.2000000178814","","image-keyboard-response","478","595893","0.0-6.0-0.86","","img/yellow.png","32","trial","null","false","0.2,0.8","2:nogo_b","",""
"null","","html-keyboard-response","479","596906","0.0-6.0-1.86","","<img src=""img/yellow-r.png"" border=""10"">","null","trial","null","","0.2,0.8","2:nogo_b","1",""
"null","","html-keyboard-response","480","597911","0.0-6.0-2.86","","<div style=""font-size:60px;"">+</div>","null","","","","","","",""
"501","","image-keyboard-response","481","598413","0.0-6.0-0.87","","img/pink.png","32","trial","32","true","1,0","3:go_c","",""
"null","","html-keyboard-response","482","599421","0.0-6.0-1.87","","<img src=""img/pink-r.png"" border=""10"">","null","trial","32","","1,0","3:go_c","1",""
"null","","html-keyboard-response","483","600428","0.0-6.0-2.87","","<div style=""font-size:60px;"">+</div>","null","","","","","","",""
"1176.5","","image-keyboard-response","484","601605","0.0-6.0-0.88","","img/yellow.png","32","trial","null","false","0.2,0.8","2:nogo_b","",""
"null","","html-keyboard-response","485","602616","0.0-6.0-1.88","","<img src=""img/yellow-n.png"" border=""10"">","null","trial","null","","0.2,0.8","2:nogo_b","0",""
"null","","html-keyboard-response","486","603621","0.0-6.0-2.88","","<div style=""font-size:60px;"">+</div>","null","","","","","","",""
"null","","image-keyboard-response","487","605135","0.0-6.0-0.89","","img/green.png","null","trial","null","true","0,1","4:nogo_d","",""
"null","","html-keyboard-response","488","606139","0.0-6.0-1.89","","<img src=""img/green-r.png"">","null","trial","null","","0,1","4:nogo_d","1",""
"null","","html-keyboard-response","489","607151","0.0-6.0-2.89","","<div style=""font-size:60px;"">+</div>","null","","","","","","",""
"700.5","","image-keyboard-response","490","607853","0.0-6.0-0.90","","img/pink.png","32","trial","32","true","1,0","3:go_c","",""
"null","","html-keyboard-response","491","608859","0.0-6.0-1.90","","<img src=""img/pink-r.png"" border=""10"">","null","trial","32","","1,0","3:go_c","1",""
"null","","html-keyboard-response","492","609875","0.0-6.0-2.90","","<div style=""font-size:60px;"">+</div>","null","","","","","","",""
"640.6999999880791","","image-keyboard-response","493","610517","0.0-6.0-0.91","","img/blue.png","32","trial","32","true","0.8,0.2","1:go_a","",""
"null","","html-keyboard-response","494","611522","0.0-6.0-1.91","","<img src=""img/blue-r.png"" border=""10"">","null","trial","32","","0.8,0.2","1:go_a","1",""
"null","","html-keyboard-response","495","612523","0.0-6.0-2.91","","<div style=""font-size:60px;"">+</div>","null","","","","","","",""
"921","","image-keyboard-response","496","613445","0.0-6.0-0.92","","img/blue.png","32","trial","32","true","0.8,0.2","1:go_a","",""
"null","","html-keyboard-response","497","614458","0.0-6.0-1.92","","<img src=""img/blue-n.png"" border=""10"">","null","trial","32","","0.8,0.2","1:go_a","0",""
"null","","html-keyboard-response","498","615465","0.0-6.0-2.92","","<div style=""font-size:60px;"">+</div>","null","","","","","","",""
"1323.3999999761581","","image-keyboard-response","499","616789","0.0-6.0-0.93","","img/green.png","32","trial","null","false","0,1","4:nogo_d","",""
"null","","html-keyboard-response","500","617792","0.0-6.0-1.93","","<img src=""img/green-n.png"" border=""10"">","null","trial","null","","0,1","4:nogo_d","0",""
"null","","html-keyboard-response","501","618805","0.0-6.0-2.93","","<div style=""font-size:60px;"">+</div>","null","","","","","","",""
"399.30000001192093","","image-keyboard-response","502","619205","0.0-6.0-0.94","","img/yellow.png","32","trial","null","false","0.2,0.8","2:nogo_b","",""
"null","","html-keyboard-response","503","620212","0.0-6.0-1.94","","<img src=""img/yellow-r.png"" border=""10"">","null","trial","null","","0.2,0.8","2:nogo_b","1",""
"null","","html-keyboard-response","504","621220","0.0-6.0-2.94","","<div style=""font-size:60px;"">+</div>","null","","","","","","",""
"504.2000000178814","","image-keyboard-response","505","621725","0.0-6.0-0.95","","img/pink.png","32","trial","32","true","1,0","3:go_c","",""
"null","","html-keyboard-response","506","622733","0.0-6.0-1.95","","<img src=""img/pink-r.png"" border=""10"">","null","trial","32","","1,0","3:go_c","1",""
"null","","html-keyboard-response","507","623738","0.0-6.0-2.95","","<div style=""font-size:60px;"">+</div>","null","","","","","","",""
"null","","image-keyboard-response","508","625250","0.0-6.0-0.96","","img/green.png","null","trial","null","true","0,1","4:nogo_d","",""
"null","","html-keyboard-response","509","626267","0.0-6.0-1.96","","<img src=""img/green-r.png"">","null","trial","null","","0,1","4:nogo_d","1",""
"null","","html-keyboard-response","510","627282","0.0-6.0-2.96","","<div style=""font-size:60px;"">+</div>","null","","","","","","",""
"745.9000000059605","","image-keyboard-response","511","628029","0.0-6.0-0.97","","img/pink.png","32","trial","32","true","1,0","3:go_c","",""
"null","","html-keyboard-response","512","629044","0.0-6.0-1.97","","<img src=""img/pink-r.png"" border=""10"">","null","trial","32","","1,0","3:go_c","1",""
"null","","html-keyboard-response","513","630055","0.0-6.0-2.97","","<div style=""font-size:60px;"">+</div>","null","","","","","","",""
"null","","image-keyboard-response","514","631558","0.0-6.0-0.98","","img/yellow.png","null","trial","null","true","0.2,0.8","2:nogo_b","",""
"null","","html-keyboard-response","515","632569","0.0-6.0-1.98","","<img src=""img/yellow-n.png"">","null","trial","null","","0.2,0.8","2:nogo_b","0",""
"null","","html-keyboard-response","516","633570","0.0-6.0-2.98","","<div style=""font-size:60px;"">+</div>","null","","","","","","",""
"null","","image-keyboard-response","517","635083","0.0-6.0-0.99","","img/blue.png","null","trial","32","false","0.8,0.2","1:go_a","",""
"null","","html-keyboard-response","518","636091","0.0-6.0-1.99","","<img src=""img/blue-n.png"">","null","trial","32","","0.8,0.2","1:go_a","0",""
"null","","html-keyboard-response","519","637099","0.0-6.0-2.99","","<div style=""font-size:60px;"">+</div>","null","","","","","","",""
"null","","image-keyboard-response","520","638603","0.0-6.0-0.100","","img/yellow.png","null","trial","null","true","0.2,0.8","2:nogo_b","",""
"null","","html-keyboard-response","521","639608","0.0-6.0-1.100","","<img src=""img/yellow-r.png"">","null","trial","null","","0.2,0.8","2:nogo_b","1",""
"null","","html-keyboard-response","522","640623","0.0-6.0-2.100","","<div style=""font-size:60px;"">+</div>","null","","","","","","",""
"1069.5","","image-keyboard-response","523","641693","0.0-6.0-0.101","","img/green.png","32","trial","null","false","0,1","4:nogo_d","",""
"null","","html-keyboard-response","524","642699","0.0-6.0-1.101","","<img src=""img/green-n.png"" border=""10"">","null","trial","null","","0,1","4:nogo_d","0",""
"null","","html-keyboard-response","525","643705","0.0-6.0-2.101","","<div style=""font-size:60px;"">+</div>","null","","","","","","",""
"1202.4000000059605","","image-keyboard-response","526","644909","0.0-6.0-0.102","","img/blue.png","32","trial","32","true","0.8,0.2","1:go_a","",""
"null","","html-keyboard-response","527","645919","0.0-6.0-1.102","","<img src=""img/blue-r.png"" border=""10"">","null","trial","32","","0.8,0.2","1:go_a","1",""
"null","","html-keyboard-response","528","646925","0.0-6.0-2.102","","<div style=""font-size:60px;"">+</div>","null","","","","","","",""
"542.6999999880791","","image-keyboard-response","529","647468","0.0-6.0-0.103","","img/pink.png","32","trial","32","true","1,0","3:go_c","",""
"null","","html-keyboard-response","530","648478","0.0-6.0-1.103","","<img src=""img/pink-r.png"" border=""10"">","null","trial","32","","1,0","3:go_c","1",""
"null","","html-keyboard-response","531","649492","0.0-6.0-2.103","","<div style=""font-size:60px;"">+</div>","null","","","","","","",""
"624.3999999761581","","image-keyboard-response","532","650117","0.0-6.0-0.104","","img/pink.png","32","trial","32","true","1,0","3:go_c","",""
"null","","html-keyboard-response","533","651133","0.0-6.0-1.104","","<img src=""img/pink-r.png"" border=""10"">","null","trial","32","","1,0","3:go_c","1",""
"null","","html-keyboard-response","534","652148","0.0-6.0-2.104","","<div style=""font-size:60px;"">+</div>","null","","","","","","",""
"864.0999999940395","","image-keyboard-response","535","653013","0.0-6.0-0.105","","img/green.png","32","trial","null","false","0,1","4:nogo_d","",""
"null","","html-keyboard-response","536","654022","0.0-6.0-1.105","","<img src=""img/green-n.png"" border=""10"">","null","trial","null","","0,1","4:nogo_d","0",""
"null","","html-keyboard-response","537","655030","0.0-6.0-2.105","","<div style=""font-size:60px;"">+</div>","null","","","","","","",""
"725.5999999940395","","image-keyboard-response","538","655749","0.0-6.0-0.106","","img/blue.png","32","trial","32","true","0.8,0.2","1:go_a","",""
"null","","html-keyboard-response","539","656755","0.0-6.0-1.106","","<img src=""img/blue-n.png"" border=""10"">","null","trial","32","","0.8,0.2","1:go_a","0",""
"null","","html-keyboard-response","540","657768","0.0-6.0-2.106","","<div style=""font-size:60px;"">+</div>","null","","","","","","",""
"412.40000000596046","","image-keyboard-response","541","658182","0.0-6.0-0.107","","img/yellow.png","32","trial","null","false","0.2,0.8","2:nogo_b","",""
"null","","html-keyboard-response","542","659195","0.0-6.0-1.107","","<img src=""img/yellow-n.png"" border=""10"">","null","trial","null","","0.2,0.8","2:nogo_b","0",""
"null","","html-keyboard-response","543","660199","0.0-6.0-2.107","","<div style=""font-size:60px;"">+</div>","null","","","","","","",""
"1054.1000000238419","","image-keyboard-response","544","661254","0.0-6.0-0.108","","img/green.png","32","trial","null","false","0,1","4:nogo_d","",""
"null","","html-keyboard-response","545","662262","0.0-6.0-1.108","","<img src=""img/green-n.png"" border=""10"">","null","trial","null","","0,1","4:nogo_d","0",""
"null","","html-keyboard-response","546","663263","0.0-6.0-2.108","","<div style=""font-size:60px;"">+</div>","null","","","","","","",""
"629.6999999880791","","image-keyboard-response","547","663894","0.0-6.0-0.109","","img/pink.png","32","trial","32","true","1,0","3:go_c","",""
"null","","html-keyboard-response","548","664903","0.0-6.0-1.109","","<img src=""img/pink-r.png"" border=""10"">","null","trial","32","","1,0","3:go_c","1",""
"null","","html-keyboard-response","549","665918","0.0-6.0-2.109","","<div style=""font-size:60px;"">+</div>","null","","","","","","",""
"614","","image-keyboard-response","550","666533","0.0-6.0-0.110","","img/blue.png","32","trial","32","true","0.8,0.2","1:go_a","",""
"null","","html-keyboard-response","551","667540","0.0-6.0-1.110","","<img src=""img/blue-r.png"" border=""10"">","null","trial","32","","0.8,0.2","1:go_a","1",""
"null","","html-keyboard-response","552","668545","0.0-6.0-2.110","","<div style=""font-size:60px;"">+</div>","null","","","","","","",""
"627.7000000178814","","image-keyboard-response","553","669173","0.0-6.0-0.111","","img/yellow.png","32","trial","null","false","0.2,0.8","2:nogo_b","",""
"null","","html-keyboard-response","554","670175","0.0-6.0-1.111","","<img src=""img/yellow-n.png"" border=""10"">","null","trial","null","","0.2,0.8","2:nogo_b","0",""
"null","","html-keyboard-response","555","671182","0.0-6.0-2.111","","<div style=""font-size:60px;"">+</div>","null","","","","","","",""
"439","","image-keyboard-response","556","671622","0.0-6.0-0.112","","img/blue.png","32","trial","32","true","0.8,0.2","1:go_a","",""
"null","","html-keyboard-response","557","672629","0.0-6.0-1.112","","<img src=""img/blue-r.png"" border=""10"">","null","trial","32","","0.8,0.2","1:go_a","1",""
"null","","html-keyboard-response","558","673641","0.0-6.0-2.112","","<div style=""font-size:60px;"">+</div>","null","","","","","","",""
"491.5","","image-keyboard-response","559","674134","0.0-6.0-0.113","","img/pink.png","32","trial","32","true","1,0","3:go_c","",""
"null","","html-keyboard-response","560","675149","0.0-6.0-1.113","","<img src=""img/pink-r.png"" border=""10"">","null","trial","32","","1,0","3:go_c","1",""
"null","","html-keyboard-response","561","676152","0.0-6.0-2.113","","<div style=""font-size:60px;"">+</div>","null","","","","","","",""
"null","","image-keyboard-response","562","677657","0.0-6.0-0.114","","img/green.png","null","trial","null","true","0,1","4:nogo_d","",""
"null","","html-keyboard-response","563","678667","0.0-6.0-1.114","","<img src=""img/green-r.png"">","null","trial","null","","0,1","4:nogo_d","1",""
"null","","html-keyboard-response","564","679668","0.0-6.0-2.114","","<div style=""font-size:60px;"">+</div>","null","","","","","","",""
"null","","image-keyboard-response","565","681184","0.0-6.0-0.115","","img/yellow.png","null","trial","null","true","0.2,0.8","2:nogo_b","",""
"null","","html-keyboard-response","566","682193","0.0-6.0-1.115","","<img src=""img/yellow-n.png"">","null","trial","null","","0.2,0.8","2:nogo_b","0",""
"null","","html-keyboard-response","567","683204","0.0-6.0-2.115","","<div style=""font-size:60px;"">+</div>","null","","","","","","",""
"872.9000000059605","","image-keyboard-response","568","684078","0.0-6.0-0.116","","img/yellow.png","32","trial","null","false","0.2,0.8","2:nogo_b","",""
"null","","html-keyboard-response","569","685095","0.0-6.0-1.116","","<img src=""img/yellow-n.png"" border=""10"">","null","trial","null","","0.2,0.8","2:nogo_b","0",""
"null","","html-keyboard-response","570","686098","0.0-6.0-2.116","","<div style=""font-size:60px;"">+</div>","null","","","","","","",""
"603","","image-keyboard-response","571","686702","0.0-6.0-0.117","","img/pink.png","32","trial","32","true","1,0","3:go_c","",""
"null","","html-keyboard-response","572","687712","0.0-6.0-1.117","","<img src=""img/pink-r.png"" border=""10"">","null","trial","32","","1,0","3:go_c","1",""
"null","","html-keyboard-response","573","688714","0.0-6.0-2.117","","<div style=""font-size:60px;"">+</div>","null","","","","","","",""
"null","","image-keyboard-response","574","690225","0.0-6.0-0.118","","img/green.png","null","trial","null","true","0,1","4:nogo_d","",""
"null","","html-keyboard-response","575","691230","0.0-6.0-1.118","","<img src=""img/green-r.png"">","null","trial","null","","0,1","4:nogo_d","1",""
"null","","html-keyboard-response","576","692238","0.0-6.0-2.118","","<div style=""font-size:60px;"">+</div>","null","","","","","","",""
"598.8999999761581","","image-keyboard-response","577","692838","0.0-6.0-0.119","","img/blue.png","32","trial","32","true","0.8,0.2","1:go_a","",""
"null","","html-keyboard-response","578","693843","0.0-6.0-1.119","","<img src=""img/blue-r.png"" border=""10"">","null","trial","32","","0.8,0.2","1:go_a","1",""
"null","","html-keyboard-response","579","694855","0.0-6.0-2.119","","<div style=""font-size:60px;"">+</div>","null","","","","","","",""
"3831.2999999821186","","instructions","580","698687","0.0-7.0","[{""page_index"":0,""viewing_time"":3831}]","","","","","","","","",""
"957.5","","image-keyboard-response","581","699645","0.0-8.0-0.0","","img/grey.png","32","trial","32","true","0.8,0.2","1:go_a","",""
"null","","html-keyboard-response","582","700648","0.0-8.0-1.0","","<img src=""img/grey-r.png"" border=""10"">","null","trial","32","","0.8,0.2","1:go_a","1",""
"null","","html-keyboard-response","583","701649","0.0-8.0-2.0","","<div style=""font-size:60px;"">+</div>","null","","","","","","",""
"875.8999999761581","","image-keyboard-response","584","702526","0.0-8.0-0.1","","img/purple.png","32","trial","null","false","0.2,0.8","2:nogo_b","",""
"null","","html-keyboard-response","585","703539","0.0-8.0-1.1","","<img src=""img/purple-n.png"" border=""10"">","null","trial","null","","0.2,0.8","2:nogo_b","0",""
"null","","html-keyboard-response","586","704549","0.0-8.0-2.1","","<div style=""font-size:60px;"">+</div>","null","","","","","","",""
"591.6999999880791","","image-keyboard-response","587","705142","0.0-8.0-0.2","","img/green.png","32","trial","null","false","0.2,0.8","4:nogo_d","",""
"null","","html-keyboard-response","588","706146","0.0-8.0-1.2","","<img src=""img/green-n.png"" border=""10"">","null","trial","null","","0.2,0.8","4:nogo_d","0",""
"null","","html-keyboard-response","589","707152","0.0-8.0-2.2","","<div style=""font-size:60px;"">+</div>","null","","","","","","",""
"757","","image-keyboard-response","590","707910","0.0-8.0-0.3","","img/blue.png","32","trial","32","true","0.8,0.2","3:go_c","",""
"null","","html-keyboard-response","591","708916","0.0-8.0-1.3","","<img src=""img/blue-r.png"" border=""10"">","null","trial","32","","0.8,0.2","3:go_c","1",""
"null","","html-keyboard-response","592","709917","0.0-8.0-2.3","","<div style=""font-size:60px;"">+</div>","null","","","","","","",""
"432.2999999821186","","image-keyboard-response","593","710350","0.0-8.0-0.4","","img/grey.png","32","trial","32","true","0.8,0.2","1:go_a","",""
"null","","html-keyboard-response","594","711361","0.0-8.0-1.4","","<img src=""img/grey-r.png"" border=""10"">","null","trial","32","","0.8,0.2","1:go_a","1",""
"null","","html-keyboard-response","595","712366","0.0-8.0-2.4","","<div style=""font-size:60px;"">+</div>","null","","","","","","",""
"null","","image-keyboard-response","596","713874","0.0-8.0-0.5","","img/purple.png","null","trial","null","true","0.2,0.8","2:nogo_b","",""
"null","","html-keyboard-response","597","714888","0.0-8.0-1.5","","<img src=""img/purple-r.png"">","null","trial","null","","0.2,0.8","2:nogo_b","1",""
"null","","html-keyboard-response","598","715912","0.0-8.0-2.5","","<div style=""font-size:60px;"">+</div>","null","","","","","","",""
"668.0999999940395","","image-keyboard-response","599","716581","0.0-8.0-0.6","","img/blue.png","32","trial","32","true","0.8,0.2","3:go_c","",""
"null","","html-keyboard-response","600","717595","0.0-8.0-1.6","","<img src=""img/blue-r.png"" border=""10"">","null","trial","32","","0.8,0.2","3:go_c","1",""
"null","","html-keyboard-response","601","718603","0.0-8.0-2.6","","<div style=""font-size:60px;"">+</div>","null","","","","","","",""
"null","","image-keyboard-response","602","720118","0.0-8.0-0.7","","img/green.png","null","trial","null","true","0.2,0.8","4:nogo_d","",""
"null","","html-keyboard-response","603","721120","0.0-8.0-1.7","","<img src=""img/green-r.png"">","null","trial","null","","0.2,0.8","4:nogo_d","1",""
"null","","html-keyboard-response","604","722136","0.0-8.0-2.7","","<div style=""font-size:60px;"">+</div>","null","","","","","","",""
"820.0999999940395","","image-keyboard-response","605","722958","0.0-8.0-0.8","","img/blue.png","32","trial","32","true","0.8,0.2","3:go_c","",""
"null","","html-keyboard-response","606","723975","0.0-8.0-1.8","","<img src=""img/blue-r.png"" border=""10"">","null","trial","32","","0.8,0.2","3:go_c","1",""
"null","","html-keyboard-response","607","724985","0.0-8.0-2.8","","<div style=""font-size:60px;"">+</div>","null","","","","","","",""
"667.0999999940395","","image-keyboard-response","608","725653","0.0-8.0-0.9","","img/green.png","32","trial","null","false","0.2,0.8","4:nogo_d","",""
"null","","html-keyboard-response","609","726657","0.0-8.0-1.9","","<img src=""img/green-r.png"" border=""10"">","null","trial","null","","0.2,0.8","4:nogo_d","1",""
"null","","html-keyboard-response","610","727671","0.0-8.0-2.9","","<div style=""font-size:60px;"">+</div>","null","","","","","","",""
"581","","image-keyboard-response","611","728253","0.0-8.0-0.10","","img/grey.png","32","trial","32","true","0.8,0.2","1:go_a","",""
"null","","html-keyboard-response","612","729268","0.0-8.0-1.10","","<img src=""img/grey-n.png"" border=""10"">","null","trial","32","","0.8,0.2","1:go_a","0",""
"null","","html-keyboard-response","613","730272","0.0-8.0-2.10","","<div style=""font-size:60px;"">+</div>","null","","","","","","",""
"null","","image-keyboard-response","614","731787","0.0-8.0-0.11","","img/purple.png","null","trial","null","true","0.2,0.8","2:nogo_b","",""
"null","","html-keyboard-response","615","732803","0.0-8.0-1.11","","<img src=""img/purple-r.png"">","null","trial","null","","0.2,0.8","2:nogo_b","1",""
"null","","html-keyboard-response","616","733815","0.0-8.0-2.11","","<div style=""font-size:60px;"">+</div>","null","","","","","","",""
"820.9000000059605","","image-keyboard-response","617","734637","0.0-8.0-0.12","","img/blue.png","32","trial","32","true","0.8,0.2","3:go_c","",""
"null","","html-keyboard-response","618","735650","0.0-8.0-1.12","","<img src=""img/blue-n.png"" border=""10"">","null","trial","32","","0.8,0.2","3:go_c","0",""
"null","","html-keyboard-response","619","736660","0.0-8.0-2.12","","<div style=""font-size:60px;"">+</div>","null","","","","","","",""
"null","","image-keyboard-response","620","738169","0.0-8.0-0.13","","img/purple.png","null","trial","null","true","0.2,0.8","2:nogo_b","",""
"null","","html-keyboard-response","621","739178","0.0-8.0-1.13","","<img src=""img/purple-r.png"">","null","trial","null","","0.2,0.8","2:nogo_b","1",""
"null","","html-keyboard-response","622","740183","0.0-8.0-2.13","","<div style=""font-size:60px;"">+</div>","null","","","","","","",""
"null","","image-keyboard-response","623","741685","0.0-8.0-0.14","","img/green.png","null","trial","null","true","0.2,0.8","4:nogo_d","",""
"null","","html-keyboard-response","624","742687","0.0-8.0-1.14","","<img src=""img/green-r.png"">","null","trial","null","","0.2,0.8","4:nogo_d","1",""
"null","","html-keyboard-response","625","743702","0.0-8.0-2.14","","<div style=""font-size:60px;"">+</div>","null","","","","","","",""
"518.1999999880791","","image-keyboard-response","626","744221","0.0-8.0-0.15","","img/grey.png","32","trial","32","true","0.8,0.2","1:go_a","",""
"null","","html-keyboard-response","627","745227","0.0-8.0-1.15","","<img src=""img/grey-r.png"" border=""10"">","null","trial","32","","0.8,0.2","1:go_a","1",""
"null","","html-keyboard-response","628","746237","0.0-8.0-2.15","","<div style=""font-size:60px;"">+</div>","null","","","","","","",""
"415.59999999403954","","image-keyboard-response","629","746653","0.0-8.0-0.16","","img/blue.png","32","trial","32","true","0.8,0.2","3:go_c","",""
"null","","html-keyboard-response","630","747655","0.0-8.0-1.16","","<img src=""img/blue-r.png"" border=""10"">","null","trial","32","","0.8,0.2","3:go_c","1",""
"null","","html-keyboard-response","631","748661","0.0-8.0-2.16","","<div style=""font-size:60px;"">+</div>","null","","","","","","",""
"null","","image-keyboard-response","632","750173","0.0-8.0-0.17","","img/purple.png","null","trial","null","true","0.2,0.8","2:nogo_b","",""
"null","","html-keyboard-response","633","751178","0.0-8.0-1.17","","<img src=""img/purple-n.png"">","null","trial","null","","0.2,0.8","2:nogo_b","0",""
"null","","html-keyboard-response","634","752185","0.0-8.0-2.17","","<div style=""font-size:60px;"">+</div>","null","","","","","","",""
"null","","image-keyboard-response","635","753695","0.0-8.0-0.18","","img/green.png","null","trial","null","true","0.2,0.8","4:nogo_d","",""
"null","","html-keyboard-response","636","754699","0.0-8.0-1.18","","<img src=""img/green-r.png"">","null","trial","null","","0.2,0.8","4:nogo_d","1",""
"null","","html-keyboard-response","637","755713","0.0-8.0-2.18","","<div style=""font-size:60px;"">+</div>","null","","","","","","",""
"426.69999998807907","","image-keyboard-response","638","756141","0.0-8.0-0.19","","img/grey.png","32","trial","32","true","0.8,0.2","1:go_a","",""
"null","","html-keyboard-response","639","757156","0.0-8.0-1.19","","<img src=""img/grey-r.png"" border=""10"">","null","trial","32","","0.8,0.2","1:go_a","1",""
"null","","html-keyboard-response","640","758158","0.0-8.0-2.19","","<div style=""font-size:60px;"">+</div>","null","","","","","","",""
"366.59999999403954","","image-keyboard-response","641","758525","0.0-8.0-0.20","","img/blue.png","32","trial","32","true","0.8,0.2","3:go_c","",""
"null","","html-keyboard-response","642","759530","0.0-8.0-1.20","","<img src=""img/blue-r.png"" border=""10"">","null","trial","32","","0.8,0.2","3:go_c","1",""
"null","","html-keyboard-response","643","760540","0.0-8.0-2.20","","<div style=""font-size:60px;"">+</div>","null","","","","","","",""
"null","","image-keyboard-response","644","762051","0.0-8.0-0.21","","img/green.png","null","trial","null","true","0.2,0.8","4:nogo_d","",""
"null","","html-keyboard-response","645","763054","0.0-8.0-1.21","","<img src=""img/green-r.png"">","null","trial","null","","0.2,0.8","4:nogo_d","1",""
"null","","html-keyboard-response","646","764066","0.0-8.0-2.21","","<div style=""font-size:60px;"">+</div>","null","","","","","","",""
"null","","image-keyboard-response","647","765567","0.0-8.0-0.22","","img/purple.png","null","trial","null","true","0.2,0.8","2:nogo_b","",""
"null","","html-keyboard-response","648","766581","0.0-8.0-1.22","","<img src=""img/purple-r.png"">","null","trial","null","","0.2,0.8","2:nogo_b","1",""
"null","","html-keyboard-response","649","767585","0.0-8.0-2.22","","<div style=""font-size:60px;"">+</div>","null","","","","","","",""
"578.7000000178814","","image-keyboard-response","650","768165","0.0-8.0-0.23","","img/grey.png","32","trial","32","true","0.8,0.2","1:go_a","",""
"null","","html-keyboard-response","651","769167","0.0-8.0-1.23","","<img src=""img/grey-n.png"" border=""10"">","null","trial","32","","0.8,0.2","1:go_a","0",""
"null","","html-keyboard-response","652","770179","0.0-8.0-2.23","","<div style=""font-size:60px;"">+</div>","null","","","","","","",""
"913.6999999880791","","image-keyboard-response","653","771093","0.0-8.0-0.24","","img/purple.png","32","trial","null","false","0.2,0.8","2:nogo_b","",""
"null","","html-keyboard-response","654","772100","0.0-8.0-1.24","","<img src=""img/purple-r.png"" border=""10"">","null","trial","null","","0.2,0.8","2:nogo_b","1",""
"null","","html-keyboard-response","655","773111","0.0-8.0-2.24","","<div style=""font-size:60px;"">+</div>","null","","","","","","",""
"757.3000000119209","","image-keyboard-response","656","773869","0.0-8.0-0.25","","img/grey.png","32","trial","32","true","0.8,0.2","1:go_a","",""
"null","","html-keyboard-response","657","774886","0.0-8.0-1.25","","<img src=""img/grey-r.png"" border=""10"">","null","trial","32","","0.8,0.2","1:go_a","1",""
"null","","html-keyboard-response","658","775897","0.0-8.0-2.25","","<div style=""font-size:60px;"">+</div>","null","","","","","","",""
"null","","image-keyboard-response","659","777407","0.0-8.0-0.26","","img/green.png","null","trial","null","true","0.2,0.8","4:nogo_d","",""
"null","","html-keyboard-response","660","778423","0.0-8.0-1.26","","<img src=""img/green-r.png"">","null","trial","null","","0.2,0.8","4:nogo_d","1",""
"null","","html-keyboard-response","661","779425","0.0-8.0-2.26","","<div style=""font-size:60px;"">+</div>","null","","","","","","",""
"507.40000000596046","","image-keyboard-response","662","779933","0.0-8.0-0.27","","img/blue.png","32","trial","32","true","0.8,0.2","3:go_c","",""
"null","","html-keyboard-response","663","780949","0.0-8.0-1.27","","<img src=""img/blue-r.png"" border=""10"">","null","trial","32","","0.8,0.2","3:go_c","1",""
"null","","html-keyboard-response","664","781951","0.0-8.0-2.27","","<div style=""font-size:60px;"">+</div>","null","","","","","","",""
"453","","image-keyboard-response","665","782405","0.0-8.0-0.28","","img/grey.png","32","trial","32","true","0.8,0.2","1:go_a","",""
"null","","html-keyboard-response","666","783421","0.0-8.0-1.28","","<img src=""img/grey-n.png"" border=""10"">","null","trial","32","","0.8,0.2","1:go_a","0",""
"null","","html-keyboard-response","667","784432","0.0-8.0-2.28","","<div style=""font-size:60px;"">+</div>","null","","","","","","",""
"1196.2999999821186","","image-keyboard-response","668","785629","0.0-8.0-0.29","","img/purple.png","32","trial","null","false","0.2,0.8","2:nogo_b","",""
"null","","html-keyboard-response","669","786634","0.0-8.0-1.29","","<img src=""img/purple-r.png"" border=""10"">","null","trial","null","","0.2,0.8","2:nogo_b","1",""
"null","","html-keyboard-response","670","787639","0.0-8.0-2.29","","<div style=""font-size:60px;"">+</div>","null","","","","","","",""
"908.6000000238419","","image-keyboard-response","671","788549","0.0-8.0-0.30","","img/blue.png","32","trial","32","true","0.8,0.2","3:go_c","",""
"null","","html-keyboard-response","672","789553","0.0-8.0-1.30","","<img src=""img/blue-n.png"" border=""10"">","null","trial","32","","0.8,0.2","3:go_c","0",""
"null","","html-keyboard-response","673","790559","0.0-8.0-2.30","","<div style=""font-size:60px;"">+</div>","null","","","","","","",""
"null","","image-keyboard-response","674","792067","0.0-8.0-0.31","","img/green.png","null","trial","null","true","0.2,0.8","4:nogo_d","",""
"null","","html-keyboard-response","675","793072","0.0-8.0-1.31","","<img src=""img/green-r.png"">","null","trial","null","","0.2,0.8","4:nogo_d","1",""
"null","","html-keyboard-response","676","794085","0.0-8.0-2.31","","<div style=""font-size:60px;"">+</div>","null","","","","","","",""
"327.19999998807907","","image-keyboard-response","677","794413","0.0-8.0-0.32","","img/green.png","32","trial","null","false","0.2,0.8","4:nogo_d","",""
"null","","html-keyboard-response","678","795424","0.0-8.0-1.32","","<img src=""img/green-r.png"" border=""10"">","null","trial","null","","0.2,0.8","4:nogo_d","1",""
"null","","html-keyboard-response","679","796430","0.0-8.0-2.32","","<div style=""font-size:60px;"">+</div>","null","","","","","","",""
