"rt","url","trial_type","trial_index","time_elapsed","internal_node_id","view_history","stimulus","key_press","test_part","correct_response","correct","use_rew","which_stim","reward","responses"
"13772.044999990612","consent.html","external-html","0","13922","0.0-0.0","","","","","","","","","",""
"98791.67999999481","","instructions","1","112719","0.0-1.0","[{""page_index"":0,""viewing_time"":2915.789999999106},{""page_index"":1,""viewing_time"":23786.209999991115},{""page_index"":2,""viewing_time"":6521.220000024186},{""page_index"":3,""viewing_time"":22355.569999985164},{""page_index"":4,""viewing_time"":11333.140000002459},{""page_index"":5,""viewing_time"":25134.554999996908},{""page_index"":6,""viewing_time"":6744.180000008782}]","","","","","","","","",""
"825.9700000053272","","image-keyboard-response","2","113547","0.0-2.0-0.0","","img/test1.PNG","32","practice","32","true","","","",""
"null","","html-keyboard-response","3","114551","0.0-2.0-1.0","","<img src=""img/test1-reward.PNG"" border=""10px; grey"">","null","","","","","","",""
"null","","html-keyboard-response","4","115554","0.0-2.0-2.0","","<div style=""font-size:60px;"">+</div>","null","","","","","","",""
"null","","image-keyboard-response","5","117058","0.0-2.0-0.1","","img/test2.PNG","null","practice","null","true","","","",""
"null","","html-keyboard-response","6","118061","0.0-2.0-1.1","","<img src=""img/test2-reward.PNG"">","null","","","","","","",""
"null","","html-keyboard-response","7","119063","0.0-2.0-2.1","","<div style=""font-size:60px;"">+</div>","null","","","","","","",""
"850.7399999944028","","image-keyboard-response","8","119916","0.0-2.0-0.2","","img/test3.PNG","32","practice","null","false","","","",""
"null","","html-keyboard-response","9","120919","0.0-2.0-1.2","","<img src=""img/test3-neutral.PNG"" border=""10px; grey"">","null","","","","","","",""
"null","","html-keyboard-response","10","121922","0.0-2.0-2.2","","<div style=""font-size:60px;"">+</div>","null","","","","","","",""
"576.7200000118464","","image-keyboard-response","11","122500","0.0-2.0-0.3","","img/test2.PNG","32","practice","null","false","","","",""
"null","","html-keyboard-response","12","123507","0.0-2.0-1.3","","<img src=""img/test2-neutral.PNG"" border=""10px; grey"">","null","","","","","","",""
"null","","html-keyboard-response","13","124513","0.0-2.0-2.3","","<div style=""font-size:60px;"">+</div>","null","","","","","","",""
"475.6749999942258","","image-keyboard-response","14","124990","0.0-2.0-0.4","","img/test1.PNG","32","practice","32","true","","","",""
"null","","html-keyboard-response","15","125996","0.0-2.0-1.4","","<img src=""img/test1-reward.PNG"" border=""10px; grey"">","null","","","","","","",""
"null","","html-keyboard-response","16","127001","0.0-2.0-2.4","","<div style=""font-size:60px;"">+</div>","null","","","","","","",""
"null","","image-keyboard-response","17","128508","0.0-2.0-0.5","","img/test3.PNG","null","practice","null","true","","","",""
"null","","html-keyboard-response","18","129514","0.0-2.0-1.5","","<img src=""img/test3-reward.PNG"">","null","","","","","","",""
"null","","html-keyboard-response","19","130519","0.0-2.0-2.5","","<div style=""font-size:60px;"">+</div>","null","","","","","","",""
"401.09500000835396","","image-keyboard-response","20","130922","0.0-2.0-0.6","","img/test1.PNG","32","practice","32","true","","","",""
"null","","html-keyboard-response","21","131927","0.0-2.0-1.6","","<img src=""img/test1-reward.PNG"" border=""10px; grey"">","null","","","","","","",""
"null","","html-keyboard-response","22","132930","0.0-2.0-2.6","","<div style=""font-size:60px;"">+</div>","null","","","","","","",""
"383.5749999852851","","image-keyboard-response","23","133315","0.0-2.0-0.7","","img/test2.PNG","32","practice","null","false","","","",""
"null","","html-keyboard-response","24","134319","0.0-2.0-1.7","","<img src=""img/test2-neutral.PNG"" border=""10px; grey"">","null","","","","","","",""
"null","","html-keyboard-response","25","135321","0.0-2.0-2.7","","<div style=""font-size:60px;"">+</div>","null","","","","","","",""
"632.660000002943","","image-keyboard-response","26","135955","0.0-2.0-0.8","","img/test3.PNG","32","practice","null","false","","","",""
"null","","html-keyboard-response","27","136962","0.0-2.0-1.8","","<img src=""img/test3-neutral.PNG"" border=""10px; grey"">","null","","","","","","",""
"null","","html-keyboard-response","28","137967","0.0-2.0-2.8","","<div style=""font-size:60px;"">+</div>","null","","","","","","",""
"861.8149999820162","","image-keyboard-response","29","138830","0.0-2.0-0.9","","img/test3.PNG","32","practice","null","false","","","",""
"null","","html-keyboard-response","30","139834","0.0-2.0-1.9","","<img src=""img/test3-neutral.PNG"" border=""10px; grey"">","null","","","","","","",""
"null","","html-keyboard-response","31","140837","0.0-2.0-2.9","","<div style=""font-size:60px;"">+</div>","null","","","","","","",""
"732.2350000031292","","image-keyboard-response","32","141571","0.0-2.0-0.10","","img/test2.PNG","32","practice","null","false","","","",""
"null","","html-keyboard-response","33","142576","0.0-2.0-1.10","","<img src=""img/test2-neutral.PNG"" border=""10px; grey"">","null","","","","","","",""
"null","","html-keyboard-response","34","143579","0.0-2.0-2.10","","<div style=""font-size:60px;"">+</div>","null","","","","","","",""
"388.47000000532717","","image-keyboard-response","35","143968","0.0-2.0-0.11","","img/test1.PNG","32","practice","32","true","","","",""
"null","","html-keyboard-response","36","144975","0.0-2.0-1.11","","<img src=""img/test1-reward.PNG"" border=""10px; grey"">","null","","","","","","",""
"null","","html-keyboard-response","37","145976","0.0-2.0-2.11","","<div style=""font-size:60px;"">+</div>","null","","","","","","",""
"12349.130000016885","","instructions","38","158326","0.0-3.0","[{""page_index"":0,""viewing_time"":12348.840000020573}]","","","","","","","","",""
"1113.020000018878","","image-keyboard-response","39","159441","0.0-4.0-0.0","","img/orange.png","32","trial","32","true","0.8,0.2","1:go_a","",""
"null","","html-keyboard-response","40","160444","0.0-4.0-1.0","","<img src=""img/orange-r.png"" border=""10"">","null","trial","32","","0.8,0.2","1:go_a","1",""
"null","","html-keyboard-response","41","161450","0.0-4.0-2.0","","<div style=""font-size:60px;"">+</div>","null","","","","","","",""
"619.4599999871571","","image-keyboard-response","42","162071","0.0-4.0-0.1","","img/green.png","32","trial","null","false","0.2,0.8","2:nogo_b","",""
"null","","html-keyboard-response","43","163077","0.0-4.0-1.1","","<img src=""img/green-n.png"" border=""10"">","null","trial","null","","0.2,0.8","2:nogo_b","0",""
"null","","html-keyboard-response","44","164078","0.0-4.0-2.1","","<div style=""font-size:60px;"">+</div>","null","","","","","","",""
"475.6350000097882","","image-keyboard-response","45","164555","0.0-4.0-0.2","","img/green.png","32","trial","null","false","0.2,0.8","2:nogo_b","",""
"null","","html-keyboard-response","46","165563","0.0-4.0-1.2","","<img src=""img/green-n.png"" border=""10"">","null","trial","null","","0.2,0.8","2:nogo_b","0",""
"null","","html-keyboard-response","47","166567","0.0-4.0-2.2","","<div style=""font-size:60px;"">+</div>","null","","","","","","",""
"344.75999997812323","","image-keyboard-response","48","166913","0.0-4.0-0.3","","img/orange.png","32","trial","32","true","0.8,0.2","1:go_a","",""
"null","","html-keyboard-response","49","167920","0.0-4.0-1.3","","<img src=""img/orange-r.png"" border=""10"">","null","trial","32","","0.8,0.2","1:go_a","1",""
"null","","html-keyboard-response","50","168925","0.0-4.0-2.3","","<div style=""font-size:60px;"">+</div>","null","","","","","","",""
"null","","image-keyboard-response","51","170429","0.0-4.0-0.4","","img/green.png","null","trial","null","true","0.2,0.8","2:nogo_b","",""
"null","","html-keyboard-response","52","171432","0.0-4.0-1.4","","<img src=""img/green-r.png"">","null","trial","null","","0.2,0.8","2:nogo_b","1",""
"null","","html-keyboard-response","53","172437","0.0-4.0-2.4","","<div style=""font-size:60px;"">+</div>","null","","","","","","",""
"750.1150000025518","","image-keyboard-response","54","173189","0.0-4.0-0.5","","img/orange.png","32","trial","32","true","0.8,0.2","1:go_a","",""
"null","","html-keyboard-response","55","174195","0.0-4.0-1.5","","<img src=""img/orange-r.png"" border=""10"">","null","trial","32","","0.8,0.2","1:go_a","1",""
"null","","html-keyboard-response","56","175197","0.0-4.0-2.5","","<div style=""font-size:60px;"">+</div>","null","","","","","","",""
"509.00000002002344","","image-keyboard-response","57","175708","0.0-4.0-0.6","","img/orange.png","32","trial","32","true","0.8,0.2","1:go_a","",""
"null","","html-keyboard-response","58","176712","0.0-4.0-1.6","","<img src=""img/orange-n.png"" border=""10"">","null","trial","32","","0.8,0.2","1:go_a","0",""
"null","","html-keyboard-response","59","177718","0.0-4.0-2.6","","<div style=""font-size:60px;"">+</div>","null","","","","","","",""
"null","","image-keyboard-response","60","179223","0.0-4.0-0.7","","img/green.png","null","trial","null","true","0.2,0.8","2:nogo_b","",""
"null","","html-keyboard-response","61","180230","0.0-4.0-1.7","","<img src=""img/green-r.png"">","null","trial","null","","0.2,0.8","2:nogo_b","1",""
"null","","html-keyboard-response","62","181235","0.0-4.0-2.7","","<div style=""font-size:60px;"">+</div>","null","","","","","","",""
"null","","image-keyboard-response","63","182739","0.0-4.0-0.8","","img/green.png","null","trial","null","true","0.2,0.8","2:nogo_b","",""
"null","","html-keyboard-response","64","183741","0.0-4.0-1.8","","<img src=""img/green-n.png"">","null","trial","null","","0.2,0.8","2:nogo_b","0",""
"null","","html-keyboard-response","65","184747","0.0-4.0-2.8","","<div style=""font-size:60px;"">+</div>","null","","","","","","",""
"441.5699999954086","","image-keyboard-response","66","185190","0.0-4.0-0.9","","img/orange.png","32","trial","32","true","0.8,0.2","1:go_a","",""
"null","","html-keyboard-response","67","186195","0.0-4.0-1.9","","<img src=""img/orange-r.png"" border=""10"">","null","trial","32","","0.8,0.2","1:go_a","1",""
"null","","html-keyboard-response","68","187198","0.0-4.0-2.9","","<div style=""font-size:60px;"">+</div>","null","","","","","","",""
"null","","image-keyboard-response","69","188701","0.0-4.0-0.10","","img/green.png","null","trial","null","true","0.2,0.8","2:nogo_b","",""
"null","","html-keyboard-response","70","189712","0.0-4.0-1.10","","<img src=""img/green-r.png"">","null","trial","null","","0.2,0.8","2:nogo_b","1",""
"null","","html-keyboard-response","71","190717","0.0-4.0-2.10","","<div style=""font-size:60px;"">+</div>","null","","","","","","",""
"null","","image-keyboard-response","72","192221","0.0-4.0-0.11","","img/orange.png","null","trial","32","false","0.8,0.2","1:go_a","",""
"null","","html-keyboard-response","73","193224","0.0-4.0-1.11","","<img src=""img/orange-n.png"">","null","trial","32","","0.8,0.2","1:go_a","0",""
"null","","html-keyboard-response","74","194227","0.0-4.0-2.11","","<div style=""font-size:60px;"">+</div>","null","","","","","","",""
"578.0300000042189","","image-keyboard-response","75","194806","0.0-4.0-0.12","","img/orange.png","32","trial","32","true","0.8,0.2","1:go_a","",""
"null","","html-keyboard-response","76","195813","0.0-4.0-1.12","","<img src=""img/orange-n.png"" border=""10"">","null","trial","32","","0.8,0.2","1:go_a","0",""
"null","","html-keyboard-response","77","196819","0.0-4.0-2.12","","<div style=""font-size:60px;"">+</div>","null","","","","","","",""
"null","","image-keyboard-response","78","198323","0.0-4.0-0.13","","img/green.png","null","trial","null","true","0.2,0.8","2:nogo_b","",""
"null","","html-keyboard-response","79","199327","0.0-4.0-1.13","","<img src=""img/green-r.png"">","null","trial","null","","0.2,0.8","2:nogo_b","1",""
"null","","html-keyboard-response","80","200329","0.0-4.0-2.13","","<div style=""font-size:60px;"">+</div>","null","","","","","","",""
"null","","image-keyboard-response","81","201832","0.0-4.0-0.14","","img/green.png","null","trial","null","true","0.2,0.8","2:nogo_b","",""
"null","","html-keyboard-response","82","202839","0.0-4.0-1.14","","<img src=""img/green-r.png"">","null","trial","null","","0.2,0.8","2:nogo_b","1",""
"null","","html-keyboard-response","83","203844","0.0-4.0-2.14","","<div style=""font-size:60px;"">+</div>","null","","","","","","",""
"618.9749999903142","","image-keyboard-response","84","204464","0.0-4.0-0.15","","img/orange.png","32","trial","32","true","0.8,0.2","1:go_a","",""
"null","","html-keyboard-response","85","205468","0.0-4.0-1.15","","<img src=""img/orange-n.png"" border=""10"">","null","trial","32","","0.8,0.2","1:go_a","0",""
"null","","html-keyboard-response","86","206469","0.0-4.0-2.15","","<div style=""font-size:60px;"">+</div>","null","","","","","","",""
"1002.9949999880046","","image-keyboard-response","87","207474","0.0-4.0-0.16","","img/orange.png","32","trial","32","true","0.8,0.2","1:go_a","",""
"null","","html-keyboard-response","88","208476","0.0-4.0-1.16","","<img src=""img/orange-n.png"" border=""10"">","null","trial","32","","0.8,0.2","1:go_a","0",""
"null","","html-keyboard-response","89","209482","0.0-4.0-2.16","","<div style=""font-size:60px;"">+</div>","null","","","","","","",""
"null","","image-keyboard-response","90","210986","0.0-4.0-0.17","","img/green.png","null","trial","null","true","0.2,0.8","2:nogo_b","",""
"null","","html-keyboard-response","91","211993","0.0-4.0-1.17","","<img src=""img/green-n.png"">","null","trial","null","","0.2,0.8","2:nogo_b","0",""
"null","","html-keyboard-response","92","212997","0.0-4.0-2.17","","<div style=""font-size:60px;"">+</div>","null","","","","","","",""
"null","","image-keyboard-response","93","214501","0.0-4.0-0.18","","img/green.png","null","trial","null","true","0.2,0.8","2:nogo_b","",""
"null","","html-keyboard-response","94","215504","0.0-4.0-1.18","","<img src=""img/green-r.png"">","null","trial","null","","0.2,0.8","2:nogo_b","1",""
"null","","html-keyboard-response","95","216509","0.0-4.0-2.18","","<div style=""font-size:60px;"">+</div>","null","","","","","","",""
"513.6849999835249","","image-keyboard-response","96","217023","0.0-4.0-0.19","","img/orange.png","32","trial","32","true","0.8,0.2","1:go_a","",""
"null","","html-keyboard-response","97","218027","0.0-4.0-1.19","","<img src=""img/orange-r.png"" border=""10"">","null","trial","32","","0.8,0.2","1:go_a","1",""
"null","","html-keyboard-response","98","219030","0.0-4.0-2.19","","<div style=""font-size:60px;"">+</div>","null","","","","","","",""
"573.2999999891035","","image-keyboard-response","99","219605","0.0-4.0-0.20","","img/orange.png","32","trial","32","true","0.8,0.2","1:go_a","",""
"null","","html-keyboard-response","100","220611","0.0-4.0-1.20","","<img src=""img/orange-r.png"" border=""10"">","null","trial","32","","0.8,0.2","1:go_a","1",""
"null","","html-keyboard-response","101","221617","0.0-4.0-2.20","","<div style=""font-size:60px;"">+</div>","null","","","","","","",""
"null","","image-keyboard-response","102","223120","0.0-4.0-0.21","","img/green.png","null","trial","null","true","0.2,0.8","2:nogo_b","",""
"null","","html-keyboard-response","103","224123","0.0-4.0-1.21","","<img src=""img/green-r.png"">","null","trial","null","","0.2,0.8","2:nogo_b","1",""
"null","","html-keyboard-response","104","225128","0.0-4.0-2.21","","<div style=""font-size:60px;"">+</div>","null","","","","","","",""
"385.2900000056252","","image-keyboard-response","105","225515","0.0-4.0-0.22","","img/orange.png","32","trial","32","true","0.8,0.2","1:go_a","",""
"null","","html-keyboard-response","106","226521","0.0-4.0-1.22","","<img src=""img/orange-r.png"" border=""10"">","null","trial","32","","0.8,0.2","1:go_a","1",""
"null","","html-keyboard-response","107","227525","0.0-4.0-2.22","","<div style=""font-size:60px;"">+</div>","null","","","","","","",""
"null","","image-keyboard-response","108","229030","0.0-4.0-0.23","","img/green.png","null","trial","null","true","0.2,0.8","2:nogo_b","",""
"null","","html-keyboard-response","109","230035","0.0-4.0-1.23","","<img src=""img/green-r.png"">","null","trial","null","","0.2,0.8","2:nogo_b","1",""
"null","","html-keyboard-response","110","231041","0.0-4.0-2.23","","<div style=""font-size:60px;"">+</div>","null","","","","","","",""
"null","","image-keyboard-response","111","232542","0.0-4.0-0.24","","img/green.png","null","trial","null","true","0.2,0.8","2:nogo_b","",""
"null","","html-keyboard-response","112","233549","0.0-4.0-1.24","","<img src=""img/green-n.png"">","null","trial","null","","0.2,0.8","2:nogo_b","0",""
"null","","html-keyboard-response","113","234554","0.0-4.0-2.24","","<div style=""font-size:60px;"">+</div>","null","","","","","","",""
"336.61500000744127","","image-keyboard-response","114","234892","0.0-4.0-0.25","","img/orange.png","32","trial","32","true","0.8,0.2","1:go_a","",""
"null","","html-keyboard-response","115","235895","0.0-4.0-1.25","","<img src=""img/orange-r.png"" border=""10"">","null","trial","32","","0.8,0.2","1:go_a","1",""
"null","","html-keyboard-response","116","236901","0.0-4.0-2.25","","<div style=""font-size:60px;"">+</div>","null","","","","","","",""
"367.3549999948591","","image-keyboard-response","117","237270","0.0-4.0-0.26","","img/orange.png","32","trial","32","true","0.8,0.2","1:go_a","",""
"null","","html-keyboard-response","118","238274","0.0-4.0-1.26","","<img src=""img/orange-r.png"" border=""10"">","null","trial","32","","0.8,0.2","1:go_a","1",""
"null","","html-keyboard-response","119","239275","0.0-4.0-2.26","","<div style=""font-size:60px;"">+</div>","null","","","","","","",""
"null","","image-keyboard-response","120","240780","0.0-4.0-0.27","","img/green.png","null","trial","null","true","0.2,0.8","2:nogo_b","",""
"null","","html-keyboard-response","121","241783","0.0-4.0-1.27","","<img src=""img/green-r.png"">","null","trial","null","","0.2,0.8","2:nogo_b","1",""
"null","","html-keyboard-response","122","242789","0.0-4.0-2.27","","<div style=""font-size:60px;"">+</div>","null","","","","","","",""
"408.85000000707805","","image-keyboard-response","123","243199","0.0-4.0-0.28","","img/orange.png","32","trial","32","true","0.8,0.2","1:go_a","",""
"null","","html-keyboard-response","124","244203","0.0-4.0-1.28","","<img src=""img/orange-r.png"" border=""10"">","null","trial","32","","0.8,0.2","1:go_a","1",""
"null","","html-keyboard-response","125","245207","0.0-4.0-2.28","","<div style=""font-size:60px;"">+</div>","null","","","","","","",""
"null","","image-keyboard-response","126","246711","0.0-4.0-0.29","","img/green.png","null","trial","null","true","0.2,0.8","2:nogo_b","",""
"null","","html-keyboard-response","127","247714","0.0-4.0-1.29","","<img src=""img/green-r.png"">","null","trial","null","","0.2,0.8","2:nogo_b","1",""
"null","","html-keyboard-response","128","248716","0.0-4.0-2.29","","<div style=""font-size:60px;"">+</div>","null","","","","","","",""
"368.1849999993574","","image-keyboard-response","129","249086","0.0-4.0-0.30","","img/orange.png","32","trial","32","true","0.8,0.2","1:go_a","",""
"null","","html-keyboard-response","130","250092","0.0-4.0-1.30","","<img src=""img/orange-r.png"" border=""10"">","null","trial","32","","0.8,0.2","1:go_a","1",""
"null","","html-keyboard-response","131","251095","0.0-4.0-2.30","","<div style=""font-size:60px;"">+</div>","null","","","","","","",""
"null","","image-keyboard-response","132","252599","0.0-4.0-0.31","","img/green.png","null","trial","null","true","0.2,0.8","2:nogo_b","",""
"null","","html-keyboard-response","133","253605","0.0-4.0-1.31","","<img src=""img/green-r.png"">","null","trial","null","","0.2,0.8","2:nogo_b","1",""
"null","","html-keyboard-response","134","254609","0.0-4.0-2.31","","<div style=""font-size:60px;"">+</div>","null","","","","","","",""
"null","","image-keyboard-response","135","256115","0.0-4.0-0.32","","img/green.png","null","trial","null","true","0.2,0.8","2:nogo_b","",""
"null","","html-keyboard-response","136","257122","0.0-4.0-1.32","","<img src=""img/green-r.png"">","null","trial","null","","0.2,0.8","2:nogo_b","1",""
"null","","html-keyboard-response","137","258125","0.0-4.0-2.32","","<div style=""font-size:60px;"">+</div>","null","","","","","","",""
"378.30000001122244","","image-keyboard-response","138","258504","0.0-4.0-0.33","","img/orange.png","32","trial","32","true","0.8,0.2","1:go_a","",""
"null","","html-keyboard-response","139","259510","0.0-4.0-1.33","","<img src=""img/orange-r.png"" border=""10"">","null","trial","32","","0.8,0.2","1:go_a","1",""
"null","","html-keyboard-response","140","260514","0.0-4.0-2.33","","<div style=""font-size:60px;"">+</div>","null","","","","","","",""
"null","","image-keyboard-response","141","262018","0.0-4.0-0.34","","img/green.png","null","trial","null","true","0.2,0.8","2:nogo_b","",""
"null","","html-keyboard-response","142","263020","0.0-4.0-1.34","","<img src=""img/green-r.png"">","null","trial","null","","0.2,0.8","2:nogo_b","1",""
"null","","html-keyboard-response","143","264023","0.0-4.0-2.34","","<div style=""font-size:60px;"">+</div>","null","","","","","","",""
"387.0100000058301","","image-keyboard-response","144","264411","0.0-4.0-0.35","","img/orange.png","32","trial","32","true","0.8,0.2","1:go_a","",""
"null","","html-keyboard-response","145","265417","0.0-4.0-1.35","","<img src=""img/orange-r.png"" border=""10"">","null","trial","32","","0.8,0.2","1:go_a","1",""
"null","","html-keyboard-response","146","266422","0.0-4.0-2.35","","<div style=""font-size:60px;"">+</div>","null","","","","","","",""
"null","","image-keyboard-response","147","267927","0.0-4.0-0.36","","img/green.png","null","trial","null","true","0.2,0.8","2:nogo_b","",""
"null","","html-keyboard-response","148","268929","0.0-4.0-1.36","","<img src=""img/green-r.png"">","null","trial","null","","0.2,0.8","2:nogo_b","1",""
"null","","html-keyboard-response","149","269934","0.0-4.0-2.36","","<div style=""font-size:60px;"">+</div>","null","","","","","","",""
"376.56000000424683","","image-keyboard-response","150","270312","0.0-4.0-0.37","","img/orange.png","32","trial","32","true","0.8,0.2","1:go_a","",""
"null","","html-keyboard-response","151","271313","0.0-4.0-1.37","","<img src=""img/orange-r.png"" border=""10"">","null","trial","32","","0.8,0.2","1:go_a","1",""
"null","","html-keyboard-response","152","272315","0.0-4.0-2.37","","<div style=""font-size:60px;"">+</div>","null","","","","","","",""
"842.0199999818578","","image-keyboard-response","153","273158","0.0-4.0-0.38","","img/orange.png","32","trial","32","true","0.8,0.2","1:go_a","",""
"null","","html-keyboard-response","154","274161","0.0-4.0-1.38","","<img src=""img/orange-r.png"" border=""10"">","null","trial","32","","0.8,0.2","1:go_a","1",""
"null","","html-keyboard-response","155","275164","0.0-4.0-2.38","","<div style=""font-size:60px;"">+</div>","null","","","","","","",""
"null","","image-keyboard-response","156","276668","0.0-4.0-0.39","","img/green.png","null","trial","null","true","0.2,0.8","2:nogo_b","",""
"null","","html-keyboard-response","157","277671","0.0-4.0-1.39","","<img src=""img/green-r.png"">","null","trial","null","","0.2,0.8","2:nogo_b","1",""
"null","","html-keyboard-response","158","278674","0.0-4.0-2.39","","<div style=""font-size:60px;"">+</div>","null","","","","","","",""
"351.1149999976624","","image-keyboard-response","159","279026","0.0-4.0-0.40","","img/orange.png","32","trial","32","true","0.8,0.2","1:go_a","",""
"null","","html-keyboard-response","160","280032","0.0-4.0-1.40","","<img src=""img/orange-r.png"" border=""10"">","null","trial","32","","0.8,0.2","1:go_a","1",""
"null","","html-keyboard-response","161","281037","0.0-4.0-2.40","","<div style=""font-size:60px;"">+</div>","null","","","","","","",""
"null","","image-keyboard-response","162","282542","0.0-4.0-0.41","","img/green.png","null","trial","null","true","0.2,0.8","2:nogo_b","",""
"null","","html-keyboard-response","163","283544","0.0-4.0-1.41","","<img src=""img/green-r.png"">","null","trial","null","","0.2,0.8","2:nogo_b","1",""
"null","","html-keyboard-response","164","284549","0.0-4.0-2.41","","<div style=""font-size:60px;"">+</div>","null","","","","","","",""
"484.73500000545755","","image-keyboard-response","165","285035","0.0-4.0-0.42","","img/orange.png","32","trial","32","true","0.8,0.2","1:go_a","",""
"null","","html-keyboard-response","166","286042","0.0-4.0-1.42","","<img src=""img/orange-r.png"" border=""10"">","null","trial","32","","0.8,0.2","1:go_a","1",""
"null","","html-keyboard-response","167","287047","0.0-4.0-2.42","","<div style=""font-size:60px;"">+</div>","null","","","","","","",""
"null","","image-keyboard-response","168","288551","0.0-4.0-0.43","","img/green.png","null","trial","null","true","0.2,0.8","2:nogo_b","",""
"null","","html-keyboard-response","169","289557","0.0-4.0-1.43","","<img src=""img/green-r.png"">","null","trial","null","","0.2,0.8","2:nogo_b","1",""
"null","","html-keyboard-response","170","290562","0.0-4.0-2.43","","<div style=""font-size:60px;"">+</div>","null","","","","","","",""
"330.26499999687076","","image-keyboard-response","171","290894","0.0-4.0-0.44","","img/orange.png","32","trial","32","true","0.8,0.2","1:go_a","",""
"null","","html-keyboard-response","172","291900","0.0-4.0-1.44","","<img src=""img/orange-n.png"" border=""10"">","null","trial","32","","0.8,0.2","1:go_a","0",""
"null","","html-keyboard-response","173","292906","0.0-4.0-2.44","","<div style=""font-size:60px;"">+</div>","null","","","","","","",""
"null","","image-keyboard-response","174","294412","0.0-4.0-0.45","","img/green.png","null","trial","null","true","0.2,0.8","2:nogo_b","",""
"null","","html-keyboard-response","175","295419","0.0-4.0-1.45","","<img src=""img/green-r.png"">","null","trial","null","","0.2,0.8","2:nogo_b","1",""
"null","","html-keyboard-response","176","296423","0.0-4.0-2.45","","<div style=""font-size:60px;"">+</div>","null","","","","","","",""
"null","","image-keyboard-response","177","297927","0.0-4.0-0.46","","img/green.png","null","trial","null","true","0.2,0.8","2:nogo_b","",""
"null","","html-keyboard-response","178","298933","0.0-4.0-1.46","","<img src=""img/green-n.png"">","null","trial","null","","0.2,0.8","2:nogo_b","0",""
"null","","html-keyboard-response","179","299938","0.0-4.0-2.46","","<div style=""font-size:60px;"">+</div>","null","","","","","","",""
"770.8550000097603","","image-keyboard-response","180","300711","0.0-4.0-0.47","","img/orange.png","32","trial","32","true","0.8,0.2","1:go_a","",""
"null","","html-keyboard-response","181","301717","0.0-4.0-1.47","","<img src=""img/orange-n.png"" border=""10"">","null","trial","32","","0.8,0.2","1:go_a","0",""
"null","","html-keyboard-response","182","302720","0.0-4.0-2.47","","<div style=""font-size:60px;"">+</div>","null","","","","","","",""
"589.7800000093412","","image-keyboard-response","183","303312","0.0-4.0-0.48","","img/orange.png","32","trial","32","true","0.8,0.2","1:go_a","",""
"null","","html-keyboard-response","184","304317","0.0-4.0-1.48","","<img src=""img/orange-r.png"" border=""10"">","null","trial","32","","0.8,0.2","1:go_a","1",""
"null","","html-keyboard-response","185","305322","0.0-4.0-2.48","","<div style=""font-size:60px;"">+</div>","null","","","","","","",""
"null","","image-keyboard-response","186","306829","0.0-4.0-0.49","","img/green.png","null","trial","null","true","0.2,0.8","2:nogo_b","",""
"null","","html-keyboard-response","187","307834","0.0-4.0-1.49","","<img src=""img/green-r.png"">","null","trial","null","","0.2,0.8","2:nogo_b","1",""
"null","","html-keyboard-response","188","308839","0.0-4.0-2.49","","<div style=""font-size:60px;"">+</div>","null","","","","","","",""
"null","","image-keyboard-response","189","310345","0.0-4.0-0.50","","img/green.png","null","trial","null","true","0.2,0.8","2:nogo_b","",""
"null","","html-keyboard-response","190","311352","0.0-4.0-1.50","","<img src=""img/green-r.png"">","null","trial","null","","0.2,0.8","2:nogo_b","1",""
"null","","html-keyboard-response","191","312354","0.0-4.0-2.50","","<div style=""font-size:60px;"">+</div>","null","","","","","","",""
"368.73499999637716","","image-keyboard-response","192","312724","0.0-4.0-0.51","","img/orange.png","32","trial","32","true","0.8,0.2","1:go_a","",""
"null","","html-keyboard-response","193","313729","0.0-4.0-1.51","","<img src=""img/orange-r.png"" border=""10"">","null","trial","32","","0.8,0.2","1:go_a","1",""
"null","","html-keyboard-response","194","314735","0.0-4.0-2.51","","<div style=""font-size:60px;"">+</div>","null","","","","","","",""
"1142.939999990631","","image-keyboard-response","195","315880","0.0-4.0-0.52","","img/orange.png","32","trial","32","true","0.8,0.2","1:go_a","",""
"null","","html-keyboard-response","196","316885","0.0-4.0-1.52","","<img src=""img/orange-r.png"" border=""10"">","null","trial","32","","0.8,0.2","1:go_a","1",""
"null","","html-keyboard-response","197","317890","0.0-4.0-2.52","","<div style=""font-size:60px;"">+</div>","null","","","","","","",""
"null","","image-keyboard-response","198","319396","0.0-4.0-0.53","","img/green.png","null","trial","null","true","0.2,0.8","2:nogo_b","",""
"null","","html-keyboard-response","199","320400","0.0-4.0-1.53","","<img src=""img/green-r.png"">","null","trial","null","","0.2,0.8","2:nogo_b","1",""
"null","","html-keyboard-response","200","321401","0.0-4.0-2.53","","<div style=""font-size:60px;"">+</div>","null","","","","","","",""
"1071.9349999853875","","image-keyboard-response","201","322474","0.0-4.0-0.54","","img/orange.png","32","trial","32","true","0.8,0.2","1:go_a","",""
"null","","html-keyboard-response","202","323479","0.0-4.0-1.54","","<img src=""img/orange-n.png"" border=""10"">","null","trial","32","","0.8,0.2","1:go_a","0",""
"null","","html-keyboard-response","203","324480","0.0-4.0-2.54","","<div style=""font-size:60px;"">+</div>","null","","","","","","",""
"null","","image-keyboard-response","204","325982","0.0-4.0-0.55","","img/green.png","null","trial","null","true","0.2,0.8","2:nogo_b","",""
"null","","html-keyboard-response","205","326983","0.0-4.0-1.55","","<img src=""img/green-r.png"">","null","trial","null","","0.2,0.8","2:nogo_b","1",""
"null","","html-keyboard-response","206","327986","0.0-4.0-2.55","","<div style=""font-size:60px;"">+</div>","null","","","","","","",""
"null","","image-keyboard-response","207","329488","0.0-4.0-0.56","","img/green.png","null","trial","null","true","0.2,0.8","2:nogo_b","",""
"null","","html-keyboard-response","208","330490","0.0-4.0-1.56","","<img src=""img/green-n.png"">","null","trial","null","","0.2,0.8","2:nogo_b","0",""
"null","","html-keyboard-response","209","331493","0.0-4.0-2.56","","<div style=""font-size:60px;"">+</div>","null","","","","","","",""
"392.920000012964","","image-keyboard-response","210","331887","0.0-4.0-0.57","","img/orange.png","32","trial","32","true","0.8,0.2","1:go_a","",""
"null","","html-keyboard-response","211","332890","0.0-4.0-1.57","","<img src=""img/orange-r.png"" border=""10"">","null","trial","32","","0.8,0.2","1:go_a","1",""
"null","","html-keyboard-response","212","333895","0.0-4.0-2.57","","<div style=""font-size:60px;"">+</div>","null","","","","","","",""
"487.0449999871198","","image-keyboard-response","213","334384","0.0-4.0-0.58","","img/orange.png","32","trial","32","true","0.8,0.2","1:go_a","",""
"null","","html-keyboard-response","214","335390","0.0-4.0-1.58","","<img src=""img/orange-n.png"" border=""10"">","null","trial","32","","0.8,0.2","1:go_a","0",""
"null","","html-keyboard-response","215","336396","0.0-4.0-2.58","","<div style=""font-size:60px;"">+</div>","null","","","","","","",""
"null","","image-keyboard-response","216","337900","0.0-4.0-0.59","","img/green.png","null","trial","null","true","0.2,0.8","2:nogo_b","",""
"null","","html-keyboard-response","217","338905","0.0-4.0-1.59","","<img src=""img/green-n.png"">","null","trial","null","","0.2,0.8","2:nogo_b","0",""
"null","","html-keyboard-response","218","339910","0.0-4.0-2.59","","<div style=""font-size:60px;"">+</div>","null","","","","","","",""
"2193.349999986822","","instructions","219","342105","0.0-5.0","[{""page_index"":0,""viewing_time"":2193.0350000038743}]","","","","","","","","",""
"null","","image-keyboard-response","220","343608","0.0-6.0-0.0","","img/purple.png","null","trial","32","false","0.6,0.4","3:go_c","",""
"null","","html-keyboard-response","221","344612","0.0-6.0-1.0","","<img src=""img/purple-r.png"">","null","trial","32","","0.6,0.4","3:go_c","1",""
"null","","html-keyboard-response","222","345617","0.0-6.0-2.0","","<div style=""font-size:60px;"">+</div>","null","","","","","","",""
"815.9950000117533","","image-keyboard-response","223","346434","0.0-6.0-0.1","","img/yellow.png","32","trial","32","true","0.6,0.4","1:go_a","",""
"null","","html-keyboard-response","224","347440","0.0-6.0-1.1","","<img src=""img/yellow-r.png"" border=""10"">","null","trial","32","","0.6,0.4","1:go_a","1",""
"null","","html-keyboard-response","225","348442","0.0-6.0-2.1","","<div style=""font-size:60px;"">+</div>","null","","","","","","",""
"1385.0249999959487","","image-keyboard-response","226","349829","0.0-6.0-0.2","","img/green.png","32","trial","null","false","0.4,0.6","2:nogo_b","",""
"null","","html-keyboard-response","227","350830","0.0-6.0-1.2","","<img src=""img/green-n.png"" border=""10"">","null","trial","null","","0.4,0.6","2:nogo_b","0",""
"null","","html-keyboard-response","228","351834","0.0-6.0-2.2","","<div style=""font-size:60px;"">+</div>","null","","","","","","",""
"null","","image-keyboard-response","229","353336","0.0-6.0-0.3","","img/grey.png","null","trial","null","true","0.4,0.6","4:nogo_d","",""
"null","","html-keyboard-response","230","354340","0.0-6.0-1.3","","<img src=""img/grey-r.png"">","null","trial","null","","0.4,0.6","4:nogo_d","1",""
"null","","html-keyboard-response","231","355344","0.0-6.0-2.3","","<div style=""font-size:60px;"">+</div>","null","","","","","","",""
"849.1400000057183","","image-keyboard-response","232","356195","0.0-6.0-0.4","","img/purple.png","32","trial","32","true","0.6,0.4","3:go_c","",""
"null","","html-keyboard-response","233","357196","0.0-6.0-1.4","","<img src=""img/purple-n.png"" border=""10"">","null","trial","32","","0.6,0.4","3:go_c","0",""
"null","","html-keyboard-response","234","358201","0.0-6.0-2.4","","<div style=""font-size:60px;"">+</div>","null","","","","","","",""
"769.9300000094809","","image-keyboard-response","235","358973","0.0-6.0-0.5","","img/green.png","32","trial","null","false","0.4,0.6","2:nogo_b","",""
"null","","html-keyboard-response","236","359980","0.0-6.0-1.5","","<img src=""img/green-n.png"" border=""10"">","null","trial","null","","0.4,0.6","2:nogo_b","0",""
"null","","html-keyboard-response","237","360983","0.0-6.0-2.5","","<div style=""font-size:60px;"">+</div>","null","","","","","","",""
"null","","image-keyboard-response","238","362489","0.0-6.0-0.6","","img/grey.png","null","trial","null","true","0.4,0.6","4:nogo_d","",""
"null","","html-keyboard-response","239","363492","0.0-6.0-1.6","","<img src=""img/grey-n.png"">","null","trial","null","","0.4,0.6","4:nogo_d","0",""
"null","","html-keyboard-response","240","364498","0.0-6.0-2.6","","<div style=""font-size:60px;"">+</div>","null","","","","","","",""
"742.6200000045355","","image-keyboard-response","241","365243","0.0-6.0-0.7","","img/yellow.png","32","trial","32","true","0.6,0.4","1:go_a","",""
"null","","html-keyboard-response","242","366246","0.0-6.0-1.7","","<img src=""img/yellow-r.png"" border=""10"">","null","trial","32","","0.6,0.4","1:go_a","1",""
"null","","html-keyboard-response","243","367251","0.0-6.0-2.7","","<div style=""font-size:60px;"">+</div>","null","","","","","","",""
"494.4050000049174","","image-keyboard-response","244","367746","0.0-6.0-0.8","","img/yellow.png","32","trial","32","true","0.6,0.4","1:go_a","",""
"null","","html-keyboard-response","245","368753","0.0-6.0-1.8","","<img src=""img/yellow-n.png"" border=""10"">","null","trial","32","","0.6,0.4","1:go_a","0",""
"null","","html-keyboard-response","246","369757","0.0-6.0-2.8","","<div style=""font-size:60px;"">+</div>","null","","","","","","",""
"668.0249999917578","","image-keyboard-response","247","370427","0.0-6.0-0.9","","img/green.png","32","trial","null","false","0.4,0.6","2:nogo_b","",""
"null","","html-keyboard-response","248","371431","0.0-6.0-1.9","","<img src=""img/green-n.png"" border=""10"">","null","trial","null","","0.4,0.6","2:nogo_b","0",""
"null","","html-keyboard-response","249","372437","0.0-6.0-2.9","","<div style=""font-size:60px;"">+</div>","null","","","","","","",""
"746.7149999865796","","image-keyboard-response","250","373185","0.0-6.0-0.10","","img/grey.png","32","trial","null","false","0.4,0.6","4:nogo_d","",""
"null","","html-keyboard-response","251","374187","0.0-6.0-1.10","","<img src=""img/grey-n.png"" border=""10"">","null","trial","null","","0.4,0.6","4:nogo_d","0",""
"null","","html-keyboard-response","252","375191","0.0-6.0-2.10","","<div style=""font-size:60px;"">+</div>","null","","","","","","",""
"701.0900000168476","","image-keyboard-response","253","375894","0.0-6.0-0.11","","img/purple.png","32","trial","32","true","0.6,0.4","3:go_c","",""
"null","","html-keyboard-response","254","376896","0.0-6.0-1.11","","<img src=""img/purple-n.png"" border=""10"">","null","trial","32","","0.6,0.4","3:go_c","0",""
"null","","html-keyboard-response","255","377901","0.0-6.0-2.11","","<div style=""font-size:60px;"">+</div>","null","","","","","","",""
"null","","image-keyboard-response","256","379403","0.0-6.0-0.12","","img/green.png","null","trial","null","true","0.4,0.6","2:nogo_b","",""
"null","","html-keyboard-response","257","380409","0.0-6.0-1.12","","<img src=""img/green-n.png"">","null","trial","null","","0.4,0.6","2:nogo_b","0",""
"null","","html-keyboard-response","258","381413","0.0-6.0-2.12","","<div style=""font-size:60px;"">+</div>","null","","","","","","",""
"null","","image-keyboard-response","259","382916","0.0-6.0-0.13","","img/grey.png","null","trial","null","true","0.4,0.6","4:nogo_d","",""
"null","","html-keyboard-response","260","383920","0.0-6.0-1.13","","<img src=""img/grey-r.png"">","null","trial","null","","0.4,0.6","4:nogo_d","1",""
"null","","html-keyboard-response","261","384925","0.0-6.0-2.13","","<div style=""font-size:60px;"">+</div>","null","","","","","","",""
"null","","image-keyboard-response","262","386431","0.0-6.0-0.14","","img/purple.png","null","trial","32","false","0.6,0.4","3:go_c","",""
"null","","html-keyboard-response","263","387438","0.0-6.0-1.14","","<img src=""img/purple-r.png"">","null","trial","32","","0.6,0.4","3:go_c","1",""
"null","","html-keyboard-response","264","388443","0.0-6.0-2.14","","<div style=""font-size:60px;"">+</div>","null","","","","","","",""
"408.15000000293367","","image-keyboard-response","265","388852","0.0-6.0-0.15","","img/yellow.png","32","trial","32","true","0.6,0.4","1:go_a","",""
"null","","html-keyboard-response","266","389856","0.0-6.0-1.15","","<img src=""img/yellow-r.png"" border=""10"">","null","trial","32","","0.6,0.4","1:go_a","1",""
"null","","html-keyboard-response","267","390859","0.0-6.0-2.15","","<div style=""font-size:60px;"">+</div>","null","","","","","","",""
"619.4200000027195","","image-keyboard-response","268","391480","0.0-6.0-0.16","","img/yellow.png","32","trial","32","true","0.6,0.4","1:go_a","",""
"null","","html-keyboard-response","269","392484","0.0-6.0-1.16","","<img src=""img/yellow-n.png"" border=""10"">","null","trial","32","","0.6,0.4","1:go_a","0",""
"null","","html-keyboard-response","270","393490","0.0-6.0-2.16","","<div style=""font-size:60px;"">+</div>","null","","","","","","",""
"632.6750000007451","","image-keyboard-response","271","394124","0.0-6.0-0.17","","img/grey.png","32","trial","null","false","0.4,0.6","4:nogo_d","",""
"null","","html-keyboard-response","272","395127","0.0-6.0-1.17","","<img src=""img/grey-r.png"" border=""10"">","null","trial","null","","0.4,0.6","4:nogo_d","1",""
"null","","html-keyboard-response","273","396129","0.0-6.0-2.17","","<div style=""font-size:60px;"">+</div>","null","","","","","","",""
"null","","image-keyboard-response","274","397632","0.0-6.0-0.18","","img/purple.png","null","trial","32","false","0.6,0.4","3:go_c","",""
"null","","html-keyboard-response","275","398639","0.0-6.0-1.18","","<img src=""img/purple-r.png"">","null","trial","32","","0.6,0.4","3:go_c","1",""
"null","","html-keyboard-response","276","399643","0.0-6.0-2.18","","<div style=""font-size:60px;"">+</div>","null","","","","","","",""
"null","","image-keyboard-response","277","401150","0.0-6.0-0.19","","img/green.png","null","trial","null","true","0.4,0.6","2:nogo_b","",""
"null","","html-keyboard-response","278","402155","0.0-6.0-1.19","","<img src=""img/green-r.png"">","null","trial","null","","0.4,0.6","2:nogo_b","1",""
"null","","html-keyboard-response","279","403158","0.0-6.0-2.19","","<div style=""font-size:60px;"">+</div>","null","","","","","","",""
"null","","image-keyboard-response","280","404661","0.0-6.0-0.20","","img/green.png","null","trial","null","true","0.4,0.6","2:nogo_b","",""
"null","","html-keyboard-response","281","405668","0.0-6.0-1.20","","<img src=""img/green-r.png"">","null","trial","null","","0.4,0.6","2:nogo_b","1",""
"null","","html-keyboard-response","282","406673","0.0-6.0-2.20","","<div style=""font-size:60px;"">+</div>","null","","","","","","",""
"452.48999999603257","","image-keyboard-response","283","407126","0.0-6.0-0.21","","img/yellow.png","32","trial","32","true","0.6,0.4","1:go_a","",""
"null","","html-keyboard-response","284","408130","0.0-6.0-1.21","","<img src=""img/yellow-r.png"" border=""10"">","null","trial","32","","0.6,0.4","1:go_a","1",""
"null","","html-keyboard-response","285","409135","0.0-6.0-2.21","","<div style=""font-size:60px;"">+</div>","null","","","","","","",""
"353.68000000016764","","image-keyboard-response","286","409491","0.0-6.0-0.22","","img/grey.png","32","trial","null","false","0.4,0.6","4:nogo_d","",""
"null","","html-keyboard-response","287","410494","0.0-6.0-1.22","","<img src=""img/grey-r.png"" border=""10"">","null","trial","null","","0.4,0.6","4:nogo_d","1",""
"null","","html-keyboard-response","288","411500","0.0-6.0-2.22","","<div style=""font-size:60px;"">+</div>","null","","","","","","",""
"null","","image-keyboard-response","289","413007","0.0-6.0-0.23","","img/purple.png","null","trial","32","false","0.6,0.4","3:go_c","",""
"null","","html-keyboard-response","290","414012","0.0-6.0-1.23","","<img src=""img/purple-n.png"">","null","trial","32","","0.6,0.4","3:go_c","0",""
"null","","html-keyboard-response","291","415013","0.0-6.0-2.23","","<div style=""font-size:60px;"">+</div>","null","","","","","","",""
"567.7300000097603","","image-keyboard-response","292","415582","0.0-6.0-0.24","","img/purple.png","32","trial","32","true","0.6,0.4","3:go_c","",""
"null","","html-keyboard-response","293","416589","0.0-6.0-1.24","","<img src=""img/purple-r.png"" border=""10"">","null","trial","32","","0.6,0.4","3:go_c","1",""
"null","","html-keyboard-response","294","417595","0.0-6.0-2.24","","<div style=""font-size:60px;"">+</div>","null","","","","","","",""
"null","","image-keyboard-response","295","419097","0.0-6.0-0.25","","img/green.png","null","trial","null","true","0.4,0.6","2:nogo_b","",""
"null","","html-keyboard-response","296","420101","0.0-6.0-1.25","","<img src=""img/green-r.png"">","null","trial","null","","0.4,0.6","2:nogo_b","1",""
"null","","html-keyboard-response","297","421105","0.0-6.0-2.25","","<div style=""font-size:60px;"">+</div>","null","","","","","","",""
"475.7099999987986","","image-keyboard-response","298","421582","0.0-6.0-0.26","","img/grey.png","32","trial","null","false","0.4,0.6","4:nogo_d","",""
"null","","html-keyboard-response","299","422588","0.0-6.0-1.26","","<img src=""img/grey-n.png"" border=""10"">","null","trial","null","","0.4,0.6","4:nogo_d","0",""
"null","","html-keyboard-response","300","423591","0.0-6.0-2.26","","<div style=""font-size:60px;"">+</div>","null","","","","","","",""
"298.08999999659136","","image-keyboard-response","301","423891","0.0-6.0-0.27","","img/yellow.png","32","trial","32","true","0.6,0.4","1:go_a","",""
"null","","html-keyboard-response","302","424895","0.0-6.0-1.27","","<img src=""img/yellow-r.png"" border=""10"">","null","trial","32","","0.6,0.4","1:go_a","1",""
"null","","html-keyboard-response","303","425899","0.0-6.0-2.27","","<div style=""font-size:60px;"">+</div>","null","","","","","","",""
"873.7399999808986","","image-keyboard-response","304","426774","0.0-6.0-0.28","","img/purple.png","32","trial","32","true","0.6,0.4","3:go_c","",""
"null","","html-keyboard-response","305","427777","0.0-6.0-1.28","","<img src=""img/purple-r.png"" border=""10"">","null","trial","32","","0.6,0.4","3:go_c","1",""
"null","","html-keyboard-response","306","428782","0.0-6.0-2.28","","<div style=""font-size:60px;"">+</div>","null","","","","","","",""
"350.9849999973085","","image-keyboard-response","307","429135","0.0-6.0-0.29","","img/yellow.png","32","trial","32","true","0.6,0.4","1:go_a","",""
"null","","html-keyboard-response","308","430140","0.0-6.0-1.29","","<img src=""img/yellow-n.png"" border=""10"">","null","trial","32","","0.6,0.4","1:go_a","0",""
"null","","html-keyboard-response","309","431143","0.0-6.0-2.29","","<div style=""font-size:60px;"">+</div>","null","","","","","","",""
"487.71499999566004","","image-keyboard-response","310","431632","0.0-6.0-0.30","","img/grey.png","32","trial","null","false","0.4,0.6","4:nogo_d","",""
"null","","html-keyboard-response","311","432636","0.0-6.0-1.30","","<img src=""img/grey-r.png"" border=""10"">","null","trial","null","","0.4,0.6","4:nogo_d","1",""
"null","","html-keyboard-response","312","433640","0.0-6.0-2.30","","<div style=""font-size:60px;"">+</div>","null","","","","","","",""
"null","","image-keyboard-response","313","435143","0.0-6.0-0.31","","img/green.png","null","trial","null","true","0.4,0.6","2:nogo_b","",""
"null","","html-keyboard-response","314","436149","0.0-6.0-1.31","","<img src=""img/green-n.png"">","null","trial","null","","0.4,0.6","2:nogo_b","0",""
"null","","html-keyboard-response","315","437154","0.0-6.0-2.31","","<div style=""font-size:60px;"">+</div>","null","","","","","","",""
"465.8699999854434","","image-keyboard-response","316","437621","0.0-6.0-0.32","","img/grey.png","32","trial","null","false","0.4,0.6","4:nogo_d","",""
"null","","html-keyboard-response","317","438623","0.0-6.0-1.32","","<img src=""img/grey-r.png"" border=""10"">","null","trial","null","","0.4,0.6","4:nogo_d","1",""
"null","","html-keyboard-response","318","439625","0.0-6.0-2.32","","<div style=""font-size:60px;"">+</div>","null","","","","","","",""
"697.0150000124704","","image-keyboard-response","319","440323","0.0-6.0-0.33","","img/purple.png","32","trial","32","true","0.6,0.4","3:go_c","",""
"null","","html-keyboard-response","320","441327","0.0-6.0-1.33","","<img src=""img/purple-r.png"" border=""10"">","null","trial","32","","0.6,0.4","3:go_c","1",""
"null","","html-keyboard-response","321","442329","0.0-6.0-2.33","","<div style=""font-size:60px;"">+</div>","null","","","","","","",""
"null","","image-keyboard-response","322","443831","0.0-6.0-0.34","","img/green.png","null","trial","null","true","0.4,0.6","2:nogo_b","",""
"null","","html-keyboard-response","323","444833","0.0-6.0-1.34","","<img src=""img/green-n.png"">","null","trial","null","","0.4,0.6","2:nogo_b","0",""
"null","","html-keyboard-response","324","445839","0.0-6.0-2.34","","<div style=""font-size:60px;"">+</div>","null","","","","","","",""
"366.1300000094343","","image-keyboard-response","325","446207","0.0-6.0-0.35","","img/yellow.png","32","trial","32","true","0.6,0.4","1:go_a","",""
"null","","html-keyboard-response","326","447212","0.0-6.0-1.35","","<img src=""img/yellow-r.png"" border=""10"">","null","trial","32","","0.6,0.4","1:go_a","1",""
"null","","html-keyboard-response","327","448217","0.0-6.0-2.35","","<div style=""font-size:60px;"">+</div>","null","","","","","","",""
"565.9900000027847","","image-keyboard-response","328","448784","0.0-6.0-0.36","","img/purple.png","32","trial","32","true","0.6,0.4","3:go_c","",""
"null","","html-keyboard-response","329","449791","0.0-6.0-1.36","","<img src=""img/purple-n.png"" border=""10"">","null","trial","32","","0.6,0.4","3:go_c","0",""
"null","","html-keyboard-response","330","450796","0.0-6.0-2.36","","<div style=""font-size:60px;"">+</div>","null","","","","","","",""
"322.6149999827612","","image-keyboard-response","331","451120","0.0-6.0-0.37","","img/yellow.png","32","trial","32","true","0.6,0.4","1:go_a","",""
"null","","html-keyboard-response","332","452122","0.0-6.0-1.37","","<img src=""img/yellow-n.png"" border=""10"">","null","trial","32","","0.6,0.4","1:go_a","0",""
"null","","html-keyboard-response","333","453126","0.0-6.0-2.37","","<div style=""font-size:60px;"">+</div>","null","","","","","","",""
"708.7649999884889","","image-keyboard-response","334","453837","0.0-6.0-0.38","","img/green.png","32","trial","null","false","0.4,0.6","2:nogo_b","",""
"null","","html-keyboard-response","335","454839","0.0-6.0-1.38","","<img src=""img/green-r.png"" border=""10"">","null","trial","null","","0.4,0.6","2:nogo_b","1",""
"null","","html-keyboard-response","336","455842","0.0-6.0-2.38","","<div style=""font-size:60px;"">+</div>","null","","","","","","",""
"436.65999997756444","","image-keyboard-response","337","456280","0.0-6.0-0.39","","img/grey.png","32","trial","null","false","0.4,0.6","4:nogo_d","",""
"null","","html-keyboard-response","338","457282","0.0-6.0-1.39","","<img src=""img/grey-n.png"" border=""10"">","null","trial","null","","0.4,0.6","4:nogo_d","0",""
"null","","html-keyboard-response","339","458286","0.0-6.0-2.39","","<div style=""font-size:60px;"">+</div>","null","","","","","","",""
"null","","image-keyboard-response","340","459788","0.0-6.0-0.40","","img/purple.png","null","trial","32","false","0.6,0.4","3:go_c","",""
"null","","html-keyboard-response","341","460795","0.0-6.0-1.40","","<img src=""img/purple-n.png"">","null","trial","32","","0.6,0.4","3:go_c","0",""
"null","","html-keyboard-response","342","461799","0.0-6.0-2.40","","<div style=""font-size:60px;"">+</div>","null","","","","","","",""
"468.7600000179373","","image-keyboard-response","343","462268","0.0-6.0-0.41","","img/grey.png","32","trial","null","false","0.4,0.6","4:nogo_d","",""
"null","","html-keyboard-response","344","463275","0.0-6.0-1.41","","<img src=""img/grey-n.png"" border=""10"">","null","trial","null","","0.4,0.6","4:nogo_d","0",""
"null","","html-keyboard-response","345","464277","0.0-6.0-2.41","","<div style=""font-size:60px;"">+</div>","null","","","","","","",""
"388.44999999855645","","image-keyboard-response","346","464666","0.0-6.0-0.42","","img/yellow.png","32","trial","32","true","0.6,0.4","1:go_a","",""
"null","","html-keyboard-response","347","465673","0.0-6.0-1.42","","<img src=""img/yellow-r.png"" border=""10"">","null","trial","32","","0.6,0.4","1:go_a","1",""
"null","","html-keyboard-response","348","466679","0.0-6.0-2.42","","<div style=""font-size:60px;"">+</div>","null","","","","","","",""
"null","","image-keyboard-response","349","468183","0.0-6.0-0.43","","img/green.png","null","trial","null","true","0.4,0.6","2:nogo_b","",""
"null","","html-keyboard-response","350","469190","0.0-6.0-1.43","","<img src=""img/green-r.png"">","null","trial","null","","0.4,0.6","2:nogo_b","1",""
"null","","html-keyboard-response","351","470192","0.0-6.0-2.43","","<div style=""font-size:60px;"">+</div>","null","","","","","","",""
"null","","image-keyboard-response","352","471699","0.0-6.0-0.44","","img/green.png","null","trial","null","true","0.4,0.6","2:nogo_b","",""
"null","","html-keyboard-response","353","472706","0.0-6.0-1.44","","<img src=""img/green-r.png"">","null","trial","null","","0.4,0.6","2:nogo_b","1",""
"null","","html-keyboard-response","354","473712","0.0-6.0-2.44","","<div style=""font-size:60px;"">+</div>","null","","","","","","",""
"587.2250000247732","","image-keyboard-response","355","474300","0.0-6.0-0.45","","img/yellow.png","32","trial","32","true","0.6,0.4","1:go_a","",""
"null","","html-keyboard-response","356","475307","0.0-6.0-1.45","","<img src=""img/yellow-r.png"" border=""10"">","null","trial","32","","0.6,0.4","1:go_a","1",""
"null","","html-keyboard-response","357","476313","0.0-6.0-2.45","","<div style=""font-size:60px;"">+</div>","null","","","","","","",""
"null","","image-keyboard-response","358","477817","0.0-6.0-0.46","","img/purple.png","null","trial","32","false","0.6,0.4","3:go_c","",""
"null","","html-keyboard-response","359","478820","0.0-6.0-1.46","","<img src=""img/purple-r.png"">","null","trial","32","","0.6,0.4","3:go_c","1",""
"null","","html-keyboard-response","360","479822","0.0-6.0-2.46","","<div style=""font-size:60px;"">+</div>","null","","","","","","",""
"null","","image-keyboard-response","361","481325","0.0-6.0-0.47","","img/grey.png","null","trial","null","true","0.4,0.6","4:nogo_d","",""
"null","","html-keyboard-response","362","482329","0.0-6.0-1.47","","<img src=""img/grey-r.png"">","null","trial","null","","0.4,0.6","4:nogo_d","1",""
"null","","html-keyboard-response","363","483332","0.0-6.0-2.47","","<div style=""font-size:60px;"">+</div>","null","","","","","","",""
"null","","image-keyboard-response","364","484836","0.0-6.0-0.48","","img/green.png","null","trial","null","true","0.4,0.6","2:nogo_b","",""
"null","","html-keyboard-response","365","485838","0.0-6.0-1.48","","<img src=""img/green-n.png"">","null","trial","null","","0.4,0.6","2:nogo_b","0",""
"null","","html-keyboard-response","366","486841","0.0-6.0-2.48","","<div style=""font-size:60px;"">+</div>","null","","","","","","",""
"null","","image-keyboard-response","367","488345","0.0-6.0-0.49","","img/grey.png","null","trial","null","true","0.4,0.6","4:nogo_d","",""
"null","","html-keyboard-response","368","489349","0.0-6.0-1.49","","<img src=""img/grey-n.png"">","null","trial","null","","0.4,0.6","4:nogo_d","0",""
"null","","html-keyboard-response","369","490353","0.0-6.0-2.49","","<div style=""font-size:60px;"">+</div>","null","","","","","","",""
"498.2949999975972","","image-keyboard-response","370","490853","0.0-6.0-0.50","","img/purple.png","32","trial","32","true","0.6,0.4","3:go_c","",""
"null","","html-keyboard-response","371","491860","0.0-6.0-1.50","","<img src=""img/purple-r.png"" border=""10"">","null","trial","32","","0.6,0.4","3:go_c","1",""
"null","","html-keyboard-response","372","492864","0.0-6.0-2.50","","<div style=""font-size:60px;"">+</div>","null","","","","","","",""
"419.53000001376495","","image-keyboard-response","373","493285","0.0-6.0-0.51","","img/yellow.png","32","trial","32","true","0.6,0.4","1:go_a","",""
"null","","html-keyboard-response","374","494292","0.0-6.0-1.51","","<img src=""img/yellow-n.png"" border=""10"">","null","trial","32","","0.6,0.4","1:go_a","0",""
"null","","html-keyboard-response","375","495296","0.0-6.0-2.51","","<div style=""font-size:60px;"">+</div>","null","","","","","","",""
"950.0750000006519","","image-keyboard-response","376","496248","0.0-6.0-0.52","","img/yellow.png","32","trial","32","true","0.6,0.4","1:go_a","",""
"null","","html-keyboard-response","377","497252","0.0-6.0-1.52","","<img src=""img/yellow-n.png"" border=""10"">","null","trial","32","","0.6,0.4","1:go_a","0",""
"null","","html-keyboard-response","378","498254","0.0-6.0-2.52","","<div style=""font-size:60px;"">+</div>","null","","","","","","",""
"1078.1500000157394","","image-keyboard-response","379","499334","0.0-6.0-0.53","","img/purple.png","32","trial","32","true","0.6,0.4","3:go_c","",""
"null","","html-keyboard-response","380","500336","0.0-6.0-1.53","","<img src=""img/purple-n.png"" border=""10"">","null","trial","32","","0.6,0.4","3:go_c","0",""
"null","","html-keyboard-response","381","501337","0.0-6.0-2.53","","<div style=""font-size:60px;"">+</div>","null","","","","","","",""
"810.9500000136904","","image-keyboard-response","382","502149","0.0-6.0-0.54","","img/green.png","32","trial","null","false","0.4,0.6","2:nogo_b","",""
"null","","html-keyboard-response","383","503153","0.0-6.0-1.54","","<img src=""img/green-n.png"" border=""10"">","null","trial","null","","0.4,0.6","2:nogo_b","0",""
"null","","html-keyboard-response","384","504158","0.0-6.0-2.54","","<div style=""font-size:60px;"">+</div>","null","","","","","","",""
"774.8150000115857","","image-keyboard-response","385","504934","0.0-6.0-0.55","","img/grey.png","32","trial","null","false","0.4,0.6","4:nogo_d","",""
"null","","html-keyboard-response","386","505936","0.0-6.0-1.55","","<img src=""img/grey-n.png"" border=""10"">","null","trial","null","","0.4,0.6","4:nogo_d","0",""
"null","","html-keyboard-response","387","506941","0.0-6.0-2.55","","<div style=""font-size:60px;"">+</div>","null","","","","","","",""
"373.15999998827465","","image-keyboard-response","388","507316","0.0-6.0-0.56","","img/yellow.png","32","trial","32","true","0.6,0.4","1:go_a","",""
"null","","html-keyboard-response","389","508324","0.0-6.0-1.56","","<img src=""img/yellow-n.png"" border=""10"">","null","trial","32","","0.6,0.4","1:go_a","0",""
"null","","html-keyboard-response","390","509329","0.0-6.0-2.56","","<div style=""font-size:60px;"">+</div>","null","","","","","","",""
"1022.705000010319","","image-keyboard-response","391","510353","0.0-6.0-0.57","","img/green.png","32","trial","null","false","0.4,0.6","2:nogo_b","",""
"null","","html-keyboard-response","392","511355","0.0-6.0-1.57","","<img src=""img/green-r.png"" border=""10"">","null","trial","null","","0.4,0.6","2:nogo_b","1",""
"null","","html-keyboard-response","393","512358","0.0-6.0-2.57","","<div style=""font-size:60px;"">+</div>","null","","","","","","",""
"null","","image-keyboard-response","394","513864","0.0-6.0-0.58","","img/grey.png","null","trial","null","true","0.4,0.6","4:nogo_d","",""
"null","","html-keyboard-response","395","514872","0.0-6.0-1.58","","<img src=""img/grey-n.png"">","null","trial","null","","0.4,0.6","4:nogo_d","0",""
"null","","html-keyboard-response","396","515873","0.0-6.0-2.58","","<div style=""font-size:60px;"">+</div>","null","","","","","","",""
"734.7799999988638","","image-keyboard-response","397","516609","0.0-6.0-0.59","","img/purple.png","32","trial","32","true","0.6,0.4","3:go_c","",""
"null","","html-keyboard-response","398","517616","0.0-6.0-1.59","","<img src=""img/purple-n.png"" border=""10"">","null","trial","32","","0.6,0.4","3:go_c","0",""
"null","","html-keyboard-response","399","518620","0.0-6.0-2.59","","<div style=""font-size:60px;"">+</div>","null","","","","","","",""
"548.7600000051316","","image-keyboard-response","400","519170","0.0-6.0-0.60","","img/yellow.png","32","trial","32","true","0.6,0.4","1:go_a","",""
"null","","html-keyboard-response","401","520172","0.0-6.0-1.60","","<img src=""img/yellow-n.png"" border=""10"">","null","trial","32","","0.6,0.4","1:go_a","0",""
"null","","html-keyboard-response","402","521177","0.0-6.0-2.60","","<div style=""font-size:60px;"">+</div>","null","","","","","","",""
"null","","image-keyboard-response","403","522683","0.0-6.0-0.61","","img/purple.png","null","trial","32","false","0.6,0.4","3:go_c","",""
"null","","html-keyboard-response","404","523686","0.0-6.0-1.61","","<img src=""img/purple-n.png"">","null","trial","32","","0.6,0.4","3:go_c","0",""
"null","","html-keyboard-response","405","524691","0.0-6.0-2.61","","<div style=""font-size:60px;"">+</div>","null","","","","","","",""
"444.35500001418404","","image-keyboard-response","406","525137","0.0-6.0-0.62","","img/grey.png","32","trial","null","false","0.4,0.6","4:nogo_d","",""
"null","","html-keyboard-response","407","526139","0.0-6.0-1.62","","<img src=""img/grey-n.png"" border=""10"">","null","trial","null","","0.4,0.6","4:nogo_d","0",""
"null","","html-keyboard-response","408","527142","0.0-6.0-2.62","","<div style=""font-size:60px;"">+</div>","null","","","","","","",""
"null","","image-keyboard-response","409","528649","0.0-6.0-0.63","","img/green.png","null","trial","null","true","0.4,0.6","2:nogo_b","",""
"null","","html-keyboard-response","410","529656","0.0-6.0-1.63","","<img src=""img/green-r.png"">","null","trial","null","","0.4,0.6","2:nogo_b","1",""
"null","","html-keyboard-response","411","530657","0.0-6.0-2.63","","<div style=""font-size:60px;"">+</div>","null","","","","","","",""
"821.17000001017","","image-keyboard-response","412","531479","0.0-6.0-0.64","","img/grey.png","32","trial","null","false","0.4,0.6","4:nogo_d","",""
"null","","html-keyboard-response","413","532484","0.0-6.0-1.64","","<img src=""img/grey-n.png"" border=""10"">","null","trial","null","","0.4,0.6","4:nogo_d","0",""
"null","","html-keyboard-response","414","533487","0.0-6.0-2.64","","<div style=""font-size:60px;"">+</div>","null","","","","","","",""
"921.7200000130106","","image-keyboard-response","415","534410","0.0-6.0-0.65","","img/green.png","32","trial","null","false","0.4,0.6","2:nogo_b","",""
"null","","html-keyboard-response","416","535413","0.0-6.0-1.65","","<img src=""img/green-r.png"" border=""10"">","null","trial","null","","0.4,0.6","2:nogo_b","1",""
"null","","html-keyboard-response","417","536419","0.0-6.0-2.65","","<div style=""font-size:60px;"">+</div>","null","","","","","","",""
"594.19999999227","","image-keyboard-response","418","537015","0.0-6.0-0.66","","img/yellow.png","32","trial","32","true","0.6,0.4","1:go_a","",""
"null","","html-keyboard-response","419","538018","0.0-6.0-1.66","","<img src=""img/yellow-r.png"" border=""10"">","null","trial","32","","0.6,0.4","1:go_a","1",""
"null","","html-keyboard-response","420","539019","0.0-6.0-2.66","","<div style=""font-size:60px;"">+</div>","null","","","","","","",""
"911.6199999989476","","image-keyboard-response","421","539932","0.0-6.0-0.67","","img/purple.png","32","trial","32","true","0.6,0.4","3:go_c","",""
"null","","html-keyboard-response","422","540935","0.0-6.0-1.67","","<img src=""img/purple-r.png"" border=""10"">","null","trial","32","","0.6,0.4","3:go_c","1",""
"null","","html-keyboard-response","423","541941","0.0-6.0-2.67","","<div style=""font-size:60px;"">+</div>","null","","","","","","",""
"389.6850000019185","","image-keyboard-response","424","542332","0.0-6.0-0.68","","img/yellow.png","32","trial","32","true","0.6,0.4","1:go_a","",""
"null","","html-keyboard-response","425","543340","0.0-6.0-1.68","","<img src=""img/yellow-n.png"" border=""10"">","null","trial","32","","0.6,0.4","1:go_a","0",""
"null","","html-keyboard-response","426","544346","0.0-6.0-2.68","","<div style=""font-size:60px;"">+</div>","null","","","","","","",""
"840.8350000099745","","image-keyboard-response","427","545188","0.0-6.0-0.69","","img/purple.png","32","trial","32","true","0.6,0.4","3:go_c","",""
"null","","html-keyboard-response","428","546191","0.0-6.0-1.69","","<img src=""img/purple-r.png"" border=""10"">","null","trial","32","","0.6,0.4","3:go_c","1",""
"null","","html-keyboard-response","429","547196","0.0-6.0-2.69","","<div style=""font-size:60px;"">+</div>","null","","","","","","",""
"888.8049999950454","","image-keyboard-response","430","548086","0.0-6.0-0.70","","img/grey.png","32","trial","null","false","0.4,0.6","4:nogo_d","",""
"null","","html-keyboard-response","431","549090","0.0-6.0-1.70","","<img src=""img/grey-n.png"" border=""10"">","null","trial","null","","0.4,0.6","4:nogo_d","0",""
"null","","html-keyboard-response","432","550092","0.0-6.0-2.70","","<div style=""font-size:60px;"">+</div>","null","","","","","","",""
"758.1150000041816","","image-keyboard-response","433","550852","0.0-6.0-0.71","","img/green.png","32","trial","null","false","0.4,0.6","2:nogo_b","",""
"null","","html-keyboard-response","434","551854","0.0-6.0-1.71","","<img src=""img/green-n.png"" border=""10"">","null","trial","null","","0.4,0.6","2:nogo_b","0",""
"null","","html-keyboard-response","435","552855","0.0-6.0-2.71","","<div style=""font-size:60px;"">+</div>","null","","","","","","",""
"null","","image-keyboard-response","436","554359","0.0-6.0-0.72","","img/green.png","null","trial","null","true","0.4,0.6","2:nogo_b","",""
"null","","html-keyboard-response","437","555362","0.0-6.0-1.72","","<img src=""img/green-n.png"">","null","trial","null","","0.4,0.6","2:nogo_b","0",""
"null","","html-keyboard-response","438","556364","0.0-6.0-2.72","","<div style=""font-size:60px;"">+</div>","null","","","","","","",""
"499.8300000152085","","image-keyboard-response","439","556865","0.0-6.0-0.73","","img/purple.png","32","trial","32","true","0.6,0.4","3:go_c","",""
"null","","html-keyboard-response","440","557869","0.0-6.0-1.73","","<img src=""img/purple-r.png"" border=""10"">","null","trial","32","","0.6,0.4","3:go_c","1",""
"null","","html-keyboard-response","441","558873","0.0-6.0-2.73","","<div style=""font-size:60px;"">+</div>","null","","","","","","",""
"483.22499997448176","","image-keyboard-response","442","559358","0.0-6.0-0.74","","img/yellow.png","32","trial","32","true","0.6,0.4","1:go_a","",""
"null","","html-keyboard-response","443","560363","0.0-6.0-1.74","","<img src=""img/yellow-n.png"" border=""10"">","null","trial","32","","0.6,0.4","1:go_a","0",""
"null","","html-keyboard-response","444","561367","0.0-6.0-2.74","","<div style=""font-size:60px;"">+</div>","null","","","","","","",""
"643.9900000113994","","image-keyboard-response","445","562013","0.0-6.0-0.75","","img/grey.png","32","trial","null","false","0.4,0.6","4:nogo_d","",""
"null","","html-keyboard-response","446","563018","0.0-6.0-1.75","","<img src=""img/grey-n.png"" border=""10"">","null","trial","null","","0.4,0.6","4:nogo_d","0",""
"null","","html-keyboard-response","447","564024","0.0-6.0-2.75","","<div style=""font-size:60px;"">+</div>","null","","","","","","",""
"317.78499999199994","","image-keyboard-response","448","564343","0.0-6.0-0.76","","img/purple.png","32","trial","32","true","0.6,0.4","3:go_c","",""
"null","","html-keyboard-response","449","565346","0.0-6.0-1.76","","<img src=""img/purple-r.png"" border=""10"">","null","trial","32","","0.6,0.4","3:go_c","1",""
"null","","html-keyboard-response","450","566352","0.0-6.0-2.76","","<div style=""font-size:60px;"">+</div>","null","","","","","","",""
"733.2600000081584","","image-keyboard-response","451","567086","0.0-6.0-0.77","","img/grey.png","32","trial","null","false","0.4,0.6","4:nogo_d","",""
"null","","html-keyboard-response","452","568088","0.0-6.0-1.77","","<img src=""img/grey-n.png"" border=""10"">","null","trial","null","","0.4,0.6","4:nogo_d","0",""
"null","","html-keyboard-response","453","569089","0.0-6.0-2.77","","<div style=""font-size:60px;"">+</div>","null","","","","","","",""
"620.8850000111852","","image-keyboard-response","454","569712","0.0-6.0-0.78","","img/yellow.png","32","trial","32","true","0.6,0.4","1:go_a","",""
"null","","html-keyboard-response","455","570715","0.0-6.0-1.78","","<img src=""img/yellow-r.png"" border=""10"">","null","trial","32","","0.6,0.4","1:go_a","1",""
"null","","html-keyboard-response","456","571716","0.0-6.0-2.78","","<div style=""font-size:60px;"">+</div>","null","","","","","","",""
"null","","image-keyboard-response","457","573220","0.0-6.0-0.79","","img/green.png","null","trial","null","true","0.4,0.6","2:nogo_b","",""
"null","","html-keyboard-response","458","574227","0.0-6.0-1.79","","<img src=""img/green-n.png"">","null","trial","null","","0.4,0.6","2:nogo_b","0",""
"null","","html-keyboard-response","459","575231","0.0-6.0-2.79","","<div style=""font-size:60px;"">+</div>","null","","","","","","",""
"894.849999982398","","image-keyboard-response","460","576127","0.0-6.0-0.80","","img/green.png","32","trial","null","false","0.4,0.6","2:nogo_b","",""
"null","","html-keyboard-response","461","577130","0.0-6.0-1.80","","<img src=""img/green-n.png"" border=""10"">","null","trial","null","","0.4,0.6","2:nogo_b","0",""
"null","","html-keyboard-response","462","578133","0.0-6.0-2.80","","<div style=""font-size:60px;"">+</div>","null","","","","","","",""
"641.0299999988638","","image-keyboard-response","463","578775","0.0-6.0-0.81","","img/purple.png","32","trial","32","true","0.6,0.4","3:go_c","",""
"null","","html-keyboard-response","464","579781","0.0-6.0-1.81","","<img src=""img/purple-n.png"" border=""10"">","null","trial","32","","0.6,0.4","3:go_c","0",""
"null","","html-keyboard-response","465","580786","0.0-6.0-2.81","","<div style=""font-size:60px;"">+</div>","null","","","","","","",""
"681.1000000161584","","image-keyboard-response","466","581468","0.0-6.0-0.82","","img/grey.png","32","trial","null","false","0.4,0.6","4:nogo_d","",""
"null","","html-keyboard-response","467","582474","0.0-6.0-1.82","","<img src=""img/grey-n.png"" border=""10"">","null","trial","null","","0.4,0.6","4:nogo_d","0",""
"null","","html-keyboard-response","468","583477","0.0-6.0-2.82","","<div style=""font-size:60px;"">+</div>","null","","","","","","",""
"408.0250000115484","","image-keyboard-response","469","583886","0.0-6.0-0.83","","img/yellow.png","32","trial","32","true","0.6,0.4","1:go_a","",""
"null","","html-keyboard-response","470","584894","0.0-6.0-1.83","","<img src=""img/yellow-r.png"" border=""10"">","null","trial","32","","0.6,0.4","1:go_a","1",""
"null","","html-keyboard-response","471","585896","0.0-6.0-2.83","","<div style=""font-size:60px;"">+</div>","null","","","","","","",""
"570.2100000053179","","image-keyboard-response","472","586468","0.0-6.0-0.84","","img/yellow.png","32","trial","32","true","0.6,0.4","1:go_a","",""
"null","","html-keyboard-response","473","587472","0.0-6.0-1.84","","<img src=""img/yellow-r.png"" border=""10"">","null","trial","32","","0.6,0.4","1:go_a","1",""
"null","","html-keyboard-response","474","588475","0.0-6.0-2.84","","<div style=""font-size:60px;"">+</div>","null","","","","","","",""
"null","","image-keyboard-response","475","589980","0.0-6.0-0.85","","img/green.png","null","trial","null","true","0.4,0.6","2:nogo_b","",""
"null","","html-keyboard-response","476","590986","0.0-6.0-1.85","","<img src=""img/green-n.png"">","null","trial","null","","0.4,0.6","2:nogo_b","0",""
"null","","html-keyboard-response","477","591990","0.0-6.0-2.85","","<div style=""font-size:60px;"">+</div>","null","","","","","","",""
"573.019999981625","","image-keyboard-response","478","592564","0.0-6.0-0.86","","img/grey.png","32","trial","null","false","0.4,0.6","4:nogo_d","",""
"null","","html-keyboard-response","479","593567","0.0-6.0-1.86","","<img src=""img/grey-n.png"" border=""10"">","null","trial","null","","0.4,0.6","4:nogo_d","0",""
"null","","html-keyboard-response","480","594572","0.0-6.0-2.86","","<div style=""font-size:60px;"">+</div>","null","","","","","","",""
"null","","image-keyboard-response","481","596074","0.0-6.0-0.87","","img/purple.png","null","trial","32","false","0.6,0.4","3:go_c","",""
"null","","html-keyboard-response","482","597080","0.0-6.0-1.87","","<img src=""img/purple-n.png"">","null","trial","32","","0.6,0.4","3:go_c","0",""
"null","","html-keyboard-response","483","598082","0.0-6.0-2.87","","<div style=""font-size:60px;"">+</div>","null","","","","","","",""
"751.4350000128616","","image-keyboard-response","484","598835","0.0-6.0-0.88","","img/purple.png","32","trial","32","true","0.6,0.4","3:go_c","",""
"null","","html-keyboard-response","485","599837","0.0-6.0-1.88","","<img src=""img/purple-r.png"" border=""10"">","null","trial","32","","0.6,0.4","3:go_c","1",""
"null","","html-keyboard-response","486","600842","0.0-6.0-2.88","","<div style=""font-size:60px;"">+</div>","null","","","","","","",""
"896.7949999787379","","image-keyboard-response","487","601740","0.0-6.0-0.89","","img/green.png","32","trial","null","false","0.4,0.6","2:nogo_b","",""
"null","","html-keyboard-response","488","602743","0.0-6.0-1.89","","<img src=""img/green-n.png"" border=""10"">","null","trial","null","","0.4,0.6","2:nogo_b","0",""
"null","","html-keyboard-response","489","603744","0.0-6.0-2.89","","<div style=""font-size:60px;"">+</div>","null","","","","","","",""
"511.13500000792556","","image-keyboard-response","490","604256","0.0-6.0-0.90","","img/yellow.png","32","trial","32","true","0.6,0.4","1:go_a","",""
"null","","html-keyboard-response","491","605258","0.0-6.0-1.90","","<img src=""img/yellow-n.png"" border=""10"">","null","trial","32","","0.6,0.4","1:go_a","0",""
"null","","html-keyboard-response","492","606261","0.0-6.0-2.90","","<div style=""font-size:60px;"">+</div>","null","","","","","","",""
"936.085000023013","","image-keyboard-response","493","607199","0.0-6.0-0.91","","img/grey.png","32","trial","null","false","0.4,0.6","4:nogo_d","",""
"null","","html-keyboard-response","494","608202","0.0-6.0-1.91","","<img src=""img/grey-n.png"" border=""10"">","null","trial","null","","0.4,0.6","4:nogo_d","0",""
"null","","html-keyboard-response","495","609205","0.0-6.0-2.91","","<div style=""font-size:60px;"">+</div>","null","","","","","","",""
"null","","image-keyboard-response","496","610709","0.0-6.0-0.92","","img/purple.png","null","trial","32","false","0.6,0.4","3:go_c","",""
"null","","html-keyboard-response","497","611712","0.0-6.0-1.92","","<img src=""img/purple-r.png"">","null","trial","32","","0.6,0.4","3:go_c","1",""
"null","","html-keyboard-response","498","612718","0.0-6.0-2.92","","<div style=""font-size:60px;"">+</div>","null","","","","","","",""
"null","","image-keyboard-response","499","614224","0.0-6.0-0.93","","img/green.png","null","trial","null","true","0.4,0.6","2:nogo_b","",""
"null","","html-keyboard-response","500","615231","0.0-6.0-1.93","","<img src=""img/green-r.png"">","null","trial","null","","0.4,0.6","2:nogo_b","1",""
"null","","html-keyboard-response","501","616233","0.0-6.0-2.93","","<div style=""font-size:60px;"">+</div>","null","","","","","","",""
"null","","image-keyboard-response","502","617740","0.0-6.0-0.94","","img/yellow.png","null","trial","32","false","0.6,0.4","1:go_a","",""
"null","","html-keyboard-response","503","618742","0.0-6.0-1.94","","<img src=""img/yellow-n.png"">","null","trial","32","","0.6,0.4","1:go_a","0",""
"null","","html-keyboard-response","504","619747","0.0-6.0-2.94","","<div style=""font-size:60px;"">+</div>","null","","","","","","",""
"null","","image-keyboard-response","505","621248","0.0-6.0-0.95","","img/grey.png","null","trial","null","true","0.4,0.6","4:nogo_d","",""
"null","","html-keyboard-response","506","622255","0.0-6.0-1.95","","<img src=""img/grey-n.png"">","null","trial","null","","0.4,0.6","4:nogo_d","0",""
"null","","html-keyboard-response","507","623260","0.0-6.0-2.95","","<div style=""font-size:60px;"">+</div>","null","","","","","","",""
"480.1549999974668","","image-keyboard-response","508","623741","0.0-6.0-0.96","","img/green.png","32","trial","null","false","0.4,0.6","2:nogo_b","",""
"null","","html-keyboard-response","509","624747","0.0-6.0-1.96","","<img src=""img/green-n.png"" border=""10"">","null","trial","null","","0.4,0.6","2:nogo_b","0",""
"null","","html-keyboard-response","510","625750","0.0-6.0-2.96","","<div style=""font-size:60px;"">+</div>","null","","","","","","",""
"457.63499999884516","","image-keyboard-response","511","626209","0.0-6.0-0.97","","img/yellow.png","32","trial","32","true","0.6,0.4","1:go_a","",""
"null","","html-keyboard-response","512","627211","0.0-6.0-1.97","","<img src=""img/yellow-n.png"" border=""10"">","null","trial","32","","0.6,0.4","1:go_a","0",""
"null","","html-keyboard-response","513","628215","0.0-6.0-2.97","","<div style=""font-size:60px;"">+</div>","null","","","","","","",""
"799.71999998088","","image-keyboard-response","514","629016","0.0-6.0-0.98","","img/purple.png","32","trial","32","true","0.6,0.4","3:go_c","",""
"null","","html-keyboard-response","515","630023","0.0-6.0-1.98","","<img src=""img/purple-n.png"" border=""10"">","null","trial","32","","0.6,0.4","3:go_c","0",""
"null","","html-keyboard-response","516","631027","0.0-6.0-2.98","","<div style=""font-size:60px;"">+</div>","null","","","","","","",""
"566.2050000100862","","image-keyboard-response","517","631595","0.0-6.0-0.99","","img/grey.png","32","trial","null","false","0.4,0.6","4:nogo_d","",""
"null","","html-keyboard-response","518","632598","0.0-6.0-1.99","","<img src=""img/grey-r.png"" border=""10"">","null","trial","null","","0.4,0.6","4:nogo_d","1",""
"null","","html-keyboard-response","519","633602","0.0-6.0-2.99","","<div style=""font-size:60px;"">+</div>","null","","","","","","",""
"1051.26000000746","","image-keyboard-response","520","634655","0.0-6.0-0.100","","img/purple.png","32","trial","32","true","0.6,0.4","3:go_c","",""
"null","","html-keyboard-response","521","635658","0.0-6.0-1.100","","<img src=""img/purple-r.png"" border=""10"">","null","trial","32","","0.6,0.4","3:go_c","1",""
"null","","html-keyboard-response","522","636661","0.0-6.0-2.100","","<div style=""font-size:60px;"">+</div>","null","","","","","","",""
"458.59500000369735","","image-keyboard-response","523","637121","0.0-6.0-0.101","","img/grey.png","32","trial","null","false","0.4,0.6","4:nogo_d","",""
"null","","html-keyboard-response","524","638126","0.0-6.0-1.101","","<img src=""img/grey-n.png"" border=""10"">","null","trial","null","","0.4,0.6","4:nogo_d","0",""
"null","","html-keyboard-response","525","639131","0.0-6.0-2.101","","<div style=""font-size:60px;"">+</div>","null","","","","","","",""
"291.2800000049174","","image-keyboard-response","526","639424","0.0-6.0-0.102","","img/yellow.png","32","trial","32","true","0.6,0.4","1:go_a","",""
"null","","html-keyboard-response","527","640426","0.0-6.0-1.102","","<img src=""img/yellow-r.png"" border=""10"">","null","trial","32","","0.6,0.4","1:go_a","1",""
"null","","html-keyboard-response","528","641429","0.0-6.0-2.102","","<div style=""font-size:60px;"">+</div>","null","","","","","","",""
"null","","image-keyboard-response","529","642933","0.0-6.0-0.103","","img/green.png","null","trial","null","true","0.4,0.6","2:nogo_b","",""
"null","","html-keyboard-response","530","643935","0.0-6.0-1.103","","<img src=""img/green-n.png"">","null","trial","null","","0.4,0.6","2:nogo_b","0",""
"null","","html-keyboard-response","531","644937","0.0-6.0-2.103","","<div style=""font-size:60px;"">+</div>","null","","","","","","",""
"null","","image-keyboard-response","532","646442","0.0-6.0-0.104","","img/purple.png","null","trial","32","false","0.6,0.4","3:go_c","",""
"null","","html-keyboard-response","533","647445","0.0-6.0-1.104","","<img src=""img/purple-r.png"">","null","trial","32","","0.6,0.4","3:go_c","1",""
"null","","html-keyboard-response","534","648447","0.0-6.0-2.104","","<div style=""font-size:60px;"">+</div>","null","","","","","","",""
"806.1300000117626","","image-keyboard-response","535","649255","0.0-6.0-0.105","","img/green.png","32","trial","null","false","0.4,0.6","2:nogo_b","",""
"null","","html-keyboard-response","536","650259","0.0-6.0-1.105","","<img src=""img/green-r.png"" border=""10"">","null","trial","null","","0.4,0.6","2:nogo_b","1",""
"null","","html-keyboard-response","537","651263","0.0-6.0-2.105","","<div style=""font-size:60px;"">+</div>","null","","","","","","",""
"344.90500000538304","","image-keyboard-response","538","651610","0.0-6.0-0.106","","img/yellow.png","32","trial","32","true","0.6,0.4","1:go_a","",""
"null","","html-keyboard-response","539","652613","0.0-6.0-1.106","","<img src=""img/yellow-r.png"" border=""10"">","null","trial","32","","0.6,0.4","1:go_a","1",""
"null","","html-keyboard-response","540","653617","0.0-6.0-2.106","","<div style=""font-size:60px;"">+</div>","null","","","","","","",""
"null","","image-keyboard-response","541","655122","0.0-6.0-0.107","","img/grey.png","null","trial","null","true","0.4,0.6","4:nogo_d","",""
"null","","html-keyboard-response","542","656128","0.0-6.0-1.107","","<img src=""img/grey-n.png"">","null","trial","null","","0.4,0.6","4:nogo_d","0",""
"null","","html-keyboard-response","543","657129","0.0-6.0-2.107","","<div style=""font-size:60px;"">+</div>","null","","","","","","",""
"467.1649999800138","","image-keyboard-response","544","657598","0.0-6.0-0.108","","img/purple.png","32","trial","32","true","0.6,0.4","3:go_c","",""
"null","","html-keyboard-response","545","658602","0.0-6.0-1.108","","<img src=""img/purple-r.png"" border=""10"">","null","trial","32","","0.6,0.4","3:go_c","1",""
"null","","html-keyboard-response","546","659607","0.0-6.0-2.108","","<div style=""font-size:60px;"">+</div>","null","","","","","","",""
"null","","image-keyboard-response","547","661109","0.0-6.0-0.109","","img/green.png","null","trial","null","true","0.4,0.6","2:nogo_b","",""
"null","","html-keyboard-response","548","662115","0.0-6.0-1.109","","<img src=""img/green-r.png"">","null","trial","null","","0.4,0.6","2:nogo_b","1",""
"null","","html-keyboard-response","549","663118","0.0-6.0-2.109","","<div style=""font-size:60px;"">+</div>","null","","","","","","",""
"715.3800000087358","","image-keyboard-response","550","663834","0.0-6.0-0.110","","img/grey.png","32","trial","null","false","0.4,0.6","4:nogo_d","",""
"null","","html-keyboard-response","551","664839","0.0-6.0-1.110","","<img src=""img/grey-r.png"" border=""10"">","null","trial","null","","0.4,0.6","4:nogo_d","1",""
"null","","html-keyboard-response","552","665842","0.0-6.0-2.110","","<div style=""font-size:60px;"">+</div>","null","","","","","","",""
"522.7900000172667","","image-keyboard-response","553","666366","0.0-6.0-0.111","","img/yellow.png","32","trial","32","true","0.6,0.4","1:go_a","",""
"null","","html-keyboard-response","554","667373","0.0-6.0-1.111","","<img src=""img/yellow-r.png"" border=""10"">","null","trial","32","","0.6,0.4","1:go_a","1",""
"null","","html-keyboard-response","555","668379","0.0-6.0-2.111","","<div style=""font-size:60px;"">+</div>","null","","","","","","",""
"850.7799999788404","","image-keyboard-response","556","669231","0.0-6.0-0.112","","img/grey.png","32","trial","null","false","0.4,0.6","4:nogo_d","",""
"null","","html-keyboard-response","557","670236","0.0-6.0-1.112","","<img src=""img/grey-r.png"" border=""10"">","null","trial","null","","0.4,0.6","4:nogo_d","1",""
"null","","html-keyboard-response","558","671239","0.0-6.0-2.112","","<div style=""font-size:60px;"">+</div>","null","","","","","","",""
"null","","image-keyboard-response","559","672743","0.0-6.0-0.113","","img/purple.png","null","trial","32","false","0.6,0.4","3:go_c","",""
"null","","html-keyboard-response","560","673750","0.0-6.0-1.113","","<img src=""img/purple-r.png"">","null","trial","32","","0.6,0.4","3:go_c","1",""
"null","","html-keyboard-response","561","674754","0.0-6.0-2.113","","<div style=""font-size:60px;"">+</div>","null","","","","","","",""
"570.3349999967031","","image-keyboard-response","562","675326","0.0-6.0-0.114","","img/yellow.png","32","trial","32","true","0.6,0.4","1:go_a","",""
"null","","html-keyboard-response","563","676333","0.0-6.0-1.114","","<img src=""img/yellow-r.png"" border=""10"">","null","trial","32","","0.6,0.4","1:go_a","1",""
"null","","html-keyboard-response","564","677337","0.0-6.0-2.114","","<div style=""font-size:60px;"">+</div>","null","","","","","","",""
"785.4200000001583","","image-keyboard-response","565","678124","0.0-6.0-0.115","","img/green.png","32","trial","null","false","0.4,0.6","2:nogo_b","",""
"null","","html-keyboard-response","566","679127","0.0-6.0-1.115","","<img src=""img/green-n.png"" border=""10"">","null","trial","null","","0.4,0.6","2:nogo_b","0",""
"null","","html-keyboard-response","567","680132","0.0-6.0-2.115","","<div style=""font-size:60px;"">+</div>","null","","","","","","",""
"1141.940000001341","","image-keyboard-response","568","681275","0.0-6.0-0.116","","img/green.png","32","trial","null","false","0.4,0.6","2:nogo_b","",""
"null","","html-keyboard-response","569","682279","0.0-6.0-1.116","","<img src=""img/green-r.png"" border=""10"">","null","trial","null","","0.4,0.6","2:nogo_b","1",""
"null","","html-keyboard-response","570","683282","0.0-6.0-2.116","","<div style=""font-size:60px;"">+</div>","null","","","","","","",""
"573.709999996936","","image-keyboard-response","571","683857","0.0-6.0-0.117","","img/grey.png","32","trial","null","false","0.4,0.6","4:nogo_d","",""
"null","","html-keyboard-response","572","684860","0.0-6.0-1.117","","<img src=""img/grey-n.png"" border=""10"">","null","trial","null","","0.4,0.6","4:nogo_d","0",""
"null","","html-keyboard-response","573","685865","0.0-6.0-2.117","","<div style=""font-size:60px;"">+</div>","null","","","","","","",""
"334.87500000046566","","image-keyboard-response","574","686202","0.0-6.0-0.118","","img/yellow.png","32","trial","32","true","0.6,0.4","1:go_a","",""
"null","","html-keyboard-response","575","687207","0.0-6.0-1.118","","<img src=""img/yellow-r.png"" border=""10"">","null","trial","32","","0.6,0.4","1:go_a","1",""
"null","","html-keyboard-response","576","688212","0.0-6.0-2.118","","<div style=""font-size:60px;"">+</div>","null","","","","","","",""
"571.8100000231061","","image-keyboard-response","577","688785","0.0-6.0-0.119","","img/purple.png","32","trial","32","true","0.6,0.4","3:go_c","",""
"null","","html-keyboard-response","578","689788","0.0-6.0-1.119","","<img src=""img/purple-n.png"" border=""10"">","null","trial","32","","0.6,0.4","3:go_c","0",""
"null","","html-keyboard-response","579","690793","0.0-6.0-2.119","","<div style=""font-size:60px;"">+</div>","null","","","","","","",""
"1902.7299999725074","","instructions","580","692696","0.0-7.0","[{""page_index"":0,""viewing_time"":1902.429999987362}]","","","","","","","","",""
"null","","image-keyboard-response","581","694199","0.0-8.0-0.0","","img/orange.png","null","trial","null","true","0.2,0.8","2:nogo_b","",""
"null","","html-keyboard-response","582","695206","0.0-8.0-1.0","","<img src=""img/orange-r.png"">","null","trial","null","","0.2,0.8","2:nogo_b","1",""
"null","","html-keyboard-response","583","696210","0.0-8.0-2.0","","<div style=""font-size:60px;"">+</div>","null","","","","","","",""
"560.9849999891594","","image-keyboard-response","584","696772","0.0-8.0-0.1","","img/grey.png","32","trial","32","true","0.8,0.2","3:go_c","",""
"null","","html-keyboard-response","585","697776","0.0-8.0-1.1","","<img src=""img/grey-r.png"" border=""10"">","null","trial","32","","0.8,0.2","3:go_c","1",""
"null","","html-keyboard-response","586","698781","0.0-8.0-2.1","","<div style=""font-size:60px;"">+</div>","null","","","","","","",""
"515.400000003865","","image-keyboard-response","587","699298","0.0-8.0-0.2","","img/pink.png","32","trial","null","false","0.2,0.8","4:nogo_d","",""
"null","","html-keyboard-response","588","700304","0.0-8.0-1.2","","<img src=""img/pink-r.png"" border=""10"">","null","trial","null","","0.2,0.8","4:nogo_d","1",""
"null","","html-keyboard-response","589","701310","0.0-8.0-2.2","","<div style=""font-size:60px;"">+</div>","null","","","","","","",""
"554.9250000040047","","image-keyboard-response","590","701866","0.0-8.0-0.3","","img/purple.png","32","trial","32","true","0.8,0.2","1:go_a","",""
"null","","html-keyboard-response","591","702872","0.0-8.0-1.3","","<img src=""img/purple-n.png"" border=""10"">","null","trial","32","","0.8,0.2","1:go_a","0",""
"null","","html-keyboard-response","592","703874","0.0-8.0-2.3","","<div style=""font-size:60px;"">+</div>","null","","","","","","",""
"null","","image-keyboard-response","593","705381","0.0-8.0-0.4","","img/purple.png","null","trial","32","false","0.8,0.2","1:go_a","",""
"null","","html-keyboard-response","594","706386","0.0-8.0-1.4","","<img src=""img/purple-r.png"">","null","trial","32","","0.8,0.2","1:go_a","1",""
"null","","html-keyboard-response","595","707391","0.0-8.0-2.4","","<div style=""font-size:60px;"">+</div>","null","","","","","","",""
"382.1049999969546","","image-keyboard-response","596","707774","0.0-8.0-0.5","","img/grey.png","32","trial","32","true","0.8,0.2","3:go_c","",""
"null","","html-keyboard-response","597","708780","0.0-8.0-1.5","","<img src=""img/grey-r.png"" border=""10"">","null","trial","32","","0.8,0.2","3:go_c","1",""
"null","","html-keyboard-response","598","709785","0.0-8.0-2.5","","<div style=""font-size:60px;"">+</div>","null","","","","","","",""
"null","","image-keyboard-response","599","711287","0.0-8.0-0.6","","img/orange.png","null","trial","null","true","0.2,0.8","2:nogo_b","",""
"null","","html-keyboard-response","600","712294","0.0-8.0-1.6","","<img src=""img/orange-r.png"">","null","trial","null","","0.2,0.8","2:nogo_b","1",""
"null","","html-keyboard-response","601","713296","0.0-8.0-2.6","","<div style=""font-size:60px;"">+</div>","null","","","","","","",""
"412.2700000007171","","image-keyboard-response","602","713709","0.0-8.0-0.7","","img/pink.png","32","trial","null","false","0.2,0.8","4:nogo_d","",""
"null","","html-keyboard-response","603","714715","0.0-8.0-1.7","","<img src=""img/pink-n.png"" border=""10"">","null","trial","null","","0.2,0.8","4:nogo_d","0",""
"null","","html-keyboard-response","604","715721","0.0-8.0-2.7","","<div style=""font-size:60px;"">+</div>","null","","","","","","",""
"627.8350000211503","","image-keyboard-response","605","716350","0.0-8.0-0.8","","img/grey.png","32","trial","32","true","0.8,0.2","3:go_c","",""
"null","","html-keyboard-response","606","717354","0.0-8.0-1.8","","<img src=""img/grey-r.png"" border=""10"">","null","trial","32","","0.8,0.2","3:go_c","1",""
"null","","html-keyboard-response","607","718356","0.0-8.0-2.8","","<div style=""font-size:60px;"">+</div>","null","","","","","","",""
"null","","image-keyboard-response","608","719860","0.0-8.0-0.9","","img/orange.png","null","trial","null","true","0.2,0.8","2:nogo_b","",""
"null","","html-keyboard-response","609","720863","0.0-8.0-1.9","","<img src=""img/orange-n.png"">","null","trial","null","","0.2,0.8","2:nogo_b","0",""
"null","","html-keyboard-response","610","721869","0.0-8.0-2.9","","<div style=""font-size:60px;"">+</div>","null","","","","","","",""
"714.3750000104774","","image-keyboard-response","611","722585","0.0-8.0-0.10","","img/purple.png","32","trial","32","true","0.8,0.2","1:go_a","",""
"null","","html-keyboard-response","612","723592","0.0-8.0-1.10","","<img src=""img/purple-n.png"" border=""10"">","null","trial","32","","0.8,0.2","1:go_a","0",""
"null","","html-keyboard-response","613","724598","0.0-8.0-2.10","","<div style=""font-size:60px;"">+</div>","null","","","","","","",""
"758.1300000019837","","image-keyboard-response","614","725357","0.0-8.0-0.11","","img/pink.png","32","trial","null","false","0.2,0.8","4:nogo_d","",""
"null","","html-keyboard-response","615","726363","0.0-8.0-1.11","","<img src=""img/pink-n.png"" border=""10"">","null","trial","null","","0.2,0.8","4:nogo_d","0",""
"null","","html-keyboard-response","616","727367","0.0-8.0-2.11","","<div style=""font-size:60px;"">+</div>","null","","","","","","",""
"491.070000018226","","image-keyboard-response","617","727859","0.0-8.0-0.12","","img/pink.png","32","trial","null","false","0.2,0.8","4:nogo_d","",""
"null","","html-keyboard-response","618","728864","0.0-8.0-1.12","","<img src=""img/pink-n.png"" border=""10"">","null","trial","null","","0.2,0.8","4:nogo_d","0",""
"null","","html-keyboard-response","619","729869","0.0-8.0-2.12","","<div style=""font-size:60px;"">+</div>","null","","","","","","",""
"null","","image-keyboard-response","620","731375","0.0-8.0-0.13","","img/orange.png","null","trial","null","true","0.2,0.8","2:nogo_b","",""
"null","","html-keyboard-response","621","732377","0.0-8.0-1.13","","<img src=""img/orange-r.png"">","null","trial","null","","0.2,0.8","2:nogo_b","1",""
"null","","html-keyboard-response","622","733382","0.0-8.0-2.13","","<div style=""font-size:60px;"">+</div>","null","","","","","","",""
"372.30499999714084","","image-keyboard-response","623","733755","0.0-8.0-0.14","","img/grey.png","32","trial","32","true","0.8,0.2","3:go_c","",""
"null","","html-keyboard-response","624","734762","0.0-8.0-1.14","","<img src=""img/grey-r.png"" border=""10"">","null","trial","32","","0.8,0.2","3:go_c","1",""
"null","","html-keyboard-response","625","735764","0.0-8.0-2.14","","<div style=""font-size:60px;"">+</div>","null","","","","","","",""
"null","","image-keyboard-response","626","737270","0.0-8.0-0.15","","img/purple.png","null","trial","32","false","0.8,0.2","1:go_a","",""
"null","","html-keyboard-response","627","738276","0.0-8.0-1.15","","<img src=""img/purple-n.png"">","null","trial","32","","0.8,0.2","1:go_a","0",""
"null","","html-keyboard-response","628","739280","0.0-8.0-2.15","","<div style=""font-size:60px;"">+</div>","null","","","","","","",""
"null","","image-keyboard-response","629","740784","0.0-8.0-0.16","","img/orange.png","null","trial","null","true","0.2,0.8","2:nogo_b","",""
"null","","html-keyboard-response","630","741791","0.0-8.0-1.16","","<img src=""img/orange-r.png"">","null","trial","null","","0.2,0.8","2:nogo_b","1",""
"null","","html-keyboard-response","631","742796","0.0-8.0-2.16","","<div style=""font-size:60px;"">+</div>","null","","","","","","",""
"null","","image-keyboard-response","632","744303","0.0-8.0-0.17","","img/pink.png","null","trial","null","true","0.2,0.8","4:nogo_d","",""
"null","","html-keyboard-response","633","745310","0.0-8.0-1.17","","<img src=""img/pink-r.png"">","null","trial","null","","0.2,0.8","4:nogo_d","1",""
"null","","html-keyboard-response","634","746315","0.0-8.0-2.17","","<div style=""font-size:60px;"">+</div>","null","","","","","","",""
"383.0700000107754","","image-keyboard-response","635","746699","0.0-8.0-0.18","","img/grey.png","32","trial","32","true","0.8,0.2","3:go_c","",""
"null","","html-keyboard-response","636","747706","0.0-8.0-1.18","","<img src=""img/grey-n.png"" border=""10"">","null","trial","32","","0.8,0.2","3:go_c","0",""
"null","","html-keyboard-response","637","748710","0.0-8.0-2.18","","<div style=""font-size:60px;"">+</div>","null","","","","","","",""
"911.0250000085216","","image-keyboard-response","638","749622","0.0-8.0-0.19","","img/purple.png","32","trial","32","true","0.8,0.2","1:go_a","",""
"null","","html-keyboard-response","639","750628","0.0-8.0-1.19","","<img src=""img/purple-r.png"" border=""10"">","null","trial","32","","0.8,0.2","1:go_a","1",""
"null","","html-keyboard-response","640","751631","0.0-8.0-2.19","","<div style=""font-size:60px;"">+</div>","null","","","","","","",""
"464.9599999829661","","image-keyboard-response","641","752097","0.0-8.0-0.20","","img/purple.png","32","trial","32","true","0.8,0.2","1:go_a","",""
"null","","html-keyboard-response","642","753103","0.0-8.0-1.20","","<img src=""img/purple-r.png"" border=""10"">","null","trial","32","","0.8,0.2","1:go_a","1",""
"null","","html-keyboard-response","643","754109","0.0-8.0-2.20","","<div style=""font-size:60px;"">+</div>","null","","","","","","",""
"null","","image-keyboard-response","644","755614","0.0-8.0-0.21","","img/pink.png","null","trial","null","true","0.2,0.8","4:nogo_d","",""
"null","","html-keyboard-response","645","756621","0.0-8.0-1.21","","<img src=""img/pink-r.png"">","null","trial","null","","0.2,0.8","4:nogo_d","1",""
"null","","html-keyboard-response","646","757626","0.0-8.0-2.21","","<div style=""font-size:60px;"">+</div>","null","","","","","","",""
"null","","image-keyboard-response","647","759130","0.0-8.0-0.22","","img/orange.png","null","trial","null","true","0.2,0.8","2:nogo_b","",""
"null","","html-keyboard-response","648","760135","0.0-8.0-1.22","","<img src=""img/orange-r.png"">","null","trial","null","","0.2,0.8","2:nogo_b","1",""
"null","","html-keyboard-response","649","761141","0.0-8.0-2.22","","<div style=""font-size:60px;"">+</div>","null","","","","","","",""
"366.2799999874551","","image-keyboard-response","650","761508","0.0-8.0-0.23","","img/grey.png","32","trial","32","true","0.8,0.2","3:go_c","",""
"null","","html-keyboard-response","651","762510","0.0-8.0-1.23","","<img src=""img/grey-n.png"" border=""10"">","null","trial","32","","0.8,0.2","3:go_c","0",""
"null","","html-keyboard-response","652","763515","0.0-8.0-2.23","","<div style=""font-size:60px;"">+</div>","null","","","","","","",""
"null","","image-keyboard-response","653","765022","0.0-8.0-0.24","","img/pink.png","null","trial","null","true","0.2,0.8","4:nogo_d","",""
"null","","html-keyboard-response","654","766027","0.0-8.0-1.24","","<img src=""img/pink-r.png"">","null","trial","null","","0.2,0.8","4:nogo_d","1",""
"null","","html-keyboard-response","655","767033","0.0-8.0-2.24","","<div style=""font-size:60px;"">+</div>","null","","","","","","",""
"null","","image-keyboard-response","656","768538","0.0-8.0-0.25","","img/orange.png","null","trial","null","true","0.2,0.8","2:nogo_b","",""
"null","","html-keyboard-response","657","769542","0.0-8.0-1.25","","<img src=""img/orange-r.png"">","null","trial","null","","0.2,0.8","2:nogo_b","1",""
"null","","html-keyboard-response","658","770547","0.0-8.0-2.25","","<div style=""font-size:60px;"">+</div>","null","","","","","","",""
"460.55499999783933","","image-keyboard-response","659","771009","0.0-8.0-0.26","","img/purple.png","32","trial","32","true","0.8,0.2","1:go_a","",""
"null","","html-keyboard-response","660","772011","0.0-8.0-1.26","","<img src=""img/purple-n.png"" border=""10"">","null","trial","32","","0.8,0.2","1:go_a","0",""
"null","","html-keyboard-response","661","773016","0.0-8.0-2.26","","<div style=""font-size:60px;"">+</div>","null","","","","","","",""
"437.1500000124797","","image-keyboard-response","662","773455","0.0-8.0-0.27","","img/grey.png","32","trial","32","true","0.8,0.2","3:go_c","",""
"null","","html-keyboard-response","663","774459","0.0-8.0-1.27","","<img src=""img/grey-r.png"" border=""10"">","null","trial","32","","0.8,0.2","3:go_c","1",""
"null","","html-keyboard-response","664","775465","0.0-8.0-2.27","","<div style=""font-size:60px;"">+</div>","null","","","","","","",""
"null","","image-keyboard-response","665","776971","0.0-8.0-0.28","","img/orange.png","null","trial","null","true","0.2,0.8","2:nogo_b","",""
"null","","html-keyboard-response","666","777974","0.0-8.0-1.28","","<img src=""img/orange-r.png"">","null","trial","null","","0.2,0.8","2:nogo_b","1",""
"null","","html-keyboard-response","667","778980","0.0-8.0-2.28","","<div style=""font-size:60px;"">+</div>","null","","","","","","",""
"395.52000002004206","","image-keyboard-response","668","779377","0.0-8.0-0.29","","img/grey.png","32","trial","32","true","0.8,0.2","3:go_c","",""
"null","","html-keyboard-response","669","780380","0.0-8.0-1.29","","<img src=""img/grey-r.png"" border=""10"">","null","trial","32","","0.8,0.2","3:go_c","1",""
"null","","html-keyboard-response","670","781384","0.0-8.0-2.29","","<div style=""font-size:60px;"">+</div>","null","","","","","","",""
"null","","image-keyboard-response","671","782887","0.0-8.0-0.30","","img/pink.png","null","trial","null","true","0.2,0.8","4:nogo_d","",""
"null","","html-keyboard-response","672","783894","0.0-8.0-1.30","","<img src=""img/pink-r.png"">","null","trial","null","","0.2,0.8","4:nogo_d","1",""
"null","","html-keyboard-response","673","784900","0.0-8.0-2.30","","<div style=""font-size:60px;"">+</div>","null","","","","","","",""
"496.3949999946635","","image-keyboard-response","674","785397","0.0-8.0-0.31","","img/purple.png","32","trial","32","true","0.8,0.2","1:go_a","",""
