"rt","url","trial_type","trial_index","time_elapsed","internal_node_id","view_history","stimulus","key_press","test_part","correct_response","correct","use_rew","which_stim","reward","responses"
"3889.0900000005786","consent.html","external-html","0","4045","0.0-0.0","","","","","","","","","",""
"57365.30500000299","","instructions","1","61338","0.0-1.0","[{""page_index"":0,""viewing_time"":2170.0400000008813},{""page_index"":1,""viewing_time"":18633.81500000105},{""page_index"":2,""viewing_time"":4948.079999998299},{""page_index"":3,""viewing_time"":18129.95000000228},{""page_index"":4,""viewing_time"":10613.994999999704},{""page_index"":5,""viewing_time"":1451.3550000010582},{""page_index"":6,""viewing_time"":1417.2099999996135}]","","","","","","","","",""
"822.6999999969848","","image-keyboard-response","2","62163","0.0-2.0-0.0","","img/test1.PNG","32","practice","32","true","","","",""
"null","","html-keyboard-response","3","63166","0.0-2.0-1.0","","<img src=""img/test1-reward.PNG"" border=""10px; grey"">","null","","","","","","",""
"null","","html-keyboard-response","4","64168","0.0-2.0-2.0","","<div style=""font-size:60px;"">+</div>","null","","","","","","",""
"544.9950000001991","","image-keyboard-response","5","64714","0.0-2.0-0.1","","img/test2.PNG","32","practice","null","false","","","",""
"null","","html-keyboard-response","6","65716","0.0-2.0-1.1","","<img src=""img/test2-neutral.PNG"" border=""10px; grey"">","null","","","","","","",""
"null","","html-keyboard-response","7","66718","0.0-2.0-2.1","","<div style=""font-size:60px;"">+</div>","null","","","","","","",""
"578.815000000759","","image-keyboard-response","8","67298","0.0-2.0-0.2","","img/test3.PNG","32","practice","null","false","","","",""
"null","","html-keyboard-response","9","68299","0.0-2.0-1.2","","<img src=""img/test3-neutral.PNG"" border=""10px; grey"">","null","","","","","","",""
"null","","html-keyboard-response","10","69301","0.0-2.0-2.2","","<div style=""font-size:60px;"">+</div>","null","","","","","","",""
"348.0299999973795","","image-keyboard-response","11","69649","0.0-2.0-0.3","","img/test1.PNG","32","practice","32","true","","","",""
"null","","html-keyboard-response","12","70652","0.0-2.0-1.3","","<img src=""img/test1-reward.PNG"" border=""10px; grey"">","null","","","","","","",""
"null","","html-keyboard-response","13","71654","0.0-2.0-2.3","","<div style=""font-size:60px;"">+</div>","null","","","","","","",""
"null","","image-keyboard-response","14","73162","0.0-2.0-0.4","","img/test2.PNG","null","practice","null","true","","","",""
"null","","html-keyboard-response","15","74163","0.0-2.0-1.4","","<img src=""img/test2-reward.PNG"">","null","","","","","","",""
"null","","html-keyboard-response","16","75165","0.0-2.0-2.4","","<div style=""font-size:60px;"">+</div>","null","","","","","","",""
"null","","image-keyboard-response","17","76667","0.0-2.0-0.5","","img/test3.PNG","null","practice","null","true","","","",""
"null","","html-keyboard-response","18","77669","0.0-2.0-1.5","","<img src=""img/test3-reward.PNG"">","null","","","","","","",""
"null","","html-keyboard-response","19","78684","0.0-2.0-2.5","","<div style=""font-size:60px;"">+</div>","null","","","","","","",""
"340.7499999993888","","image-keyboard-response","20","79026","0.0-2.0-0.6","","img/test1.PNG","32","practice","32","true","","","",""
"null","","html-keyboard-response","21","80028","0.0-2.0-1.6","","<img src=""img/test1-reward.PNG"" border=""10px; grey"">","null","","","","","","",""
"null","","html-keyboard-response","22","81030","0.0-2.0-2.6","","<div style=""font-size:60px;"">+</div>","null","","","","","","",""
"null","","image-keyboard-response","23","82532","0.0-2.0-0.7","","img/test2.PNG","null","practice","null","true","","","",""
"null","","html-keyboard-response","24","83533","0.0-2.0-1.7","","<img src=""img/test2-reward.PNG"">","null","","","","","","",""
"null","","html-keyboard-response","25","84535","0.0-2.0-2.7","","<div style=""font-size:60px;"">+</div>","null","","","","","","",""
"705.8099999994738","","image-keyboard-response","26","85242","0.0-2.0-0.8","","img/test3.PNG","32","practice","null","false","","","",""
"null","","html-keyboard-response","27","86244","0.0-2.0-1.8","","<img src=""img/test3-neutral.PNG"" border=""10px; grey"">","null","","","","","","",""
"null","","html-keyboard-response","28","87246","0.0-2.0-2.8","","<div style=""font-size:60px;"">+</div>","null","","","","","","",""
"null","","image-keyboard-response","29","88747","0.0-2.0-0.9","","img/test3.PNG","null","practice","null","true","","","",""
"null","","html-keyboard-response","30","89749","0.0-2.0-1.9","","<img src=""img/test3-reward.PNG"">","null","","","","","","",""
"null","","html-keyboard-response","31","90750","0.0-2.0-2.9","","<div style=""font-size:60px;"">+</div>","null","","","","","","",""
"353.7049999977171","","image-keyboard-response","32","91106","0.0-2.0-0.10","","img/test1.PNG","32","practice","32","true","","","",""
"null","","html-keyboard-response","33","92108","0.0-2.0-1.10","","<img src=""img/test1-reward.PNG"" border=""10px; grey"">","null","","","","","","",""
"null","","html-keyboard-response","34","93110","0.0-2.0-2.10","","<div style=""font-size:60px;"">+</div>","null","","","","","","",""
"null","","image-keyboard-response","35","94612","0.0-2.0-0.11","","img/test2.PNG","null","practice","null","true","","","",""
"null","","html-keyboard-response","36","95614","0.0-2.0-1.11","","<img src=""img/test2-reward.PNG"">","null","","","","","","",""
"null","","html-keyboard-response","37","96615","0.0-2.0-2.11","","<div style=""font-size:60px;"">+</div>","null","","","","","","",""
"2506.9949999997334","","instructions","38","99123","0.0-3.0","[{""page_index"":0,""viewing_time"":2506.8150000006426}]","","","","","","","","",""
"662.2250000000349","","image-keyboard-response","39","99786","0.0-4.0-0.0","","img/purple.png","32","trial","null","false","0.2,0.8","2:nogo_b","",""
"null","","html-keyboard-response","40","100788","0.0-4.0-1.0","","<img src=""img/purple-n.png"" border=""10"">","null","trial","null","","0.2,0.8","2:nogo_b","0",""
"null","","html-keyboard-response","41","101791","0.0-4.0-2.0","","<div style=""font-size:60px;"">+</div>","null","","","","","","",""
"514.2799999994168","","image-keyboard-response","42","102306","0.0-4.0-0.1","","img/green.png","32","trial","32","true","0.8,0.2","1:go_a","",""
"null","","html-keyboard-response","43","103308","0.0-4.0-1.1","","<img src=""img/green-n.png"" border=""10"">","null","trial","32","","0.8,0.2","1:go_a","0",""
"null","","html-keyboard-response","44","104309","0.0-4.0-2.1","","<div style=""font-size:60px;"">+</div>","null","","","","","","",""
"451.74000000042724","","image-keyboard-response","45","104762","0.0-4.0-0.2","","img/purple.png","32","trial","null","false","0.2,0.8","2:nogo_b","",""
"null","","html-keyboard-response","46","105764","0.0-4.0-1.2","","<img src=""img/purple-n.png"" border=""10"">","null","trial","null","","0.2,0.8","2:nogo_b","0",""
"null","","html-keyboard-response","47","106766","0.0-4.0-2.2","","<div style=""font-size:60px;"">+</div>","null","","","","","","",""
"746.7450000003737","","image-keyboard-response","48","107513","0.0-4.0-0.3","","img/green.png","32","trial","32","true","0.8,0.2","1:go_a","",""
"null","","html-keyboard-response","49","108516","0.0-4.0-1.3","","<img src=""img/green-r.png"" border=""10"">","null","trial","32","","0.8,0.2","1:go_a","1",""
"null","","html-keyboard-response","50","109518","0.0-4.0-2.3","","<div style=""font-size:60px;"">+</div>","null","","","","","","",""
"458.8499999990745","","image-keyboard-response","51","109978","0.0-4.0-0.4","","img/green.png","32","trial","32","true","0.8,0.2","1:go_a","",""
"null","","html-keyboard-response","52","110980","0.0-4.0-1.4","","<img src=""img/green-r.png"" border=""10"">","null","trial","32","","0.8,0.2","1:go_a","1",""
"null","","html-keyboard-response","53","111982","0.0-4.0-2.4","","<div style=""font-size:60px;"">+</div>","null","","","","","","",""
"null","","image-keyboard-response","54","113484","0.0-4.0-0.5","","img/purple.png","null","trial","null","true","0.2,0.8","2:nogo_b","",""
"null","","html-keyboard-response","55","114486","0.0-4.0-1.5","","<img src=""img/purple-r.png"">","null","trial","null","","0.2,0.8","2:nogo_b","1",""
"null","","html-keyboard-response","56","115488","0.0-4.0-2.5","","<div style=""font-size:60px;"">+</div>","null","","","","","","",""
"656.5350000018952","","image-keyboard-response","57","116138","0.0-4.0-0.6","","img/green.png","32","trial","32","true","0.8,0.2","1:go_a","",""
"null","","html-keyboard-response","58","117141","0.0-4.0-1.6","","<img src=""img/green-n.png"" border=""10"">","null","trial","32","","0.8,0.2","1:go_a","0",""
"null","","html-keyboard-response","59","118143","0.0-4.0-2.6","","<div style=""font-size:60px;"">+</div>","null","","","","","","",""
"507.1800000005169","","image-keyboard-response","60","118650","0.0-4.0-0.7","","img/purple.png","32","trial","null","false","0.2,0.8","2:nogo_b","",""
"null","","html-keyboard-response","61","119653","0.0-4.0-1.7","","<img src=""img/purple-n.png"" border=""10"">","null","trial","null","","0.2,0.8","2:nogo_b","0",""
"null","","html-keyboard-response","62","120654","0.0-4.0-2.7","","<div style=""font-size:60px;"">+</div>","null","","","","","","",""
"null","","image-keyboard-response","63","122155","0.0-4.0-0.8","","img/purple.png","null","trial","null","true","0.2,0.8","2:nogo_b","",""
"null","","html-keyboard-response","64","123157","0.0-4.0-1.8","","<img src=""img/purple-n.png"">","null","trial","null","","0.2,0.8","2:nogo_b","0",""
"null","","html-keyboard-response","65","124158","0.0-4.0-2.8","","<div style=""font-size:60px;"">+</div>","null","","","","","","",""
"436.3100000009581","","image-keyboard-response","66","124595","0.0-4.0-0.9","","img/green.png","32","trial","32","true","0.8,0.2","1:go_a","",""
"null","","html-keyboard-response","67","125597","0.0-4.0-1.9","","<img src=""img/green-r.png"" border=""10"">","null","trial","32","","0.8,0.2","1:go_a","1",""
"null","","html-keyboard-response","68","126599","0.0-4.0-2.9","","<div style=""font-size:60px;"">+</div>","null","","","","","","",""
"null","","image-keyboard-response","69","128100","0.0-4.0-0.10","","img/purple.png","null","trial","null","true","0.2,0.8","2:nogo_b","",""
"null","","html-keyboard-response","70","129103","0.0-4.0-1.10","","<img src=""img/purple-r.png"">","null","trial","null","","0.2,0.8","2:nogo_b","1",""
"null","","html-keyboard-response","71","130104","0.0-4.0-2.10","","<div style=""font-size:60px;"">+</div>","null","","","","","","",""
"321.67999999728636","","image-keyboard-response","72","130426","0.0-4.0-0.11","","img/green.png","32","trial","32","true","0.8,0.2","1:go_a","",""
"null","","html-keyboard-response","73","131429","0.0-4.0-1.11","","<img src=""img/green-n.png"" border=""10"">","null","trial","32","","0.8,0.2","1:go_a","0",""
"null","","html-keyboard-response","74","132431","0.0-4.0-2.11","","<div style=""font-size:60px;"">+</div>","null","","","","","","",""
"null","","image-keyboard-response","75","133933","0.0-4.0-0.12","","img/purple.png","null","trial","null","true","0.2,0.8","2:nogo_b","",""
"null","","html-keyboard-response","76","134934","0.0-4.0-1.12","","<img src=""img/purple-n.png"">","null","trial","null","","0.2,0.8","2:nogo_b","0",""
"null","","html-keyboard-response","77","135935","0.0-4.0-2.12","","<div style=""font-size:60px;"">+</div>","null","","","","","","",""
"410.7499999990978","","image-keyboard-response","78","136346","0.0-4.0-0.13","","img/green.png","32","trial","32","true","0.8,0.2","1:go_a","",""
"null","","html-keyboard-response","79","137349","0.0-4.0-1.13","","<img src=""img/green-r.png"" border=""10"">","null","trial","32","","0.8,0.2","1:go_a","1",""
"null","","html-keyboard-response","80","138359","0.0-4.0-2.13","","<div style=""font-size:60px;"">+</div>","null","","","","","","",""
"427.00999999942724","","image-keyboard-response","81","138786","0.0-4.0-0.14","","img/green.png","32","trial","32","true","0.8,0.2","1:go_a","",""
"null","","html-keyboard-response","82","139789","0.0-4.0-1.14","","<img src=""img/green-r.png"" border=""10"">","null","trial","32","","0.8,0.2","1:go_a","1",""
"null","","html-keyboard-response","83","140790","0.0-4.0-2.14","","<div style=""font-size:60px;"">+</div>","null","","","","","","",""
"null","","image-keyboard-response","84","142292","0.0-4.0-0.15","","img/purple.png","null","trial","null","true","0.2,0.8","2:nogo_b","",""
"null","","html-keyboard-response","85","143295","0.0-4.0-1.15","","<img src=""img/purple-r.png"">","null","trial","null","","0.2,0.8","2:nogo_b","1",""
"null","","html-keyboard-response","86","144296","0.0-4.0-2.15","","<div style=""font-size:60px;"">+</div>","null","","","","","","",""
"313.92499999856227","","image-keyboard-response","87","144611","0.0-4.0-0.16","","img/green.png","32","trial","32","true","0.8,0.2","1:go_a","",""
"null","","html-keyboard-response","88","145614","0.0-4.0-1.16","","<img src=""img/green-r.png"" border=""10"">","null","trial","32","","0.8,0.2","1:go_a","1",""
"null","","html-keyboard-response","89","146616","0.0-4.0-2.16","","<div style=""font-size:60px;"">+</div>","null","","","","","","",""
"null","","image-keyboard-response","90","148117","0.0-4.0-0.17","","img/purple.png","null","trial","null","true","0.2,0.8","2:nogo_b","",""
"null","","html-keyboard-response","91","149127","0.0-4.0-1.17","","<img src=""img/purple-r.png"">","null","trial","null","","0.2,0.8","2:nogo_b","1",""
"null","","html-keyboard-response","92","150128","0.0-4.0-2.17","","<div style=""font-size:60px;"">+</div>","null","","","","","","",""
"289.5399999979418","","image-keyboard-response","93","150418","0.0-4.0-0.18","","img/green.png","32","trial","32","true","0.8,0.2","1:go_a","",""
"null","","html-keyboard-response","94","151421","0.0-4.0-1.18","","<img src=""img/green-n.png"" border=""10"">","null","trial","32","","0.8,0.2","1:go_a","0",""
"null","","html-keyboard-response","95","152423","0.0-4.0-2.18","","<div style=""font-size:60px;"">+</div>","null","","","","","","",""
"null","","image-keyboard-response","96","153925","0.0-4.0-0.19","","img/purple.png","null","trial","null","true","0.2,0.8","2:nogo_b","",""
"null","","html-keyboard-response","97","154927","0.0-4.0-1.19","","<img src=""img/purple-r.png"">","null","trial","null","","0.2,0.8","2:nogo_b","1",""
"null","","html-keyboard-response","98","155928","0.0-4.0-2.19","","<div style=""font-size:60px;"">+</div>","null","","","","","","",""
"289.4000000014785","","image-keyboard-response","99","156218","0.0-4.0-0.20","","img/green.png","32","trial","32","true","0.8,0.2","1:go_a","",""
"null","","html-keyboard-response","100","157221","0.0-4.0-1.20","","<img src=""img/green-r.png"" border=""10"">","null","trial","32","","0.8,0.2","1:go_a","1",""
"null","","html-keyboard-response","101","158223","0.0-4.0-2.20","","<div style=""font-size:60px;"">+</div>","null","","","","","","",""
"null","","image-keyboard-response","102","159725","0.0-4.0-0.21","","img/purple.png","null","trial","null","true","0.2,0.8","2:nogo_b","",""
"null","","html-keyboard-response","103","160727","0.0-4.0-1.21","","<img src=""img/purple-r.png"">","null","trial","null","","0.2,0.8","2:nogo_b","1",""
"null","","html-keyboard-response","104","161728","0.0-4.0-2.21","","<div style=""font-size:60px;"">+</div>","null","","","","","","",""
"369.7749999992084","","image-keyboard-response","105","162098","0.0-4.0-0.22","","img/green.png","32","trial","32","true","0.8,0.2","1:go_a","",""
"null","","html-keyboard-response","106","163100","0.0-4.0-1.22","","<img src=""img/green-r.png"" border=""10"">","null","trial","32","","0.8,0.2","1:go_a","1",""
"null","","html-keyboard-response","107","164102","0.0-4.0-2.22","","<div style=""font-size:60px;"">+</div>","null","","","","","","",""
"null","","image-keyboard-response","108","165604","0.0-4.0-0.23","","img/purple.png","null","trial","null","true","0.2,0.8","2:nogo_b","",""
"null","","html-keyboard-response","109","166606","0.0-4.0-1.23","","<img src=""img/purple-r.png"">","null","trial","null","","0.2,0.8","2:nogo_b","1",""
"null","","html-keyboard-response","110","167608","0.0-4.0-2.23","","<div style=""font-size:60px;"">+</div>","null","","","","","","",""
"null","","image-keyboard-response","111","169110","0.0-4.0-0.24","","img/purple.png","null","trial","null","true","0.2,0.8","2:nogo_b","",""
"null","","html-keyboard-response","112","170112","0.0-4.0-1.24","","<img src=""img/purple-n.png"">","null","trial","null","","0.2,0.8","2:nogo_b","0",""
"null","","html-keyboard-response","113","171114","0.0-4.0-2.24","","<div style=""font-size:60px;"">+</div>","null","","","","","","",""
"503.6500000023807","","image-keyboard-response","114","171618","0.0-4.0-0.25","","img/green.png","32","trial","32","true","0.8,0.2","1:go_a","",""
"null","","html-keyboard-response","115","172621","0.0-4.0-1.25","","<img src=""img/green-r.png"" border=""10"">","null","trial","32","","0.8,0.2","1:go_a","1",""
"null","","html-keyboard-response","116","173623","0.0-4.0-2.25","","<div style=""font-size:60px;"">+</div>","null","","","","","","",""
"506.8199999986973","","image-keyboard-response","117","174130","0.0-4.0-0.26","","img/green.png","32","trial","32","true","0.8,0.2","1:go_a","",""
"null","","html-keyboard-response","118","175133","0.0-4.0-1.26","","<img src=""img/green-r.png"" border=""10"">","null","trial","32","","0.8,0.2","1:go_a","1",""
"null","","html-keyboard-response","119","176134","0.0-4.0-2.26","","<div style=""font-size:60px;"">+</div>","null","","","","","","",""
"null","","image-keyboard-response","120","175307","0.0-4.0-0.27","","img/purple.png","null","trial","null","true","0.2,0.8","2:nogo_b","",""
"null","","html-keyboard-response","121","176308","0.0-4.0-1.27","","<img src=""img/purple-r.png"">","null","trial","null","","0.2,0.8","2:nogo_b","1",""
"null","","html-keyboard-response","122","177311","0.0-4.0-2.27","","<div style=""font-size:60px;"">+</div>","null","","","","","","",""
"null","","image-keyboard-response","123","178814","0.0-4.0-0.28","","img/purple.png","null","trial","null","true","0.2,0.8","2:nogo_b","",""
"null","","html-keyboard-response","124","179816","0.0-4.0-1.28","","<img src=""img/purple-r.png"">","null","trial","null","","0.2,0.8","2:nogo_b","1",""
"null","","html-keyboard-response","125","180818","0.0-4.0-2.28","","<div style=""font-size:60px;"">+</div>","null","","","","","","",""
"388.95500000217","","image-keyboard-response","126","181209","0.0-4.0-0.29","","img/green.png","32","trial","32","true","0.8,0.2","1:go_a","",""
"null","","html-keyboard-response","127","182212","0.0-4.0-1.29","","<img src=""img/green-r.png"" border=""10"">","null","trial","32","","0.8,0.2","1:go_a","1",""
"null","","html-keyboard-response","128","183214","0.0-4.0-2.29","","<div style=""font-size:60px;"">+</div>","null","","","","","","",""
"426.6700000007404","","image-keyboard-response","129","183641","0.0-4.0-0.30","","img/green.png","32","trial","32","true","0.8,0.2","1:go_a","",""
"null","","html-keyboard-response","130","184643","0.0-4.0-1.30","","<img src=""img/green-r.png"" border=""10"">","null","trial","32","","0.8,0.2","1:go_a","1",""
"null","","html-keyboard-response","131","185644","0.0-4.0-2.30","","<div style=""font-size:60px;"">+</div>","null","","","","","","",""
"404.050000001007","","image-keyboard-response","132","186049","0.0-4.0-0.31","","img/purple.png","32","trial","null","false","0.2,0.8","2:nogo_b","",""
"null","","html-keyboard-response","133","187051","0.0-4.0-1.31","","<img src=""img/purple-n.png"" border=""10"">","null","trial","null","","0.2,0.8","2:nogo_b","0",""
"null","","html-keyboard-response","134","188067","0.0-4.0-2.31","","<div style=""font-size:60px;"">+</div>","null","","","","","","",""
"331.7349999997532","","image-keyboard-response","135","188401","0.0-4.0-0.32","","img/green.png","32","trial","32","true","0.8,0.2","1:go_a","",""
"null","","html-keyboard-response","136","189404","0.0-4.0-1.32","","<img src=""img/green-r.png"" border=""10"">","null","trial","32","","0.8,0.2","1:go_a","1",""
"null","","html-keyboard-response","137","190405","0.0-4.0-2.32","","<div style=""font-size:60px;"">+</div>","null","","","","","","",""
"null","","image-keyboard-response","138","191907","0.0-4.0-0.33","","img/purple.png","null","trial","null","true","0.2,0.8","2:nogo_b","",""
"null","","html-keyboard-response","139","192910","0.0-4.0-1.33","","<img src=""img/purple-r.png"">","null","trial","null","","0.2,0.8","2:nogo_b","1",""
"null","","html-keyboard-response","140","193912","0.0-4.0-2.33","","<div style=""font-size:60px;"">+</div>","null","","","","","","",""
"304.68499999915366","","image-keyboard-response","141","194217","0.0-4.0-0.34","","img/green.png","32","trial","32","true","0.8,0.2","1:go_a","",""
"null","","html-keyboard-response","142","195219","0.0-4.0-1.34","","<img src=""img/green-r.png"" border=""10"">","null","trial","32","","0.8,0.2","1:go_a","1",""
"null","","html-keyboard-response","143","196221","0.0-4.0-2.34","","<div style=""font-size:60px;"">+</div>","null","","","","","","",""
"null","","image-keyboard-response","144","197722","0.0-4.0-0.35","","img/purple.png","null","trial","null","true","0.2,0.8","2:nogo_b","",""
"null","","html-keyboard-response","145","198724","0.0-4.0-1.35","","<img src=""img/purple-n.png"">","null","trial","null","","0.2,0.8","2:nogo_b","0",""
"null","","html-keyboard-response","146","199725","0.0-4.0-2.35","","<div style=""font-size:60px;"">+</div>","null","","","","","","",""
"null","","image-keyboard-response","147","201227","0.0-4.0-0.36","","img/purple.png","null","trial","null","true","0.2,0.8","2:nogo_b","",""
"null","","html-keyboard-response","148","202230","0.0-4.0-1.36","","<img src=""img/purple-r.png"">","null","trial","null","","0.2,0.8","2:nogo_b","1",""
"null","","html-keyboard-response","149","203231","0.0-4.0-2.36","","<div style=""font-size:60px;"">+</div>","null","","","","","","",""
"305.0949999997101","","image-keyboard-response","150","203537","0.0-4.0-0.37","","img/green.png","32","trial","32","true","0.8,0.2","1:go_a","",""
"null","","html-keyboard-response","151","204539","0.0-4.0-1.37","","<img src=""img/green-r.png"" border=""10"">","null","trial","32","","0.8,0.2","1:go_a","1",""
"null","","html-keyboard-response","152","205542","0.0-4.0-2.37","","<div style=""font-size:60px;"">+</div>","null","","","","","","",""
"450.5250000001979","","image-keyboard-response","153","205993","0.0-4.0-0.38","","img/green.png","32","trial","32","true","0.8,0.2","1:go_a","",""
"null","","html-keyboard-response","154","206996","0.0-4.0-1.38","","<img src=""img/green-r.png"" border=""10"">","null","trial","32","","0.8,0.2","1:go_a","1",""
"null","","html-keyboard-response","155","207998","0.0-4.0-2.38","","<div style=""font-size:60px;"">+</div>","null","","","","","","",""
"null","","image-keyboard-response","156","209499","0.0-4.0-0.39","","img/purple.png","null","trial","null","true","0.2,0.8","2:nogo_b","",""
"null","","html-keyboard-response","157","210501","0.0-4.0-1.39","","<img src=""img/purple-r.png"">","null","trial","null","","0.2,0.8","2:nogo_b","1",""
"null","","html-keyboard-response","158","211502","0.0-4.0-2.39","","<div style=""font-size:60px;"">+</div>","null","","","","","","",""
"322.8300000009767","","image-keyboard-response","159","211826","0.0-4.0-0.40","","img/green.png","32","trial","32","true","0.8,0.2","1:go_a","",""
"null","","html-keyboard-response","160","212828","0.0-4.0-1.40","","<img src=""img/green-r.png"" border=""10"">","null","trial","32","","0.8,0.2","1:go_a","1",""
"null","","html-keyboard-response","161","213830","0.0-4.0-2.40","","<div style=""font-size:60px;"">+</div>","null","","","","","","",""
"null","","image-keyboard-response","162","215331","0.0-4.0-0.41","","img/purple.png","null","trial","null","true","0.2,0.8","2:nogo_b","",""
"null","","html-keyboard-response","163","216333","0.0-4.0-1.41","","<img src=""img/purple-r.png"">","null","trial","null","","0.2,0.8","2:nogo_b","1",""
"null","","html-keyboard-response","164","217335","0.0-4.0-2.41","","<div style=""font-size:60px;"">+</div>","null","","","","","","",""
"305.61999999918044","","image-keyboard-response","165","217641","0.0-4.0-0.42","","img/green.png","32","trial","32","true","0.8,0.2","1:go_a","",""
"null","","html-keyboard-response","166","218644","0.0-4.0-1.42","","<img src=""img/green-n.png"" border=""10"">","null","trial","32","","0.8,0.2","1:go_a","0",""
"null","","html-keyboard-response","167","219645","0.0-4.0-2.42","","<div style=""font-size:60px;"">+</div>","null","","","","","","",""
"null","","image-keyboard-response","168","221147","0.0-4.0-0.43","","img/purple.png","null","trial","null","true","0.2,0.8","2:nogo_b","",""
"null","","html-keyboard-response","169","222148","0.0-4.0-1.43","","<img src=""img/purple-r.png"">","null","trial","null","","0.2,0.8","2:nogo_b","1",""
"null","","html-keyboard-response","170","223151","0.0-4.0-2.43","","<div style=""font-size:60px;"">+</div>","null","","","","","","",""
"321.4349999980186","","image-keyboard-response","171","223473","0.0-4.0-0.44","","img/green.png","32","trial","32","true","0.8,0.2","1:go_a","",""
"null","","html-keyboard-response","172","224475","0.0-4.0-1.44","","<img src=""img/green-r.png"" border=""10"">","null","trial","32","","0.8,0.2","1:go_a","1",""
"null","","html-keyboard-response","173","225476","0.0-4.0-2.44","","<div style=""font-size:60px;"">+</div>","null","","","","","","",""
"null","","image-keyboard-response","174","226978","0.0-4.0-0.45","","img/purple.png","null","trial","null","true","0.2,0.8","2:nogo_b","",""
"null","","html-keyboard-response","175","227980","0.0-4.0-1.45","","<img src=""img/purple-r.png"">","null","trial","null","","0.2,0.8","2:nogo_b","1",""
"null","","html-keyboard-response","176","228981","0.0-4.0-2.45","","<div style=""font-size:60px;"">+</div>","null","","","","","","",""
"null","","image-keyboard-response","177","230482","0.0-4.0-0.46","","img/purple.png","null","trial","null","true","0.2,0.8","2:nogo_b","",""
"null","","html-keyboard-response","178","231485","0.0-4.0-1.46","","<img src=""img/purple-r.png"">","null","trial","null","","0.2,0.8","2:nogo_b","1",""
"null","","html-keyboard-response","179","232487","0.0-4.0-2.46","","<div style=""font-size:60px;"">+</div>","null","","","","","","",""
"258.03499999892665","","image-keyboard-response","180","232745","0.0-4.0-0.47","","img/green.png","32","trial","32","true","0.8,0.2","1:go_a","",""
"null","","html-keyboard-response","181","233747","0.0-4.0-1.47","","<img src=""img/green-r.png"" border=""10"">","null","trial","32","","0.8,0.2","1:go_a","1",""
"null","","html-keyboard-response","182","237189","0.0-4.0-2.47","","<div style=""font-size:60px;"">+</div>","null","","","","","","",""
"883.6750000009488","","image-keyboard-response","183","238073","0.0-4.0-0.48","","img/green.png","32","trial","32","true","0.8,0.2","1:go_a","",""
"null","","html-keyboard-response","184","239076","0.0-4.0-1.48","","<img src=""img/green-n.png"" border=""10"">","null","trial","32","","0.8,0.2","1:go_a","0",""
"null","","html-keyboard-response","185","240078","0.0-4.0-2.48","","<div style=""font-size:60px;"">+</div>","null","","","","","","",""
"null","","image-keyboard-response","186","241579","0.0-4.0-0.49","","img/purple.png","null","trial","null","true","0.2,0.8","2:nogo_b","",""
"null","","html-keyboard-response","187","242581","0.0-4.0-1.49","","<img src=""img/purple-r.png"">","null","trial","null","","0.2,0.8","2:nogo_b","1",""
"null","","html-keyboard-response","188","243583","0.0-4.0-2.49","","<div style=""font-size:60px;"">+</div>","null","","","","","","",""
"321.91000000239","","image-keyboard-response","189","243906","0.0-4.0-0.50","","img/green.png","32","trial","32","true","0.8,0.2","1:go_a","",""
"null","","html-keyboard-response","190","244908","0.0-4.0-1.50","","<img src=""img/green-r.png"" border=""10"">","null","trial","32","","0.8,0.2","1:go_a","1",""
"null","","html-keyboard-response","191","245910","0.0-4.0-2.50","","<div style=""font-size:60px;"">+</div>","null","","","","","","",""
"738.7999999991735","","image-keyboard-response","192","246649","0.0-4.0-0.51","","img/purple.png","32","trial","null","false","0.2,0.8","2:nogo_b","",""
"null","","html-keyboard-response","193","247652","0.0-4.0-1.51","","<img src=""img/purple-n.png"" border=""10"">","null","trial","null","","0.2,0.8","2:nogo_b","0",""
"null","","html-keyboard-response","194","248653","0.0-4.0-2.51","","<div style=""font-size:60px;"">+</div>","null","","","","","","",""
"null","","image-keyboard-response","195","250156","0.0-4.0-0.52","","img/purple.png","null","trial","null","true","0.2,0.8","2:nogo_b","",""
"null","","html-keyboard-response","196","251157","0.0-4.0-1.52","","<img src=""img/purple-r.png"">","null","trial","null","","0.2,0.8","2:nogo_b","1",""
"null","","html-keyboard-response","197","252164","0.0-4.0-2.52","","<div style=""font-size:60px;"">+</div>","null","","","","","","",""
"356.9400000014866","","image-keyboard-response","198","252522","0.0-4.0-0.53","","img/green.png","32","trial","32","true","0.8,0.2","1:go_a","",""
"null","","html-keyboard-response","199","253524","0.0-4.0-1.53","","<img src=""img/green-r.png"" border=""10"">","null","trial","32","","0.8,0.2","1:go_a","1",""
"null","","html-keyboard-response","200","254526","0.0-4.0-2.53","","<div style=""font-size:60px;"">+</div>","null","","","","","","",""
"354.7650000000431","","image-keyboard-response","201","254882","0.0-4.0-0.54","","img/green.png","32","trial","32","true","0.8,0.2","1:go_a","",""
"null","","html-keyboard-response","202","255884","0.0-4.0-1.54","","<img src=""img/green-r.png"" border=""10"">","null","trial","32","","0.8,0.2","1:go_a","1",""
"null","","html-keyboard-response","203","256886","0.0-4.0-2.54","","<div style=""font-size:60px;"">+</div>","null","","","","","","",""
"null","","image-keyboard-response","204","258388","0.0-4.0-0.55","","img/purple.png","null","trial","null","true","0.2,0.8","2:nogo_b","",""
"null","","html-keyboard-response","205","259391","0.0-4.0-1.55","","<img src=""img/purple-r.png"">","null","trial","null","","0.2,0.8","2:nogo_b","1",""
"null","","html-keyboard-response","206","260392","0.0-4.0-2.55","","<div style=""font-size:60px;"">+</div>","null","","","","","","",""
"320.84000000028755","","image-keyboard-response","207","260714","0.0-4.0-0.56","","img/green.png","32","trial","32","true","0.8,0.2","1:go_a","",""
"null","","html-keyboard-response","208","261716","0.0-4.0-1.56","","<img src=""img/green-r.png"" border=""10"">","null","trial","32","","0.8,0.2","1:go_a","1",""
"null","","html-keyboard-response","209","262718","0.0-4.0-2.56","","<div style=""font-size:60px;"">+</div>","null","","","","","","",""
"null","","image-keyboard-response","210","264220","0.0-4.0-0.57","","img/purple.png","null","trial","null","true","0.2,0.8","2:nogo_b","",""
"null","","html-keyboard-response","211","265222","0.0-4.0-1.57","","<img src=""img/purple-r.png"">","null","trial","null","","0.2,0.8","2:nogo_b","1",""
"null","","html-keyboard-response","212","266234","0.0-4.0-2.57","","<div style=""font-size:60px;"">+</div>","null","","","","","","",""
"null","","image-keyboard-response","213","267741","0.0-4.0-0.58","","img/purple.png","null","trial","null","true","0.2,0.8","2:nogo_b","",""
"null","","html-keyboard-response","214","268744","0.0-4.0-1.58","","<img src=""img/purple-r.png"">","null","trial","null","","0.2,0.8","2:nogo_b","1",""
"null","","html-keyboard-response","215","269745","0.0-4.0-2.58","","<div style=""font-size:60px;"">+</div>","null","","","","","","",""
"335.76499999983935","","image-keyboard-response","216","270082","0.0-4.0-0.59","","img/green.png","32","trial","32","true","0.8,0.2","1:go_a","",""
"null","","html-keyboard-response","217","271083","0.0-4.0-1.59","","<img src=""img/green-r.png"" border=""10"">","null","trial","32","","0.8,0.2","1:go_a","1",""
"null","","html-keyboard-response","218","272085","0.0-4.0-2.59","","<div style=""font-size:60px;"">+</div>","null","","","","","","",""
"576407.4699999983","","instructions","219","848468","0.0-5.0","[{""page_index"":0,""viewing_time"":576407.2000000014}]","","","","","","","","",""
"693.219999993802","","image-keyboard-response","220","849163","0.0-6.0-0.0","","img/pink.png","32","trial","null","false","0.4,0.6","4:nogo_d","",""
"null","","html-keyboard-response","221","850166","0.0-6.0-1.0","","<img src=""img/pink-n.png"" border=""10"">","null","trial","null","","0.4,0.6","4:nogo_d","0",""
"null","","html-keyboard-response","222","851167","0.0-6.0-2.0","","<div style=""font-size:60px;"">+</div>","null","","","","","","",""
"386.2950000038836","","image-keyboard-response","223","851554","0.0-6.0-0.1","","img/red.png","32","trial","null","false","0.4,0.6","2:nogo_b","",""
"null","","html-keyboard-response","224","852558","0.0-6.0-1.1","","<img src=""img/red-n.png"" border=""10"">","null","trial","null","","0.4,0.6","2:nogo_b","0",""
"null","","html-keyboard-response","225","853560","0.0-6.0-2.1","","<div style=""font-size:60px;"">+</div>","null","","","","","","",""
"361.9449999970384","","image-keyboard-response","226","853922","0.0-6.0-0.2","","img/green.png","32","trial","32","true","0.6,0.4","1:go_a","",""
"null","","html-keyboard-response","227","854925","0.0-6.0-1.2","","<img src=""img/green-n.png"" border=""10"">","null","trial","32","","0.6,0.4","1:go_a","0",""
"null","","html-keyboard-response","228","855935","0.0-6.0-2.2","","<div style=""font-size:60px;"">+</div>","null","","","","","","",""
"482.0649999965681","","image-keyboard-response","229","856418","0.0-6.0-0.3","","img/orange.png","32","trial","32","true","0.6,0.4","3:go_c","",""
"null","","html-keyboard-response","230","857421","0.0-6.0-1.3","","<img src=""img/orange-n.png"" border=""10"">","null","trial","32","","0.6,0.4","3:go_c","0",""
"null","","html-keyboard-response","231","858424","0.0-6.0-2.3","","<div style=""font-size:60px;"">+</div>","null","","","","","","",""
"null","","image-keyboard-response","232","859940","0.0-6.0-0.4","","img/red.png","null","trial","null","true","0.4,0.6","2:nogo_b","",""
"null","","html-keyboard-response","233","860941","0.0-6.0-1.4","","<img src=""img/red-n.png"">","null","trial","null","","0.4,0.6","2:nogo_b","0",""
"null","","html-keyboard-response","234","861942","0.0-6.0-2.4","","<div style=""font-size:60px;"">+</div>","null","","","","","","",""
"355.3099999988917","","image-keyboard-response","235","862298","0.0-6.0-0.5","","img/pink.png","32","trial","null","false","0.4,0.6","4:nogo_d","",""
"null","","html-keyboard-response","236","863300","0.0-6.0-1.5","","<img src=""img/pink-r.png"" border=""10"">","null","trial","null","","0.4,0.6","4:nogo_d","1",""
"null","","html-keyboard-response","237","864302","0.0-6.0-2.5","","<div style=""font-size:60px;"">+</div>","null","","","","","","",""
"700.0200000038603","","image-keyboard-response","238","865002","0.0-6.0-0.6","","img/orange.png","32","trial","32","true","0.6,0.4","3:go_c","",""
"null","","html-keyboard-response","239","866004","0.0-6.0-1.6","","<img src=""img/orange-r.png"" border=""10"">","null","trial","32","","0.6,0.4","3:go_c","1",""
"null","","html-keyboard-response","240","867005","0.0-6.0-2.6","","<div style=""font-size:60px;"">+</div>","null","","","","","","",""
"null","","image-keyboard-response","241","868507","0.0-6.0-0.7","","img/green.png","null","trial","32","false","0.6,0.4","1:go_a","",""
"null","","html-keyboard-response","242","869516","0.0-6.0-1.7","","<img src=""img/green-r.png"">","null","trial","32","","0.6,0.4","1:go_a","1",""
"null","","html-keyboard-response","243","870517","0.0-6.0-2.7","","<div style=""font-size:60px;"">+</div>","null","","","","","","",""
"412.7250000019558","","image-keyboard-response","244","870931","0.0-6.0-0.8","","img/pink.png","32","trial","null","false","0.4,0.6","4:nogo_d","",""
"null","","html-keyboard-response","245","871932","0.0-6.0-1.8","","<img src=""img/pink-n.png"" border=""10"">","null","trial","null","","0.4,0.6","4:nogo_d","0",""
"null","","html-keyboard-response","246","872934","0.0-6.0-2.8","","<div style=""font-size:60px;"">+</div>","null","","","","","","",""
"972.029999997234","","image-keyboard-response","247","873906","0.0-6.0-0.9","","img/orange.png","32","trial","32","true","0.6,0.4","3:go_c","",""
"null","","html-keyboard-response","248","874908","0.0-6.0-1.9","","<img src=""img/orange-n.png"" border=""10"">","null","trial","32","","0.6,0.4","3:go_c","0",""
"null","","html-keyboard-response","249","875909","0.0-6.0-2.9","","<div style=""font-size:60px;"">+</div>","null","","","","","","",""
"null","","image-keyboard-response","250","877412","0.0-6.0-0.10","","img/red.png","null","trial","null","true","0.4,0.6","2:nogo_b","",""
"null","","html-keyboard-response","251","878413","0.0-6.0-1.10","","<img src=""img/red-r.png"">","null","trial","null","","0.4,0.6","2:nogo_b","1",""
"null","","html-keyboard-response","252","879415","0.0-6.0-2.10","","<div style=""font-size:60px;"">+</div>","null","","","","","","",""
"null","","image-keyboard-response","253","880916","0.0-6.0-0.11","","img/green.png","null","trial","32","false","0.6,0.4","1:go_a","",""
"null","","html-keyboard-response","254","881919","0.0-6.0-1.11","","<img src=""img/green-n.png"">","null","trial","32","","0.6,0.4","1:go_a","0",""
"null","","html-keyboard-response","255","882922","0.0-6.0-2.11","","<div style=""font-size:60px;"">+</div>","null","","","","","","",""
"743.929999996908","","image-keyboard-response","256","883666","0.0-6.0-0.12","","img/pink.png","32","trial","null","false","0.4,0.6","4:nogo_d","",""
"null","","html-keyboard-response","257","884669","0.0-6.0-1.12","","<img src=""img/pink-n.png"" border=""10"">","null","trial","null","","0.4,0.6","4:nogo_d","0",""
"null","","html-keyboard-response","258","885671","0.0-6.0-2.12","","<div style=""font-size:60px;"">+</div>","null","","","","","","",""
"410.71999999985565","","image-keyboard-response","259","886082","0.0-6.0-0.13","","img/green.png","32","trial","32","true","0.6,0.4","1:go_a","",""
"null","","html-keyboard-response","260","887085","0.0-6.0-1.13","","<img src=""img/green-n.png"" border=""10"">","null","trial","32","","0.6,0.4","1:go_a","0",""
"null","","html-keyboard-response","261","888089","0.0-6.0-2.13","","<div style=""font-size:60px;"">+</div>","null","","","","","","",""
"null","","image-keyboard-response","262","889605","0.0-6.0-0.14","","img/red.png","null","trial","null","true","0.4,0.6","2:nogo_b","",""
"null","","html-keyboard-response","263","890606","0.0-6.0-1.14","","<img src=""img/red-n.png"">","null","trial","null","","0.4,0.6","2:nogo_b","0",""
"null","","html-keyboard-response","264","891608","0.0-6.0-2.14","","<div style=""font-size:60px;"">+</div>","null","","","","","","",""
"489.94999999564607","","image-keyboard-response","265","892098","0.0-6.0-0.15","","img/orange.png","32","trial","32","true","0.6,0.4","3:go_c","",""
"null","","html-keyboard-response","266","893101","0.0-6.0-1.15","","<img src=""img/orange-r.png"" border=""10"">","null","trial","32","","0.6,0.4","3:go_c","1",""
"null","","html-keyboard-response","267","894103","0.0-6.0-2.15","","<div style=""font-size:60px;"">+</div>","null","","","","","","",""
"1458.8199999998324","","image-keyboard-response","268","895562","0.0-6.0-0.16","","img/orange.png","32","trial","32","true","0.6,0.4","3:go_c","",""
"null","","html-keyboard-response","269","896564","0.0-6.0-1.16","","<img src=""img/orange-r.png"" border=""10"">","null","trial","32","","0.6,0.4","3:go_c","1",""
"null","","html-keyboard-response","270","897566","0.0-6.0-2.16","","<div style=""font-size:60px;"">+</div>","null","","","","","","",""
"null","","image-keyboard-response","271","899068","0.0-6.0-0.17","","img/green.png","null","trial","32","false","0.6,0.4","1:go_a","",""
"null","","html-keyboard-response","272","900069","0.0-6.0-1.17","","<img src=""img/green-n.png"">","null","trial","32","","0.6,0.4","1:go_a","0",""
"null","","html-keyboard-response","273","901071","0.0-6.0-2.17","","<div style=""font-size:60px;"">+</div>","null","","","","","","",""
"null","","image-keyboard-response","274","902573","0.0-6.0-0.18","","img/red.png","null","trial","null","true","0.4,0.6","2:nogo_b","",""
"null","","html-keyboard-response","275","903575","0.0-6.0-1.18","","<img src=""img/red-r.png"">","null","trial","null","","0.4,0.6","2:nogo_b","1",""
"null","","html-keyboard-response","276","904577","0.0-6.0-2.18","","<div style=""font-size:60px;"">+</div>","null","","","","","","",""
"464.5650000020396","","image-keyboard-response","277","905042","0.0-6.0-0.19","","img/pink.png","32","trial","null","false","0.4,0.6","4:nogo_d","",""
"null","","html-keyboard-response","278","906045","0.0-6.0-1.19","","<img src=""img/pink-r.png"" border=""10"">","null","trial","null","","0.4,0.6","4:nogo_d","1",""
"null","","html-keyboard-response","279","907046","0.0-6.0-2.19","","<div style=""font-size:60px;"">+</div>","null","","","","","","",""
"1203.5949999990407","","image-keyboard-response","280","908244","0.0-6.0-0.20","","img/red.png","32","trial","null","false","0.4,0.6","2:nogo_b","",""
"null","","html-keyboard-response","281","909246","0.0-6.0-1.20","","<img src=""img/red-n.png"" border=""10"">","null","trial","null","","0.4,0.6","2:nogo_b","0",""
"null","","html-keyboard-response","282","910248","0.0-6.0-2.20","","<div style=""font-size:60px;"">+</div>","null","","","","","","",""
"778.9349999948172","","image-keyboard-response","283","911028","0.0-6.0-0.21","","img/pink.png","32","trial","null","false","0.4,0.6","4:nogo_d","",""
"null","","html-keyboard-response","284","912036","0.0-6.0-1.21","","<img src=""img/pink-n.png"" border=""10"">","null","trial","null","","0.4,0.6","4:nogo_d","0",""
"null","","html-keyboard-response","285","913042","0.0-6.0-2.21","","<div style=""font-size:60px;"">+</div>","null","","","","","","",""
"null","","image-keyboard-response","286","914544","0.0-6.0-0.22","","img/green.png","null","trial","32","false","0.6,0.4","1:go_a","",""
"null","","html-keyboard-response","287","915547","0.0-6.0-1.22","","<img src=""img/green-r.png"">","null","trial","32","","0.6,0.4","1:go_a","1",""
"null","","html-keyboard-response","288","916549","0.0-6.0-2.22","","<div style=""font-size:60px;"">+</div>","null","","","","","","",""
"662.9499999980908","","image-keyboard-response","289","917212","0.0-6.0-0.23","","img/orange.png","32","trial","32","true","0.6,0.4","3:go_c","",""
"null","","html-keyboard-response","290","918215","0.0-6.0-1.23","","<img src=""img/orange-r.png"" border=""10"">","null","trial","32","","0.6,0.4","3:go_c","1",""
"null","","html-keyboard-response","291","919216","0.0-6.0-2.23","","<div style=""font-size:60px;"">+</div>","null","","","","","","",""
"null","","image-keyboard-response","292","920718","0.0-6.0-0.24","","img/green.png","null","trial","32","false","0.6,0.4","1:go_a","",""
"null","","html-keyboard-response","293","921722","0.0-6.0-1.24","","<img src=""img/green-r.png"">","null","trial","32","","0.6,0.4","1:go_a","1",""
"null","","html-keyboard-response","294","922724","0.0-6.0-2.24","","<div style=""font-size:60px;"">+</div>","null","","","","","","",""
"1048.1099999961443","","image-keyboard-response","295","923773","0.0-6.0-0.25","","img/orange.png","32","trial","32","true","0.6,0.4","3:go_c","",""
"null","","html-keyboard-response","296","924776","0.0-6.0-1.25","","<img src=""img/orange-r.png"" border=""10"">","null","trial","32","","0.6,0.4","3:go_c","1",""
"null","","html-keyboard-response","297","925778","0.0-6.0-2.25","","<div style=""font-size:60px;"">+</div>","null","","","","","","",""
"785.7199999997392","","image-keyboard-response","298","926564","0.0-6.0-0.26","","img/pink.png","32","trial","null","false","0.4,0.6","4:nogo_d","",""
"null","","html-keyboard-response","299","927567","0.0-6.0-1.26","","<img src=""img/pink-n.png"" border=""10"">","null","trial","null","","0.4,0.6","4:nogo_d","0",""
"null","","html-keyboard-response","300","928568","0.0-6.0-2.26","","<div style=""font-size:60px;"">+</div>","null","","","","","","",""
"null","","image-keyboard-response","301","930069","0.0-6.0-0.27","","img/red.png","null","trial","null","true","0.4,0.6","2:nogo_b","",""
"null","","html-keyboard-response","302","931071","0.0-6.0-1.27","","<img src=""img/red-n.png"">","null","trial","null","","0.4,0.6","2:nogo_b","0",""
"null","","html-keyboard-response","303","932072","0.0-6.0-2.27","","<div style=""font-size:60px;"">+</div>","null","","","","","","",""
"659.6250000002328","","image-keyboard-response","304","932732","0.0-6.0-0.28","","img/green.png","32","trial","32","true","0.6,0.4","1:go_a","",""
"null","","html-keyboard-response","305","933735","0.0-6.0-1.28","","<img src=""img/green-r.png"" border=""10"">","null","trial","32","","0.6,0.4","1:go_a","1",""
"null","","html-keyboard-response","306","934737","0.0-6.0-2.28","","<div style=""font-size:60px;"">+</div>","null","","","","","","",""
"387.4250000008615","","image-keyboard-response","307","935125","0.0-6.0-0.29","","img/pink.png","32","trial","null","false","0.4,0.6","4:nogo_d","",""
"null","","html-keyboard-response","308","936127","0.0-6.0-1.29","","<img src=""img/pink-r.png"" border=""10"">","null","trial","null","","0.4,0.6","4:nogo_d","1",""
"null","","html-keyboard-response","309","937130","0.0-6.0-2.29","","<div style=""font-size:60px;"">+</div>","null","","","","","","",""
"777.7399999976624","","image-keyboard-response","310","937908","0.0-6.0-0.30","","img/orange.png","32","trial","32","true","0.6,0.4","3:go_c","",""
"null","","html-keyboard-response","311","938918","0.0-6.0-1.30","","<img src=""img/orange-r.png"" border=""10"">","null","trial","32","","0.6,0.4","3:go_c","1",""
"null","","html-keyboard-response","312","939919","0.0-6.0-2.30","","<div style=""font-size:60px;"">+</div>","null","","","","","","",""
"988.4400000009919","","image-keyboard-response","313","940908","0.0-6.0-0.31","","img/red.png","32","trial","null","false","0.4,0.6","2:nogo_b","",""
"null","","html-keyboard-response","314","941923","0.0-6.0-1.31","","<img src=""img/red-r.png"" border=""10"">","null","trial","null","","0.4,0.6","2:nogo_b","1",""
"null","","html-keyboard-response","315","942924","0.0-6.0-2.31","","<div style=""font-size:60px;"">+</div>","null","","","","","","",""
"615.6599999957252","","image-keyboard-response","316","943540","0.0-6.0-0.32","","img/green.png","32","trial","32","true","0.6,0.4","1:go_a","",""
"null","","html-keyboard-response","317","944542","0.0-6.0-1.32","","<img src=""img/green-n.png"" border=""10"">","null","trial","32","","0.6,0.4","1:go_a","0",""
"null","","html-keyboard-response","318","945544","0.0-6.0-2.32","","<div style=""font-size:60px;"">+</div>","null","","","","","","",""
"332.0450000029523","","image-keyboard-response","319","945876","0.0-6.0-0.33","","img/orange.png","32","trial","32","true","0.6,0.4","3:go_c","",""
"null","","html-keyboard-response","320","946878","0.0-6.0-1.33","","<img src=""img/orange-r.png"" border=""10"">","null","trial","32","","0.6,0.4","3:go_c","1",""
"null","","html-keyboard-response","321","947881","0.0-6.0-2.33","","<div style=""font-size:60px;"">+</div>","null","","","","","","",""
"578.8700000048848","","image-keyboard-response","322","948460","0.0-6.0-0.34","","img/pink.png","32","trial","null","false","0.4,0.6","4:nogo_d","",""
"null","","html-keyboard-response","323","949463","0.0-6.0-1.34","","<img src=""img/pink-r.png"" border=""10"">","null","trial","null","","0.4,0.6","4:nogo_d","1",""
"null","","html-keyboard-response","324","950465","0.0-6.0-2.34","","<div style=""font-size:60px;"">+</div>","null","","","","","","",""
"643.0450000043493","","image-keyboard-response","325","951108","0.0-6.0-0.35","","img/red.png","32","trial","null","false","0.4,0.6","2:nogo_b","",""
"null","","html-keyboard-response","326","952110","0.0-6.0-1.35","","<img src=""img/red-r.png"" border=""10"">","null","trial","null","","0.4,0.6","2:nogo_b","1",""
"null","","html-keyboard-response","327","953112","0.0-6.0-2.35","","<div style=""font-size:60px;"">+</div>","null","","","","","","",""
"491.845000004163","","image-keyboard-response","328","953605","0.0-6.0-0.36","","img/pink.png","32","trial","null","false","0.4,0.6","4:nogo_d","",""
"null","","html-keyboard-response","329","954608","0.0-6.0-1.36","","<img src=""img/pink-n.png"" border=""10"">","null","trial","null","","0.4,0.6","4:nogo_d","0",""
"null","","html-keyboard-response","330","955610","0.0-6.0-2.36","","<div style=""font-size:60px;"">+</div>","null","","","","","","",""
"null","","image-keyboard-response","331","957112","0.0-6.0-0.37","","img/green.png","null","trial","32","false","0.6,0.4","1:go_a","",""
"null","","html-keyboard-response","332","958114","0.0-6.0-1.37","","<img src=""img/green-r.png"">","null","trial","32","","0.6,0.4","1:go_a","1",""
"null","","html-keyboard-response","333","959116","0.0-6.0-2.37","","<div style=""font-size:60px;"">+</div>","null","","","","","","",""
"704.1349999998929","","image-keyboard-response","334","959821","0.0-6.0-0.38","","img/orange.png","32","trial","32","true","0.6,0.4","3:go_c","",""
"null","","html-keyboard-response","335","960824","0.0-6.0-1.38","","<img src=""img/orange-r.png"" border=""10"">","null","trial","32","","0.6,0.4","3:go_c","1",""
"null","","html-keyboard-response","336","961829","0.0-6.0-2.38","","<div style=""font-size:60px;"">+</div>","null","","","","","","",""
"774.6950000000652","","image-keyboard-response","337","962604","0.0-6.0-0.39","","img/red.png","32","trial","null","false","0.4,0.6","2:nogo_b","",""
"null","","html-keyboard-response","338","963607","0.0-6.0-1.39","","<img src=""img/red-n.png"" border=""10"">","null","trial","null","","0.4,0.6","2:nogo_b","0",""
"null","","html-keyboard-response","339","964609","0.0-6.0-2.39","","<div style=""font-size:60px;"">+</div>","null","","","","","","",""
"706.239999999525","","image-keyboard-response","340","965316","0.0-6.0-0.40","","img/orange.png","32","trial","32","true","0.6,0.4","3:go_c","",""
"null","","html-keyboard-response","341","966320","0.0-6.0-1.40","","<img src=""img/orange-r.png"" border=""10"">","null","trial","32","","0.6,0.4","3:go_c","1",""
"null","","html-keyboard-response","342","967322","0.0-6.0-2.40","","<div style=""font-size:60px;"">+</div>","null","","","","","","",""
"761.269999995362","","image-keyboard-response","343","968084","0.0-6.0-0.41","","img/pink.png","32","trial","null","false","0.4,0.6","4:nogo_d","",""
"null","","html-keyboard-response","344","969087","0.0-6.0-1.41","","<img src=""img/pink-n.png"" border=""10"">","null","trial","null","","0.4,0.6","4:nogo_d","0",""
"null","","html-keyboard-response","345","970089","0.0-6.0-2.41","","<div style=""font-size:60px;"">+</div>","null","","","","","","",""
"null","","image-keyboard-response","346","971591","0.0-6.0-0.42","","img/green.png","null","trial","32","false","0.6,0.4","1:go_a","",""
"null","","html-keyboard-response","347","972592","0.0-6.0-1.42","","<img src=""img/green-r.png"">","null","trial","32","","0.6,0.4","1:go_a","1",""
"null","","html-keyboard-response","348","973594","0.0-6.0-2.42","","<div style=""font-size:60px;"">+</div>","null","","","","","","",""
"545.7699999969918","","image-keyboard-response","349","974140","0.0-6.0-0.43","","img/red.png","32","trial","null","false","0.4,0.6","2:nogo_b","",""
"null","","html-keyboard-response","350","975143","0.0-6.0-1.43","","<img src=""img/red-n.png"" border=""10"">","null","trial","null","","0.4,0.6","2:nogo_b","0",""
"null","","html-keyboard-response","351","976144","0.0-6.0-2.43","","<div style=""font-size:60px;"">+</div>","null","","","","","","",""
"499.28499999805354","","image-keyboard-response","352","976644","0.0-6.0-0.44","","img/green.png","32","trial","32","true","0.6,0.4","1:go_a","",""
"null","","html-keyboard-response","353","977647","0.0-6.0-1.44","","<img src=""img/green-r.png"" border=""10"">","null","trial","32","","0.6,0.4","1:go_a","1",""
"null","","html-keyboard-response","354","978648","0.0-6.0-2.44","","<div style=""font-size:60px;"">+</div>","null","","","","","","",""
"563.1649999995716","","image-keyboard-response","355","979212","0.0-6.0-0.45","","img/orange.png","32","trial","32","true","0.6,0.4","3:go_c","",""
"null","","html-keyboard-response","356","980214","0.0-6.0-1.45","","<img src=""img/orange-r.png"" border=""10"">","null","trial","32","","0.6,0.4","3:go_c","1",""
"null","","html-keyboard-response","357","981216","0.0-6.0-2.45","","<div style=""font-size:60px;"">+</div>","null","","","","","","",""
"491.69000000250526","","image-keyboard-response","358","981708","0.0-6.0-0.46","","img/pink.png","32","trial","null","false","0.4,0.6","4:nogo_d","",""
"null","","html-keyboard-response","359","982711","0.0-6.0-1.46","","<img src=""img/pink-n.png"" border=""10"">","null","trial","null","","0.4,0.6","4:nogo_d","0",""
"null","","html-keyboard-response","360","983712","0.0-6.0-2.46","","<div style=""font-size:60px;"">+</div>","null","","","","","","",""
"555.6900000009919","","image-keyboard-response","361","984269","0.0-6.0-0.47","","img/red.png","32","trial","null","false","0.4,0.6","2:nogo_b","",""
"null","","html-keyboard-response","362","985284","0.0-6.0-1.47","","<img src=""img/red-r.png"" border=""10"">","null","trial","null","","0.4,0.6","2:nogo_b","1",""
"null","","html-keyboard-response","363","986285","0.0-6.0-2.47","","<div style=""font-size:60px;"">+</div>","null","","","","","","",""
"645.9499999982072","","image-keyboard-response","364","986932","0.0-6.0-0.48","","img/green.png","32","trial","32","true","0.6,0.4","1:go_a","",""
"null","","html-keyboard-response","365","987935","0.0-6.0-1.48","","<img src=""img/green-r.png"" border=""10"">","null","trial","32","","0.6,0.4","1:go_a","1",""
"null","","html-keyboard-response","366","988936","0.0-6.0-2.48","","<div style=""font-size:60px;"">+</div>","null","","","","","","",""
"643.6299999987241","","image-keyboard-response","367","989580","0.0-6.0-0.49","","img/red.png","32","trial","null","false","0.4,0.6","2:nogo_b","",""
"null","","html-keyboard-response","368","990582","0.0-6.0-1.49","","<img src=""img/red-n.png"" border=""10"">","null","trial","null","","0.4,0.6","2:nogo_b","0",""
"null","","html-keyboard-response","369","991586","0.0-6.0-2.49","","<div style=""font-size:60px;"">+</div>","null","","","","","","",""
"697.4000000045635","","image-keyboard-response","370","992284","0.0-6.0-0.50","","img/orange.png","32","trial","32","true","0.6,0.4","3:go_c","",""
"null","","html-keyboard-response","371","993287","0.0-6.0-1.50","","<img src=""img/orange-r.png"" border=""10"">","null","trial","32","","0.6,0.4","3:go_c","1",""
"null","","html-keyboard-response","372","994288","0.0-6.0-2.50","","<div style=""font-size:60px;"">+</div>","null","","","","","","",""
"571.1900000023888","","image-keyboard-response","373","994860","0.0-6.0-0.51","","img/pink.png","32","trial","null","false","0.4,0.6","4:nogo_d","",""
"null","","html-keyboard-response","374","995874","0.0-6.0-1.51","","<img src=""img/pink-n.png"" border=""10"">","null","trial","null","","0.4,0.6","4:nogo_d","0",""
"null","","html-keyboard-response","375","996876","0.0-6.0-2.51","","<div style=""font-size:60px;"">+</div>","null","","","","","","",""
"423.519999996759","","image-keyboard-response","376","997300","0.0-6.0-0.52","","img/orange.png","32","trial","32","true","0.6,0.4","3:go_c","",""
"null","","html-keyboard-response","377","998327","0.0-6.0-1.52","","<img src=""img/orange-r.png"" border=""10"">","null","trial","32","","0.6,0.4","3:go_c","1",""
"null","","html-keyboard-response","378","999328","0.0-6.0-2.52","","<div style=""font-size:60px;"">+</div>","null","","","","","","",""
"null","","image-keyboard-response","379","1000830","0.0-6.0-0.53","","img/green.png","null","trial","32","false","0.6,0.4","1:go_a","",""
"null","","html-keyboard-response","380","1001832","0.0-6.0-1.53","","<img src=""img/green-r.png"">","null","trial","32","","0.6,0.4","1:go_a","1",""
"null","","html-keyboard-response","381","1002833","0.0-6.0-2.53","","<div style=""font-size:60px;"">+</div>","null","","","","","","",""
"338.434999997844","","image-keyboard-response","382","1003172","0.0-6.0-0.54","","img/pink.png","32","trial","null","false","0.4,0.6","4:nogo_d","",""
"null","","html-keyboard-response","383","1004180","0.0-6.0-1.54","","<img src=""img/pink-r.png"" border=""10"">","null","trial","null","","0.4,0.6","4:nogo_d","1",""
"null","","html-keyboard-response","384","1005183","0.0-6.0-2.54","","<div style=""font-size:60px;"">+</div>","null","","","","","","",""
"492.4899999969639","","image-keyboard-response","385","1005677","0.0-6.0-0.55","","img/red.png","32","trial","null","false","0.4,0.6","2:nogo_b","",""
"null","","html-keyboard-response","386","1006679","0.0-6.0-1.55","","<img src=""img/red-r.png"" border=""10"">","null","trial","null","","0.4,0.6","2:nogo_b","1",""
"null","","html-keyboard-response","387","1007681","0.0-6.0-2.55","","<div style=""font-size:60px;"">+</div>","null","","","","","","",""
"538.9099999956088","","image-keyboard-response","388","1008220","0.0-6.0-0.56","","img/orange.png","32","trial","32","true","0.6,0.4","3:go_c","",""
"null","","html-keyboard-response","389","1009232","0.0-6.0-1.56","","<img src=""img/orange-n.png"" border=""10"">","null","trial","32","","0.6,0.4","3:go_c","0",""
"null","","html-keyboard-response","390","1010234","0.0-6.0-2.56","","<div style=""font-size:60px;"">+</div>","null","","","","","","",""
"425.9449999954086","","image-keyboard-response","391","1010660","0.0-6.0-0.57","","img/pink.png","32","trial","null","false","0.4,0.6","4:nogo_d","",""
"null","","html-keyboard-response","392","1011663","0.0-6.0-1.57","","<img src=""img/pink-r.png"" border=""10"">","null","trial","null","","0.4,0.6","4:nogo_d","1",""
"null","","html-keyboard-response","393","1012665","0.0-6.0-2.57","","<div style=""font-size:60px;"">+</div>","null","","","","","","",""
"443.0900000005495","","image-keyboard-response","394","1013108","0.0-6.0-0.58","","img/red.png","32","trial","null","false","0.4,0.6","2:nogo_b","",""
"null","","html-keyboard-response","395","1014111","0.0-6.0-1.58","","<img src=""img/red-r.png"" border=""10"">","null","trial","null","","0.4,0.6","2:nogo_b","1",""
"null","","html-keyboard-response","396","1015113","0.0-6.0-2.58","","<div style=""font-size:60px;"">+</div>","null","","","","","","",""
"370.2449999982491","","image-keyboard-response","397","1015484","0.0-6.0-0.59","","img/green.png","32","trial","32","true","0.6,0.4","1:go_a","",""
"null","","html-keyboard-response","398","1016486","0.0-6.0-1.59","","<img src=""img/green-n.png"" border=""10"">","null","trial","32","","0.6,0.4","1:go_a","0",""
"null","","html-keyboard-response","399","1017489","0.0-6.0-2.59","","<div style=""font-size:60px;"">+</div>","null","","","","","","",""
"null","","image-keyboard-response","400","1018991","0.0-6.0-0.60","","img/green.png","null","trial","32","false","0.6,0.4","1:go_a","",""
"null","","html-keyboard-response","401","1019995","0.0-6.0-1.60","","<img src=""img/green-r.png"">","null","trial","32","","0.6,0.4","1:go_a","1",""
"null","","html-keyboard-response","402","1020996","0.0-6.0-2.60","","<div style=""font-size:60px;"">+</div>","null","","","","","","",""
"503.90499999769963","","image-keyboard-response","403","1021501","0.0-6.0-0.61","","img/red.png","32","trial","null","false","0.4,0.6","2:nogo_b","",""
"null","","html-keyboard-response","404","1022503","0.0-6.0-1.61","","<img src=""img/red-n.png"" border=""10"">","null","trial","null","","0.4,0.6","2:nogo_b","0",""
"null","","html-keyboard-response","405","1023505","0.0-6.0-2.61","","<div style=""font-size:60px;"">+</div>","null","","","","","","",""
"738.7250000028871","","image-keyboard-response","406","1024244","0.0-6.0-0.62","","img/orange.png","32","trial","32","true","0.6,0.4","3:go_c","",""
"null","","html-keyboard-response","407","1025246","0.0-6.0-1.62","","<img src=""img/orange-r.png"" border=""10"">","null","trial","32","","0.6,0.4","3:go_c","1",""
"null","","html-keyboard-response","408","1026247","0.0-6.0-2.62","","<div style=""font-size:60px;"">+</div>","null","","","","","","",""
"652.6250000024447","","image-keyboard-response","409","1026901","0.0-6.0-0.63","","img/pink.png","32","trial","null","false","0.4,0.6","4:nogo_d","",""
"null","","html-keyboard-response","410","1027903","0.0-6.0-1.63","","<img src=""img/pink-n.png"" border=""10"">","null","trial","null","","0.4,0.6","4:nogo_d","0",""
"null","","html-keyboard-response","411","1028904","0.0-6.0-2.63","","<div style=""font-size:60px;"">+</div>","null","","","","","","",""
"404.1849999994738","","image-keyboard-response","412","1029334","0.0-6.0-0.64","","img/orange.png","32","trial","32","true","0.6,0.4","3:go_c","",""
"null","","html-keyboard-response","413","1030337","0.0-6.0-1.64","","<img src=""img/orange-r.png"" border=""10"">","null","trial","32","","0.6,0.4","3:go_c","1",""
"null","","html-keyboard-response","414","1031339","0.0-6.0-2.64","","<div style=""font-size:60px;"">+</div>","null","","","","","","",""
"null","","image-keyboard-response","415","1032841","0.0-6.0-0.65","","img/green.png","null","trial","32","false","0.6,0.4","1:go_a","",""
"null","","html-keyboard-response","416","1033843","0.0-6.0-1.65","","<img src=""img/green-r.png"">","null","trial","32","","0.6,0.4","1:go_a","1",""
"null","","html-keyboard-response","417","1034874","0.0-6.0-2.65","","<div style=""font-size:60px;"">+</div>","null","","","","","","",""
"514.8899999985006","","image-keyboard-response","418","1035390","0.0-6.0-0.66","","img/pink.png","32","trial","null","false","0.4,0.6","4:nogo_d","",""
"null","","html-keyboard-response","419","1036392","0.0-6.0-1.66","","<img src=""img/pink-r.png"" border=""10"">","null","trial","null","","0.4,0.6","4:nogo_d","1",""
"null","","html-keyboard-response","420","1037394","0.0-6.0-2.66","","<div style=""font-size:60px;"">+</div>","null","","","","","","",""
"522.3450000048615","","image-keyboard-response","421","1037918","0.0-6.0-0.67","","img/red.png","32","trial","null","false","0.4,0.6","2:nogo_b","",""
"null","","html-keyboard-response","422","1038920","0.0-6.0-1.67","","<img src=""img/red-n.png"" border=""10"">","null","trial","null","","0.4,0.6","2:nogo_b","0",""
"null","","html-keyboard-response","423","1039922","0.0-6.0-2.67","","<div style=""font-size:60px;"">+</div>","null","","","","","","",""
"null","","image-keyboard-response","424","1041424","0.0-6.0-0.68","","img/green.png","null","trial","32","false","0.6,0.4","1:go_a","",""
"null","","html-keyboard-response","425","1042426","0.0-6.0-1.68","","<img src=""img/green-r.png"">","null","trial","32","","0.6,0.4","1:go_a","1",""
"null","","html-keyboard-response","426","1043429","0.0-6.0-2.68","","<div style=""font-size:60px;"">+</div>","null","","","","","","",""
"536.7850000038743","","image-keyboard-response","427","1043966","0.0-6.0-0.69","","img/pink.png","32","trial","null","false","0.4,0.6","4:nogo_d","",""
"null","","html-keyboard-response","428","1044969","0.0-6.0-1.69","","<img src=""img/pink-r.png"" border=""10"">","null","trial","null","","0.4,0.6","4:nogo_d","1",""
"null","","html-keyboard-response","429","1045971","0.0-6.0-2.69","","<div style=""font-size:60px;"">+</div>","null","","","","","","",""
"723.034999995376","","image-keyboard-response","430","1046694","0.0-6.0-0.70","","img/orange.png","32","trial","32","true","0.6,0.4","3:go_c","",""
"null","","html-keyboard-response","431","1047696","0.0-6.0-1.70","","<img src=""img/orange-r.png"" border=""10"">","null","trial","32","","0.6,0.4","3:go_c","1",""
"null","","html-keyboard-response","432","1048699","0.0-6.0-2.70","","<div style=""font-size:60px;"">+</div>","null","","","","","","",""
"523.0299999967683","","image-keyboard-response","433","1049222","0.0-6.0-0.71","","img/red.png","32","trial","null","false","0.4,0.6","2:nogo_b","",""
"null","","html-keyboard-response","434","1050224","0.0-6.0-1.71","","<img src=""img/red-r.png"" border=""10"">","null","trial","null","","0.4,0.6","2:nogo_b","1",""
"null","","html-keyboard-response","435","1051225","0.0-6.0-2.71","","<div style=""font-size:60px;"">+</div>","null","","","","","","",""
"364.14499999955297","","image-keyboard-response","436","1051590","0.0-6.0-0.72","","img/red.png","32","trial","null","false","0.4,0.6","2:nogo_b","",""
"null","","html-keyboard-response","437","1052607","0.0-6.0-1.72","","<img src=""img/red-n.png"" border=""10"">","null","trial","null","","0.4,0.6","2:nogo_b","0",""
"null","","html-keyboard-response","438","1053609","0.0-6.0-2.72","","<div style=""font-size:60px;"">+</div>","null","","","","","","",""
"581.0149999961723","","image-keyboard-response","439","1054190","0.0-6.0-0.73","","img/pink.png","32","trial","null","false","0.4,0.6","4:nogo_d","",""
"null","","html-keyboard-response","440","1055193","0.0-6.0-1.73","","<img src=""img/pink-n.png"" border=""10"">","null","trial","null","","0.4,0.6","4:nogo_d","0",""
"null","","html-keyboard-response","441","1056194","0.0-6.0-2.73","","<div style=""font-size:60px;"">+</div>","null","","","","","","",""
"611.8849999983795","","image-keyboard-response","442","1056806","0.0-6.0-0.74","","img/orange.png","32","trial","32","true","0.6,0.4","3:go_c","",""
"null","","html-keyboard-response","443","1057809","0.0-6.0-1.74","","<img src=""img/orange-r.png"" border=""10"">","null","trial","32","","0.6,0.4","3:go_c","1",""
"null","","html-keyboard-response","444","1058811","0.0-6.0-2.74","","<div style=""font-size:60px;"">+</div>","null","","","","","","",""
"402.66500000143424","","image-keyboard-response","445","1059214","0.0-6.0-0.75","","img/green.png","32","trial","32","true","0.6,0.4","1:go_a","",""
"null","","html-keyboard-response","446","1060217","0.0-6.0-1.75","","<img src=""img/green-n.png"" border=""10"">","null","trial","32","","0.6,0.4","1:go_a","0",""
"null","","html-keyboard-response","447","1061218","0.0-6.0-2.75","","<div style=""font-size:60px;"">+</div>","null","","","","","","",""
"467.06499999715015","","image-keyboard-response","448","1061686","0.0-6.0-0.76","","img/red.png","32","trial","null","false","0.4,0.6","2:nogo_b","",""
"null","","html-keyboard-response","449","1062688","0.0-6.0-1.76","","<img src=""img/red-r.png"" border=""10"">","null","trial","null","","0.4,0.6","2:nogo_b","1",""
"null","","html-keyboard-response","450","1063690","0.0-6.0-2.76","","<div style=""font-size:60px;"">+</div>","null","","","","","","",""
"null","","image-keyboard-response","451","1065192","0.0-6.0-0.77","","img/green.png","null","trial","32","false","0.6,0.4","1:go_a","",""
"null","","html-keyboard-response","452","1066194","0.0-6.0-1.77","","<img src=""img/green-n.png"">","null","trial","32","","0.6,0.4","1:go_a","0",""
"null","","html-keyboard-response","453","1067195","0.0-6.0-2.77","","<div style=""font-size:60px;"">+</div>","null","","","","","","",""
"442.23000000067987","","image-keyboard-response","454","1067638","0.0-6.0-0.78","","img/pink.png","32","trial","null","false","0.4,0.6","4:nogo_d","",""
"null","","html-keyboard-response","455","1068640","0.0-6.0-1.78","","<img src=""img/pink-n.png"" border=""10"">","null","trial","null","","0.4,0.6","4:nogo_d","0",""
"null","","html-keyboard-response","456","1069648","0.0-6.0-2.78","","<div style=""font-size:60px;"">+</div>","null","","","","","","",""
"917.8600000014994","","image-keyboard-response","457","1070566","0.0-6.0-0.79","","img/orange.png","32","trial","32","true","0.6,0.4","3:go_c","",""
"null","","html-keyboard-response","458","1071569","0.0-6.0-1.79","","<img src=""img/orange-r.png"" border=""10"">","null","trial","32","","0.6,0.4","3:go_c","1",""
"null","","html-keyboard-response","459","1072571","0.0-6.0-2.79","","<div style=""font-size:60px;"">+</div>","null","","","","","","",""
"null","","image-keyboard-response","460","1074073","0.0-6.0-0.80","","img/green.png","null","trial","32","false","0.6,0.4","1:go_a","",""
"null","","html-keyboard-response","461","1075074","0.0-6.0-1.80","","<img src=""img/green-n.png"">","null","trial","32","","0.6,0.4","1:go_a","0",""
"null","","html-keyboard-response","462","1076076","0.0-6.0-2.80","","<div style=""font-size:60px;"">+</div>","null","","","","","","",""
"377.8600000003353","","image-keyboard-response","463","1076454","0.0-6.0-0.81","","img/pink.png","32","trial","null","false","0.4,0.6","4:nogo_d","",""
"null","","html-keyboard-response","464","1077457","0.0-6.0-1.81","","<img src=""img/pink-n.png"" border=""10"">","null","trial","null","","0.4,0.6","4:nogo_d","0",""
"null","","html-keyboard-response","465","1078458","0.0-6.0-2.81","","<div style=""font-size:60px;"">+</div>","null","","","","","","",""
"747.6650000023656","","image-keyboard-response","466","1079206","0.0-6.0-0.82","","img/red.png","32","trial","null","false","0.4,0.6","2:nogo_b","",""
"null","","html-keyboard-response","467","1080209","0.0-6.0-1.82","","<img src=""img/red-r.png"" border=""10"">","null","trial","null","","0.4,0.6","2:nogo_b","1",""
"null","","html-keyboard-response","468","1081210","0.0-6.0-2.82","","<div style=""font-size:60px;"">+</div>","null","","","","","","",""
"418.8050000013318","","image-keyboard-response","469","1081630","0.0-6.0-0.83","","img/orange.png","32","trial","32","true","0.6,0.4","3:go_c","",""
"null","","html-keyboard-response","470","1082632","0.0-6.0-1.83","","<img src=""img/orange-n.png"" border=""10"">","null","trial","32","","0.6,0.4","3:go_c","0",""
"null","","html-keyboard-response","471","1083634","0.0-6.0-2.83","","<div style=""font-size:60px;"">+</div>","null","","","","","","",""
"458.5450000013225","","image-keyboard-response","472","1084094","0.0-6.0-0.84","","img/red.png","32","trial","null","false","0.4,0.6","2:nogo_b","",""
"null","","html-keyboard-response","473","1085097","0.0-6.0-1.84","","<img src=""img/red-n.png"" border=""10"">","null","trial","null","","0.4,0.6","2:nogo_b","0",""
"null","","html-keyboard-response","474","1086097","0.0-6.0-2.84","","<div style=""font-size:60px;"">+</div>","null","","","","","","",""
"580.0100000051316","","image-keyboard-response","475","1086678","0.0-6.0-0.85","","img/pink.png","32","trial","null","false","0.4,0.6","4:nogo_d","",""
"null","","html-keyboard-response","476","1087681","0.0-6.0-1.85","","<img src=""img/pink-n.png"" border=""10"">","null","trial","null","","0.4,0.6","4:nogo_d","0",""
"null","","html-keyboard-response","477","1088683","0.0-6.0-2.85","","<div style=""font-size:60px;"">+</div>","null","","","","","","",""
"882.9350000014529","","image-keyboard-response","478","1089566","0.0-6.0-0.86","","img/orange.png","32","trial","32","true","0.6,0.4","3:go_c","",""
"null","","html-keyboard-response","479","1090568","0.0-6.0-1.86","","<img src=""img/orange-n.png"" border=""10"">","null","trial","32","","0.6,0.4","3:go_c","0",""
"null","","html-keyboard-response","480","1091570","0.0-6.0-2.86","","<div style=""font-size:60px;"">+</div>","null","","","","","","",""
"555.9749999959022","","image-keyboard-response","481","1092127","0.0-6.0-0.87","","img/green.png","32","trial","32","true","0.6,0.4","1:go_a","",""
"null","","html-keyboard-response","482","1093129","0.0-6.0-1.87","","<img src=""img/green-r.png"" border=""10"">","null","trial","32","","0.6,0.4","1:go_a","1",""
"null","","html-keyboard-response","483","1094130","0.0-6.0-2.87","","<div style=""font-size:60px;"">+</div>","null","","","","","","",""
"874.8500000000931","","image-keyboard-response","484","1095006","0.0-6.0-0.88","","img/red.png","32","trial","null","false","0.4,0.6","2:nogo_b","",""
"null","","html-keyboard-response","485","1096009","0.0-6.0-1.88","","<img src=""img/red-r.png"" border=""10"">","null","trial","null","","0.4,0.6","2:nogo_b","1",""
"null","","html-keyboard-response","486","1097011","0.0-6.0-2.88","","<div style=""font-size:60px;"">+</div>","null","","","","","","",""
"314.8399999991525","","image-keyboard-response","487","1097326","0.0-6.0-0.89","","img/pink.png","32","trial","null","false","0.4,0.6","4:nogo_d","",""
"null","","html-keyboard-response","488","1098329","0.0-6.0-1.89","","<img src=""img/pink-r.png"" border=""10"">","null","trial","null","","0.4,0.6","4:nogo_d","1",""
"null","","html-keyboard-response","489","1099330","0.0-6.0-2.89","","<div style=""font-size:60px;"">+</div>","null","","","","","","",""
"null","","image-keyboard-response","490","1100831","0.0-6.0-0.90","","img/green.png","null","trial","32","false","0.6,0.4","1:go_a","",""
"null","","html-keyboard-response","491","1101833","0.0-6.0-1.90","","<img src=""img/green-n.png"">","null","trial","32","","0.6,0.4","1:go_a","0",""
"null","","html-keyboard-response","492","1102834","0.0-6.0-2.90","","<div style=""font-size:60px;"">+</div>","null","","","","","","",""
"667.0649999941234","","image-keyboard-response","493","1103502","0.0-6.0-0.91","","img/orange.png","32","trial","32","true","0.6,0.4","3:go_c","",""
"null","","html-keyboard-response","494","1104505","0.0-6.0-1.91","","<img src=""img/orange-n.png"" border=""10"">","null","trial","32","","0.6,0.4","3:go_c","0",""
"null","","html-keyboard-response","495","1105506","0.0-6.0-2.91","","<div style=""font-size:60px;"">+</div>","null","","","","","","",""
"875.7050000058953","","image-keyboard-response","496","1106382","0.0-6.0-0.92","","img/orange.png","32","trial","32","true","0.6,0.4","3:go_c","",""
"null","","html-keyboard-response","497","1107385","0.0-6.0-1.92","","<img src=""img/orange-r.png"" border=""10"">","null","trial","32","","0.6,0.4","3:go_c","1",""
"null","","html-keyboard-response","498","1108386","0.0-6.0-2.92","","<div style=""font-size:60px;"">+</div>","null","","","","","","",""
"699.1299999936018","","image-keyboard-response","499","1109086","0.0-6.0-0.93","","img/pink.png","32","trial","null","false","0.4,0.6","4:nogo_d","",""
"null","","html-keyboard-response","500","1110088","0.0-6.0-1.93","","<img src=""img/pink-r.png"" border=""10"">","null","trial","null","","0.4,0.6","4:nogo_d","1",""
"null","","html-keyboard-response","501","1111091","0.0-6.0-2.93","","<div style=""font-size:60px;"">+</div>","null","","","","","","",""
"null","","image-keyboard-response","502","1112593","0.0-6.0-0.94","","img/green.png","null","trial","32","false","0.6,0.4","1:go_a","",""
"null","","html-keyboard-response","503","1113595","0.0-6.0-1.94","","<img src=""img/green-r.png"">","null","trial","32","","0.6,0.4","1:go_a","1",""
"null","","html-keyboard-response","504","1114597","0.0-6.0-2.94","","<div style=""font-size:60px;"">+</div>","null","","","","","","",""
"649.1900000036694","","image-keyboard-response","505","1115246","0.0-6.0-0.95","","img/red.png","32","trial","null","false","0.4,0.6","2:nogo_b","",""
"null","","html-keyboard-response","506","1116249","0.0-6.0-1.95","","<img src=""img/red-r.png"" border=""10"">","null","trial","null","","0.4,0.6","2:nogo_b","1",""
"null","","html-keyboard-response","507","1117251","0.0-6.0-2.95","","<div style=""font-size:60px;"">+</div>","null","","","","","","",""
"514.8499999996275","","image-keyboard-response","508","1117766","0.0-6.0-0.96","","img/red.png","32","trial","null","false","0.4,0.6","2:nogo_b","",""
"null","","html-keyboard-response","509","1118769","0.0-6.0-1.96","","<img src=""img/red-n.png"" border=""10"">","null","trial","null","","0.4,0.6","2:nogo_b","0",""
"null","","html-keyboard-response","510","1119773","0.0-6.0-2.96","","<div style=""font-size:60px;"">+</div>","null","","","","","","",""
"1032.1400000029244","","image-keyboard-response","511","1120806","0.0-6.0-0.97","","img/pink.png","32","trial","null","false","0.4,0.6","4:nogo_d","",""
"null","","html-keyboard-response","512","1121808","0.0-6.0-1.97","","<img src=""img/pink-r.png"" border=""10"">","null","trial","null","","0.4,0.6","4:nogo_d","1",""
"null","","html-keyboard-response","513","1122810","0.0-6.0-2.97","","<div style=""font-size:60px;"">+</div>","null","","","","","","",""
"null","","image-keyboard-response","514","1124313","0.0-6.0-0.98","","img/green.png","null","trial","32","false","0.6,0.4","1:go_a","",""
"null","","html-keyboard-response","515","1125329","0.0-6.0-1.98","","<img src=""img/green-n.png"">","null","trial","32","","0.6,0.4","1:go_a","0",""
"null","","html-keyboard-response","516","1126329","0.0-6.0-2.98","","<div style=""font-size:60px;"">+</div>","null","","","","","","",""
"372.9700000039302","","image-keyboard-response","517","1126703","0.0-6.0-0.99","","img/orange.png","32","trial","32","true","0.6,0.4","3:go_c","",""
"null","","html-keyboard-response","518","1127705","0.0-6.0-1.99","","<img src=""img/orange-n.png"" border=""10"">","null","trial","32","","0.6,0.4","3:go_c","0",""
"null","","html-keyboard-response","519","1128707","0.0-6.0-2.99","","<div style=""font-size:60px;"">+</div>","null","","","","","","",""
"null","","image-keyboard-response","520","1130209","0.0-6.0-0.100","","img/green.png","null","trial","32","false","0.6,0.4","1:go_a","",""
"null","","html-keyboard-response","521","1131211","0.0-6.0-1.100","","<img src=""img/green-n.png"">","null","trial","32","","0.6,0.4","1:go_a","0",""
"null","","html-keyboard-response","522","1132213","0.0-6.0-2.100","","<div style=""font-size:60px;"">+</div>","null","","","","","","",""
"497.154999997234","","image-keyboard-response","523","1132710","0.0-6.0-0.101","","img/pink.png","32","trial","null","false","0.4,0.6","4:nogo_d","",""
"null","","html-keyboard-response","524","1133719","0.0-6.0-1.101","","<img src=""img/pink-n.png"" border=""10"">","null","trial","null","","0.4,0.6","4:nogo_d","0",""
"null","","html-keyboard-response","525","1134721","0.0-6.0-2.101","","<div style=""font-size:60px;"">+</div>","null","","","","","","",""
"452.9849999961443","","image-keyboard-response","526","1135174","0.0-6.0-0.102","","img/orange.png","32","trial","32","true","0.6,0.4","3:go_c","",""
"null","","html-keyboard-response","527","1136177","0.0-6.0-1.102","","<img src=""img/orange-r.png"" border=""10"">","null","trial","32","","0.6,0.4","3:go_c","1",""
"null","","html-keyboard-response","528","1137178","0.0-6.0-2.102","","<div style=""font-size:60px;"">+</div>","null","","","","","","",""
"795.6100000010338","","image-keyboard-response","529","1137974","0.0-6.0-0.103","","img/red.png","32","trial","null","false","0.4,0.6","2:nogo_b","",""
"null","","html-keyboard-response","530","1138979","0.0-6.0-1.103","","<img src=""img/red-n.png"" border=""10"">","null","trial","null","","0.4,0.6","2:nogo_b","0",""
"null","","html-keyboard-response","531","1139981","0.0-6.0-2.103","","<div style=""font-size:60px;"">+</div>","null","","","","","","",""
"null","","image-keyboard-response","532","1141483","0.0-6.0-0.104","","img/green.png","null","trial","32","false","0.6,0.4","1:go_a","",""
"null","","html-keyboard-response","533","1142484","0.0-6.0-1.104","","<img src=""img/green-n.png"">","null","trial","32","","0.6,0.4","1:go_a","0",""
"null","","html-keyboard-response","534","1143486","0.0-6.0-2.104","","<div style=""font-size:60px;"">+</div>","null","","","","","","",""
"440.02999999793246","","image-keyboard-response","535","1143926","0.0-6.0-0.105","","img/orange.png","32","trial","32","true","0.6,0.4","3:go_c","",""
"null","","html-keyboard-response","536","1144929","0.0-6.0-1.105","","<img src=""img/orange-n.png"" border=""10"">","null","trial","32","","0.6,0.4","3:go_c","0",""
"null","","html-keyboard-response","537","1145930","0.0-6.0-2.105","","<div style=""font-size:60px;"">+</div>","null","","","","","","",""
"1067.5350000017788","","image-keyboard-response","538","1146998","0.0-6.0-0.106","","img/pink.png","32","trial","null","false","0.4,0.6","4:nogo_d","",""
"null","","html-keyboard-response","539","1148000","0.0-6.0-1.106","","<img src=""img/pink-n.png"" border=""10"">","null","trial","null","","0.4,0.6","4:nogo_d","0",""
"null","","html-keyboard-response","540","1149001","0.0-6.0-2.106","","<div style=""font-size:60px;"">+</div>","null","","","","","","",""
"787.9300000059884","","image-keyboard-response","541","1149780","0.0-6.0-0.107","","img/red.png","32","trial","null","false","0.4,0.6","2:nogo_b","",""
"null","","html-keyboard-response","542","1150782","0.0-6.0-1.107","","<img src=""img/red-r.png"" border=""10"">","null","trial","null","","0.4,0.6","2:nogo_b","1",""
"null","","html-keyboard-response","543","1151783","0.0-6.0-2.107","","<div style=""font-size:60px;"">+</div>","null","","","","","","",""
"531.7900000009686","","image-keyboard-response","544","1152316","0.0-6.0-0.108","","img/red.png","32","trial","null","false","0.4,0.6","2:nogo_b","",""
"null","","html-keyboard-response","545","1153319","0.0-6.0-1.108","","<img src=""img/red-r.png"" border=""10"">","null","trial","null","","0.4,0.6","2:nogo_b","1",""
"null","","html-keyboard-response","546","1154320","0.0-6.0-2.108","","<div style=""font-size:60px;"">+</div>","null","","","","","","",""
"946.875000001397","","image-keyboard-response","547","1155268","0.0-6.0-0.109","","img/pink.png","32","trial","null","false","0.4,0.6","4:nogo_d","",""
"null","","html-keyboard-response","548","1156270","0.0-6.0-1.109","","<img src=""img/pink-r.png"" border=""10"">","null","trial","null","","0.4,0.6","4:nogo_d","1",""
"null","","html-keyboard-response","549","1157271","0.0-6.0-2.109","","<div style=""font-size:60px;"">+</div>","null","","","","","","",""
"435.88499999884516","","image-keyboard-response","550","1157708","0.0-6.0-0.110","","img/orange.png","32","trial","32","true","0.6,0.4","3:go_c","",""
"null","","html-keyboard-response","551","1158710","0.0-6.0-1.110","","<img src=""img/orange-n.png"" border=""10"">","null","trial","32","","0.6,0.4","3:go_c","0",""
"null","","html-keyboard-response","552","1159712","0.0-6.0-2.110","","<div style=""font-size:60px;"">+</div>","null","","","","","","",""
"null","","image-keyboard-response","553","1161214","0.0-6.0-0.111","","img/green.png","null","trial","32","false","0.6,0.4","1:go_a","",""
"null","","html-keyboard-response","554","1162216","0.0-6.0-1.111","","<img src=""img/green-n.png"">","null","trial","32","","0.6,0.4","1:go_a","0",""
"null","","html-keyboard-response","555","1163218","0.0-6.0-2.111","","<div style=""font-size:60px;"">+</div>","null","","","","","","",""
"297.49500000616536","","image-keyboard-response","556","1163516","0.0-6.0-0.112","","img/red.png","32","trial","null","false","0.4,0.6","2:nogo_b","",""
"null","","html-keyboard-response","557","1164519","0.0-6.0-1.112","","<img src=""img/red-n.png"" border=""10"">","null","trial","null","","0.4,0.6","2:nogo_b","0",""
"null","","html-keyboard-response","558","1165520","0.0-6.0-2.112","","<div style=""font-size:60px;"">+</div>","null","","","","","","",""
"null","","image-keyboard-response","559","1167022","0.0-6.0-0.113","","img/green.png","null","trial","32","false","0.6,0.4","1:go_a","",""
"null","","html-keyboard-response","560","1168024","0.0-6.0-1.113","","<img src=""img/green-n.png"">","null","trial","32","","0.6,0.4","1:go_a","0",""
"null","","html-keyboard-response","561","1169026","0.0-6.0-2.113","","<div style=""font-size:60px;"">+</div>","null","","","","","","",""
"513.2799999993294","","image-keyboard-response","562","1169540","0.0-6.0-0.114","","img/pink.png","32","trial","null","false","0.4,0.6","4:nogo_d","",""
"null","","html-keyboard-response","563","1170543","0.0-6.0-1.114","","<img src=""img/pink-n.png"" border=""10"">","null","trial","null","","0.4,0.6","4:nogo_d","0",""
"null","","html-keyboard-response","564","1171544","0.0-6.0-2.114","","<div style=""font-size:60px;"">+</div>","null","","","","","","",""
"754.6949999961071","","image-keyboard-response","565","1172300","0.0-6.0-0.115","","img/orange.png","32","trial","32","true","0.6,0.4","3:go_c","",""
"null","","html-keyboard-response","566","1173302","0.0-6.0-1.115","","<img src=""img/orange-r.png"" border=""10"">","null","trial","32","","0.6,0.4","3:go_c","1",""
"null","","html-keyboard-response","567","1174304","0.0-6.0-2.115","","<div style=""font-size:60px;"">+</div>","null","","","","","","",""
"843.0000000006985","","image-keyboard-response","568","1175148","0.0-6.0-0.116","","img/red.png","32","trial","null","false","0.4,0.6","2:nogo_b","",""
"null","","html-keyboard-response","569","1176150","0.0-6.0-1.116","","<img src=""img/red-n.png"" border=""10"">","null","trial","null","","0.4,0.6","2:nogo_b","0",""
"null","","html-keyboard-response","570","1177152","0.0-6.0-2.116","","<div style=""font-size:60px;"">+</div>","null","","","","","","",""
"667.5600000019185","","image-keyboard-response","571","1177820","0.0-6.0-0.117","","img/green.png","32","trial","32","true","0.6,0.4","1:go_a","",""
"null","","html-keyboard-response","572","1178823","0.0-6.0-1.117","","<img src=""img/green-r.png"" border=""10"">","null","trial","32","","0.6,0.4","1:go_a","1",""
"null","","html-keyboard-response","573","1179824","0.0-6.0-2.117","","<div style=""font-size:60px;"">+</div>","null","","","","","","",""
"386.3850000053644","","image-keyboard-response","574","1180212","0.0-6.0-0.118","","img/pink.png","32","trial","null","false","0.4,0.6","4:nogo_d","",""
"null","","html-keyboard-response","575","1181213","0.0-6.0-1.118","","<img src=""img/pink-n.png"" border=""10"">","null","trial","null","","0.4,0.6","4:nogo_d","0",""
"null","","html-keyboard-response","576","1182214","0.0-6.0-2.118","","<div style=""font-size:60px;"">+</div>","null","","","","","","",""
"708.8750000039581","","image-keyboard-response","577","1182924","0.0-6.0-0.119","","img/orange.png","32","trial","32","true","0.6,0.4","3:go_c","",""
"null","","html-keyboard-response","578","1183926","0.0-6.0-1.119","","<img src=""img/orange-r.png"" border=""10"">","null","trial","32","","0.6,0.4","3:go_c","1",""
"null","","html-keyboard-response","579","1184928","0.0-6.0-2.119","","<div style=""font-size:60px;"">+</div>","null","","","","","","",""
"453751.5399999975","","instructions","580","1638648","0.0-7.0","[{""page_index"":0,""viewing_time"":453751.2700000007}]","","","","","","","","",""
"819.4849999998696","","image-keyboard-response","581","1639469","0.0-8.0-0.0","","img/orange.png","32","trial","null","false","0.2,0.8","2:nogo_b","",""
"null","","html-keyboard-response","582","1640472","0.0-8.0-1.0","","<img src=""img/orange-r.png"" border=""10"">","null","trial","null","","0.2,0.8","2:nogo_b","1",""
"null","","html-keyboard-response","583","1641473","0.0-8.0-2.0","","<div style=""font-size:60px;"">+</div>","null","","","","","","",""
"578.9499999955297","","image-keyboard-response","584","1642053","0.0-8.0-0.1","","img/yellow.png","32","trial","32","true","0.8,0.2","1:go_a","",""
"null","","html-keyboard-response","585","1643057","0.0-8.0-1.1","","<img src=""img/yellow-r.png"" border=""10"">","null","trial","32","","0.8,0.2","1:go_a","1",""
"null","","html-keyboard-response","586","1644058","0.0-8.0-2.1","","<div style=""font-size:60px;"">+</div>","null","","","","","","",""
"441.93499999539927","","image-keyboard-response","587","1644501","0.0-8.0-0.2","","img/blue.png","32","trial","32","true","0.8,0.2","3:go_c","",""
"null","","html-keyboard-response","588","1645504","0.0-8.0-1.2","","<img src=""img/blue-n.png"" border=""10"">","null","trial","32","","0.8,0.2","3:go_c","0",""
"null","","html-keyboard-response","589","1646505","0.0-8.0-2.2","","<div style=""font-size:60px;"">+</div>","null","","","","","","",""
"1139.8799999952316","","image-keyboard-response","590","1647645","0.0-8.0-0.3","","img/green.png","32","trial","null","false","0.2,0.8","4:nogo_d","",""
"null","","html-keyboard-response","591","1648647","0.0-8.0-1.3","","<img src=""img/green-n.png"" border=""10"">","null","trial","null","","0.2,0.8","4:nogo_d","0",""
"null","","html-keyboard-response","592","1649649","0.0-8.0-2.3","","<div style=""font-size:60px;"">+</div>","null","","","","","","",""
"387.7399999983609","","image-keyboard-response","593","1650037","0.0-8.0-0.4","","img/orange.png","32","trial","null","false","0.2,0.8","2:nogo_b","",""
"null","","html-keyboard-response","594","1651040","0.0-8.0-1.4","","<img src=""img/orange-n.png"" border=""10"">","null","trial","null","","0.2,0.8","2:nogo_b","0",""
"null","","html-keyboard-response","595","1652043","0.0-8.0-2.4","","<div style=""font-size:60px;"">+</div>","null","","","","","","",""
"393.0049999980256","","image-keyboard-response","596","1652437","0.0-8.0-0.5","","img/blue.png","32","trial","32","true","0.8,0.2","3:go_c","",""
"null","","html-keyboard-response","597","1653439","0.0-8.0-1.5","","<img src=""img/blue-r.png"" border=""10"">","null","trial","32","","0.8,0.2","3:go_c","1",""
"null","","html-keyboard-response","598","1654440","0.0-8.0-2.5","","<div style=""font-size:60px;"">+</div>","null","","","","","","",""
"null","","image-keyboard-response","599","1655942","0.0-8.0-0.6","","img/yellow.png","null","trial","32","false","0.8,0.2","1:go_a","",""
"null","","html-keyboard-response","600","1656944","0.0-8.0-1.6","","<img src=""img/yellow-n.png"">","null","trial","32","","0.8,0.2","1:go_a","0",""
"null","","html-keyboard-response","601","1657947","0.0-8.0-2.6","","<div style=""font-size:60px;"">+</div>","null","","","","","","",""
"289.77999999932945","","image-keyboard-response","602","1658237","0.0-8.0-0.7","","img/green.png","32","trial","null","false","0.2,0.8","4:nogo_d","",""
"null","","html-keyboard-response","603","1659239","0.0-8.0-1.7","","<img src=""img/green-n.png"" border=""10"">","null","trial","null","","0.2,0.8","4:nogo_d","0",""
"null","","html-keyboard-response","604","1660241","0.0-8.0-2.7","","<div style=""font-size:60px;"">+</div>","null","","","","","","",""
"574.5249999961816","","image-keyboard-response","605","1660817","0.0-8.0-0.8","","img/blue.png","32","trial","32","true","0.8,0.2","3:go_c","",""
"null","","html-keyboard-response","606","1661820","0.0-8.0-1.8","","<img src=""img/blue-r.png"" border=""10"">","null","trial","32","","0.8,0.2","3:go_c","1",""
"null","","html-keyboard-response","607","1662822","0.0-8.0-2.8","","<div style=""font-size:60px;"">+</div>","null","","","","","","",""
"966.6649999998044","","image-keyboard-response","608","1663789","0.0-8.0-0.9","","img/yellow.png","32","trial","32","true","0.8,0.2","1:go_a","",""
"null","","html-keyboard-response","609","1664792","0.0-8.0-1.9","","<img src=""img/yellow-r.png"" border=""10"">","null","trial","32","","0.8,0.2","1:go_a","1",""
"null","","html-keyboard-response","610","1665794","0.0-8.0-2.9","","<div style=""font-size:60px;"">+</div>","null","","","","","","",""
"null","","image-keyboard-response","611","1667296","0.0-8.0-0.10","","img/green.png","null","trial","null","true","0.2,0.8","4:nogo_d","",""
"null","","html-keyboard-response","612","1668298","0.0-8.0-1.10","","<img src=""img/green-n.png"">","null","trial","null","","0.2,0.8","4:nogo_d","0",""
"null","","html-keyboard-response","613","1669299","0.0-8.0-2.10","","<div style=""font-size:60px;"">+</div>","null","","","","","","",""
"null","","image-keyboard-response","614","1670802","0.0-8.0-0.11","","img/orange.png","null","trial","null","true","0.2,0.8","2:nogo_b","",""
"null","","html-keyboard-response","615","1671804","0.0-8.0-1.11","","<img src=""img/orange-r.png"">","null","trial","null","","0.2,0.8","2:nogo_b","1",""
"null","","html-keyboard-response","616","1672805","0.0-8.0-2.11","","<div style=""font-size:60px;"">+</div>","null","","","","","","",""
"287.73999999975786","","image-keyboard-response","617","1673093","0.0-8.0-0.12","","img/blue.png","32","trial","32","true","0.8,0.2","3:go_c","",""
"null","","html-keyboard-response","618","1674096","0.0-8.0-1.12","","<img src=""img/blue-r.png"" border=""10"">","null","trial","32","","0.8,0.2","3:go_c","1",""
"null","","html-keyboard-response","619","1675099","0.0-8.0-2.12","","<div style=""font-size:60px;"">+</div>","null","","","","","","",""
"null","","image-keyboard-response","620","1676600","0.0-8.0-0.13","","img/green.png","null","trial","null","true","0.2,0.8","4:nogo_d","",""
"null","","html-keyboard-response","621","1677611","0.0-8.0-1.13","","<img src=""img/green-r.png"">","null","trial","null","","0.2,0.8","4:nogo_d","1",""
"null","","html-keyboard-response","622","1678612","0.0-8.0-2.13","","<div style=""font-size:60px;"">+</div>","null","","","","","","",""
"1145.1449999951292","","image-keyboard-response","623","1679757","0.0-8.0-0.14","","img/yellow.png","32","trial","32","true","0.8,0.2","1:go_a","",""
"null","","html-keyboard-response","624","1680759","0.0-8.0-1.14","","<img src=""img/yellow-r.png"" border=""10"">","null","trial","32","","0.8,0.2","1:go_a","1",""
"null","","html-keyboard-response","625","1681773","0.0-8.0-2.14","","<div style=""font-size:60px;"">+</div>","null","","","","","","",""
"null","","image-keyboard-response","626","1683275","0.0-8.0-0.15","","img/orange.png","null","trial","null","true","0.2,0.8","2:nogo_b","",""
"null","","html-keyboard-response","627","1684277","0.0-8.0-1.15","","<img src=""img/orange-r.png"">","null","trial","null","","0.2,0.8","2:nogo_b","1",""
"null","","html-keyboard-response","628","1685279","0.0-8.0-2.15","","<div style=""font-size:60px;"">+</div>","null","","","","","","",""
"429.1450000018813","","image-keyboard-response","629","1685709","0.0-8.0-0.16","","img/yellow.png","32","trial","32","true","0.8,0.2","1:go_a","",""
"null","","html-keyboard-response","630","1686711","0.0-8.0-1.16","","<img src=""img/yellow-r.png"" border=""10"">","null","trial","32","","0.8,0.2","1:go_a","1",""
"null","","html-keyboard-response","631","1687714","0.0-8.0-2.16","","<div style=""font-size:60px;"">+</div>","null","","","","","","",""
"570.3900000008289","","image-keyboard-response","632","1688285","0.0-8.0-0.17","","img/blue.png","32","trial","32","true","0.8,0.2","3:go_c","",""
"null","","html-keyboard-response","633","1689288","0.0-8.0-1.17","","<img src=""img/blue-r.png"" border=""10"">","null","trial","32","","0.8,0.2","3:go_c","1",""
"null","","html-keyboard-response","634","1690291","0.0-8.0-2.17","","<div style=""font-size:60px;"">+</div>","null","","","","","","",""
"null","","image-keyboard-response","635","1691794","0.0-8.0-0.18","","img/green.png","null","trial","null","true","0.2,0.8","4:nogo_d","",""
"null","","html-keyboard-response","636","1692797","0.0-8.0-1.18","","<img src=""img/green-r.png"">","null","trial","null","","0.2,0.8","4:nogo_d","1",""
"null","","html-keyboard-response","637","1693797","0.0-8.0-2.18","","<div style=""font-size:60px;"">+</div>","null","","","","","","",""
"null","","image-keyboard-response","638","1695299","0.0-8.0-0.19","","img/orange.png","null","trial","null","true","0.2,0.8","2:nogo_b","",""
"null","","html-keyboard-response","639","1696302","0.0-8.0-1.19","","<img src=""img/orange-n.png"">","null","trial","null","","0.2,0.8","2:nogo_b","0",""
"null","","html-keyboard-response","640","1697303","0.0-8.0-2.19","","<div style=""font-size:60px;"">+</div>","null","","","","","","",""
"772.8050000004005","","image-keyboard-response","641","1698078","0.0-8.0-0.20","","img/yellow.png","32","trial","32","true","0.8,0.2","1:go_a","",""
"null","","html-keyboard-response","642","1699080","0.0-8.0-1.20","","<img src=""img/yellow-n.png"" border=""10"">","null","trial","32","","0.8,0.2","1:go_a","0",""
"null","","html-keyboard-response","643","1700082","0.0-8.0-2.20","","<div style=""font-size:60px;"">+</div>","null","","","","","","",""
"515.4850000035949","","image-keyboard-response","644","1700598","0.0-8.0-0.21","","img/blue.png","32","trial","32","true","0.8,0.2","3:go_c","",""
"null","","html-keyboard-response","645","1701600","0.0-8.0-1.21","","<img src=""img/blue-r.png"" border=""10"">","null","trial","32","","0.8,0.2","3:go_c","1",""
"null","","html-keyboard-response","646","1702601","0.0-8.0-2.21","","<div style=""font-size:60px;"">+</div>","null","","","","","","",""
"null","","image-keyboard-response","647","1704103","0.0-8.0-0.22","","img/orange.png","null","trial","null","true","0.2,0.8","2:nogo_b","",""
"null","","html-keyboard-response","648","1705105","0.0-8.0-1.22","","<img src=""img/orange-r.png"">","null","trial","null","","0.2,0.8","2:nogo_b","1",""
"null","","html-keyboard-response","649","1706107","0.0-8.0-2.22","","<div style=""font-size:60px;"">+</div>","null","","","","","","",""
"null","","image-keyboard-response","650","1707609","0.0-8.0-0.23","","img/green.png","null","trial","null","true","0.2,0.8","4:nogo_d","",""
"null","","html-keyboard-response","651","1708611","0.0-8.0-1.23","","<img src=""img/green-n.png"">","null","trial","null","","0.2,0.8","4:nogo_d","0",""
"null","","html-keyboard-response","652","1709613","0.0-8.0-2.23","","<div style=""font-size:60px;"">+</div>","null","","","","","","",""
"448.8700000003446","","image-keyboard-response","653","1710062","0.0-8.0-0.24","","img/yellow.png","32","trial","32","true","0.8,0.2","1:go_a","",""
"null","","html-keyboard-response","654","1711065","0.0-8.0-1.24","","<img src=""img/yellow-r.png"" border=""10"">","null","trial","32","","0.8,0.2","1:go_a","1",""
"null","","html-keyboard-response","655","1712066","0.0-8.0-2.24","","<div style=""font-size:60px;"">+</div>","null","","","","","","",""
"null","","image-keyboard-response","656","1713568","0.0-8.0-0.25","","img/orange.png","null","trial","null","true","0.2,0.8","2:nogo_b","",""
"null","","html-keyboard-response","657","1714569","0.0-8.0-1.25","","<img src=""img/orange-n.png"">","null","trial","null","","0.2,0.8","2:nogo_b","0",""
"null","","html-keyboard-response","658","1715571","0.0-8.0-2.25","","<div style=""font-size:60px;"">+</div>","null","","","","","","",""
"337.82000000053085","","image-keyboard-response","659","1715910","0.0-8.0-0.26","","img/blue.png","32","trial","32","true","0.8,0.2","3:go_c","",""
"null","","html-keyboard-response","660","1716912","0.0-8.0-1.26","","<img src=""img/blue-n.png"" border=""10"">","null","trial","32","","0.8,0.2","3:go_c","0",""
"null","","html-keyboard-response","661","1717914","0.0-8.0-2.26","","<div style=""font-size:60px;"">+</div>","null","","","","","","",""
"986.3649999969639","","image-keyboard-response","662","1718902","0.0-8.0-0.27","","img/green.png","32","trial","null","false","0.2,0.8","4:nogo_d","",""
"null","","html-keyboard-response","663","1719910","0.0-8.0-1.27","","<img src=""img/green-n.png"" border=""10"">","null","trial","null","","0.2,0.8","4:nogo_d","0",""
"null","","html-keyboard-response","664","1720912","0.0-8.0-2.27","","<div style=""font-size:60px;"">+</div>","null","","","","","","",""
"604.9899999999907","","image-keyboard-response","665","1721518","0.0-8.0-0.28","","img/orange.png","32","trial","null","false","0.2,0.8","2:nogo_b","",""
"null","","html-keyboard-response","666","1722520","0.0-8.0-1.28","","<img src=""img/orange-n.png"" border=""10"">","null","trial","null","","0.2,0.8","2:nogo_b","0",""
"null","","html-keyboard-response","667","1723522","0.0-8.0-2.28","","<div style=""font-size:60px;"">+</div>","null","","","","","","",""
"643.4200000001583","","image-keyboard-response","668","1724166","0.0-8.0-0.29","","img/blue.png","32","trial","32","true","0.8,0.2","3:go_c","",""
"null","","html-keyboard-response","669","1725169","0.0-8.0-1.29","","<img src=""img/blue-n.png"" border=""10"">","null","trial","32","","0.8,0.2","3:go_c","0",""
"null","","html-keyboard-response","670","1726170","0.0-8.0-2.29","","<div style=""font-size:60px;"">+</div>","null","","","","","","",""
"1010.7450000068638","","image-keyboard-response","671","1727182","0.0-8.0-0.30","","img/green.png","32","trial","null","false","0.2,0.8","4:nogo_d","",""
