"rt","url","trial_type","trial_index","time_elapsed","internal_node_id","view_history","stimulus","key_press","test_part","correct_response","correct","use_rew","which_stim","reward","responses"
"10248.03499999689","consent.html","external-html","0","10331","0.0-0.0","","","","","","","","","",""
"187450.1600000076","","instructions","1","197782","0.0-1.0","[{""page_index"":0,""viewing_time"":3318.3049999934155},{""page_index"":1,""viewing_time"":70211.75000001676},{""page_index"":2,""viewing_time"":7167.1949999872595},{""page_index"":3,""viewing_time"":42004.05000001774},{""page_index"":4,""viewing_time"":45060.859999997774},{""page_index"":5,""viewing_time"":9129.684999992605},{""page_index"":6,""viewing_time"":10557.735000009416}]","","","","","","","","",""
"852.0999999891501","","image-keyboard-response","2","198636","0.0-2.0-0.0","","img/test1.PNG","32","practice","32","true","","","",""
"null","","html-keyboard-response","3","199652","0.0-2.0-1.0","","<img src=""img/test1-reward.PNG"" border=""10px; grey"">","null","","","","","","",""
"null","","html-keyboard-response","4","200667","0.0-2.0-2.0","","<div style=""font-size:60px;"">+</div>","null","","","","","","",""
"null","","image-keyboard-response","5","202173","0.0-2.0-0.1","","img/test3.PNG","null","practice","null","true","","","",""
"null","","html-keyboard-response","6","203182","0.0-2.0-1.1","","<img src=""img/test3-reward.PNG"">","null","","","","","","",""
"null","","html-keyboard-response","7","204193","0.0-2.0-2.1","","<div style=""font-size:60px;"">+</div>","null","","","","","","",""
"null","","image-keyboard-response","8","205701","0.0-2.0-0.2","","img/test2.PNG","null","practice","null","true","","","",""
"null","","html-keyboard-response","9","206712","0.0-2.0-1.2","","<img src=""img/test2-reward.PNG"">","null","","","","","","",""
"null","","html-keyboard-response","10","207731","0.0-2.0-2.2","","<div style=""font-size:60px;"">+</div>","null","","","","","","",""
"null","","image-keyboard-response","11","209241","0.0-2.0-0.3","","img/test2.PNG","null","practice","null","true","","","",""
"null","","html-keyboard-response","12","210258","0.0-2.0-1.3","","<img src=""img/test2-reward.PNG"">","null","","","","","","",""
"null","","html-keyboard-response","13","211270","0.0-2.0-2.3","","<div style=""font-size:60px;"">+</div>","null","","","","","","",""
"null","","image-keyboard-response","14","212773","0.0-2.0-0.4","","img/test3.PNG","null","practice","null","true","","","",""
"null","","html-keyboard-response","15","213780","0.0-2.0-1.4","","<img src=""img/test3-reward.PNG"">","null","","","","","","",""
"null","","html-keyboard-response","16","214783","0.0-2.0-2.4","","<div style=""font-size:60px;"">+</div>","null","","","","","","",""
"530.6149999960326","","image-keyboard-response","17","215314","0.0-2.0-0.5","","img/test1.PNG","32","practice","32","true","","","",""
"null","","html-keyboard-response","18","216318","0.0-2.0-1.5","","<img src=""img/test1-reward.PNG"" border=""10px; grey"">","null","","","","","","",""
"null","","html-keyboard-response","19","217320","0.0-2.0-2.5","","<div style=""font-size:60px;"">+</div>","null","","","","","","",""
"491.04500000248663","","image-keyboard-response","20","217813","0.0-2.0-0.6","","img/test1.PNG","32","practice","32","true","","","",""
"null","","html-keyboard-response","21","218821","0.0-2.0-1.6","","<img src=""img/test1-reward.PNG"" border=""10px; grey"">","null","","","","","","",""
"null","","html-keyboard-response","22","219832","0.0-2.0-2.6","","<div style=""font-size:60px;"">+</div>","null","","","","","","",""
"null","","image-keyboard-response","23","221337","0.0-2.0-0.7","","img/test2.PNG","null","practice","null","true","","","",""
"null","","html-keyboard-response","24","222338","0.0-2.0-1.7","","<img src=""img/test2-reward.PNG"">","null","","","","","","",""
"null","","html-keyboard-response","25","223351","0.0-2.0-2.7","","<div style=""font-size:60px;"">+</div>","null","","","","","","",""
"null","","image-keyboard-response","26","224864","0.0-2.0-0.8","","img/test3.PNG","null","practice","null","true","","","",""
"null","","html-keyboard-response","27","225869","0.0-2.0-1.8","","<img src=""img/test3-reward.PNG"">","null","","","","","","",""
"null","","html-keyboard-response","28","226880","0.0-2.0-2.8","","<div style=""font-size:60px;"">+</div>","null","","","","","","",""
"null","","image-keyboard-response","29","228390","0.0-2.0-0.9","","img/test3.PNG","null","practice","null","true","","","",""
"null","","html-keyboard-response","30","229396","0.0-2.0-1.9","","<img src=""img/test3-reward.PNG"">","null","","","","","","",""
"null","","html-keyboard-response","31","230410","0.0-2.0-2.9","","<div style=""font-size:60px;"">+</div>","null","","","","","","",""
"null","","image-keyboard-response","32","231930","0.0-2.0-0.10","","img/test2.PNG","null","practice","null","true","","","",""
"null","","html-keyboard-response","33","232950","0.0-2.0-1.10","","<img src=""img/test2-reward.PNG"">","null","","","","","","",""
"null","","html-keyboard-response","34","233961","0.0-2.0-2.10","","<div style=""font-size:60px;"">+</div>","null","","","","","","",""
"457.51999999629334","","image-keyboard-response","35","234420","0.0-2.0-0.11","","img/test1.PNG","32","practice","32","true","","","",""
"null","","html-keyboard-response","36","235431","0.0-2.0-1.11","","<img src=""img/test1-reward.PNG"" border=""10px; grey"">","null","","","","","","",""
"null","","html-keyboard-response","37","236446","0.0-2.0-2.11","","<div style=""font-size:60px;"">+</div>","null","","","","","","",""
"2773.174999980256","","instructions","38","239220","0.0-3.0","[{""page_index"":0,""viewing_time"":2772.999999986496}]","","","","","","","","",""
"null","","image-keyboard-response","39","240731","0.0-4.0-0.0","","img/grey.png","null","trial","null","true","0.2,0.8","2:nogo_b","",""
"null","","html-keyboard-response","40","241736","0.0-4.0-1.0","","<img src=""img/grey-r.png"">","null","trial","null","","0.2,0.8","2:nogo_b","1",""
"null","","html-keyboard-response","41","242740","0.0-4.0-2.0","","<div style=""font-size:60px;"">+</div>","null","","","","","","",""
"1050.9350000065751","","image-keyboard-response","42","243793","0.0-4.0-0.1","","img/red.png","32","trial","32","true","0.8,0.2","1:go_a","",""
"null","","html-keyboard-response","43","244801","0.0-4.0-1.1","","<img src=""img/red-n.png"" border=""10"">","null","trial","32","","0.8,0.2","1:go_a","0",""
"null","","html-keyboard-response","44","245816","0.0-4.0-2.1","","<div style=""font-size:60px;"">+</div>","null","","","","","","",""
"704.9249999981839","","image-keyboard-response","45","246521","0.0-4.0-0.2","","img/grey.png","32","trial","null","false","0.2,0.8","2:nogo_b","",""
"null","","html-keyboard-response","46","247540","0.0-4.0-1.2","","<img src=""img/grey-r.png"" border=""10"">","null","trial","null","","0.2,0.8","2:nogo_b","1",""
"null","","html-keyboard-response","47","248560","0.0-4.0-2.2","","<div style=""font-size:60px;"">+</div>","null","","","","","","",""
"1090.3899999975692","","image-keyboard-response","48","249651","0.0-4.0-0.3","","img/red.png","32","trial","32","true","0.8,0.2","1:go_a","",""
"null","","html-keyboard-response","49","250665","0.0-4.0-1.3","","<img src=""img/red-r.png"" border=""10"">","null","trial","32","","0.8,0.2","1:go_a","1",""
"null","","html-keyboard-response","50","251670","0.0-4.0-2.3","","<div style=""font-size:60px;"">+</div>","null","","","","","","",""
"538.8899999961723","","image-keyboard-response","51","252210","0.0-4.0-0.4","","img/red.png","32","trial","32","true","0.8,0.2","1:go_a","",""
"null","","html-keyboard-response","52","253231","0.0-4.0-1.4","","<img src=""img/red-r.png"" border=""10"">","null","trial","32","","0.8,0.2","1:go_a","1",""
"null","","html-keyboard-response","53","254243","0.0-4.0-2.4","","<div style=""font-size:60px;"">+</div>","null","","","","","","",""
"365.67500000819564","","image-keyboard-response","54","254611","0.0-4.0-0.5","","img/grey.png","32","trial","null","false","0.2,0.8","2:nogo_b","",""
"null","","html-keyboard-response","55","255630","0.0-4.0-1.5","","<img src=""img/grey-n.png"" border=""10"">","null","trial","null","","0.2,0.8","2:nogo_b","0",""
"null","","html-keyboard-response","56","256636","0.0-4.0-2.5","","<div style=""font-size:60px;"">+</div>","null","","","","","","",""
"518.0099999997765","","image-keyboard-response","57","257155","0.0-4.0-0.6","","img/grey.png","32","trial","null","false","0.2,0.8","2:nogo_b","",""
"null","","html-keyboard-response","58","258160","0.0-4.0-1.6","","<img src=""img/grey-n.png"" border=""10"">","null","trial","null","","0.2,0.8","2:nogo_b","0",""
"null","","html-keyboard-response","59","259164","0.0-4.0-2.6","","<div style=""font-size:60px;"">+</div>","null","","","","","","",""
"307.4299999861978","","image-keyboard-response","60","259473","0.0-4.0-0.7","","img/red.png","32","trial","32","true","0.8,0.2","1:go_a","",""
"null","","html-keyboard-response","61","260479","0.0-4.0-1.7","","<img src=""img/red-r.png"" border=""10"">","null","trial","32","","0.8,0.2","1:go_a","1",""
"null","","html-keyboard-response","62","261491","0.0-4.0-2.7","","<div style=""font-size:60px;"">+</div>","null","","","","","","",""
"346.1200000019744","","image-keyboard-response","63","261839","0.0-4.0-0.8","","img/red.png","32","trial","32","true","0.8,0.2","1:go_a","",""
"null","","html-keyboard-response","64","262847","0.0-4.0-1.8","","<img src=""img/red-r.png"" border=""10"">","null","trial","32","","0.8,0.2","1:go_a","1",""
"null","","html-keyboard-response","65","263854","0.0-4.0-2.8","","<div style=""font-size:60px;"">+</div>","null","","","","","","",""
"451.09499999671243","","image-keyboard-response","66","264305","0.0-4.0-0.9","","img/grey.png","32","trial","null","false","0.2,0.8","2:nogo_b","",""
"null","","html-keyboard-response","67","265317","0.0-4.0-1.9","","<img src=""img/grey-n.png"" border=""10"">","null","trial","null","","0.2,0.8","2:nogo_b","0",""
"null","","html-keyboard-response","68","266330","0.0-4.0-2.9","","<div style=""font-size:60px;"">+</div>","null","","","","","","",""
"345.6350000051316","","image-keyboard-response","69","266677","0.0-4.0-0.10","","img/red.png","32","trial","32","true","0.8,0.2","1:go_a","",""
"null","","html-keyboard-response","70","267679","0.0-4.0-1.10","","<img src=""img/red-n.png"" border=""10"">","null","trial","32","","0.8,0.2","1:go_a","0",""
"null","","html-keyboard-response","71","268701","0.0-4.0-2.10","","<div style=""font-size:60px;"">+</div>","null","","","","","","",""
"null","","image-keyboard-response","72","270211","0.0-4.0-0.11","","img/grey.png","null","trial","null","true","0.2,0.8","2:nogo_b","",""
"null","","html-keyboard-response","73","271230","0.0-4.0-1.11","","<img src=""img/grey-r.png"">","null","trial","null","","0.2,0.8","2:nogo_b","1",""
"null","","html-keyboard-response","74","272244","0.0-4.0-2.11","","<div style=""font-size:60px;"">+</div>","null","","","","","","",""
"424.41999999573454","","image-keyboard-response","75","272669","0.0-4.0-0.12","","img/grey.png","32","trial","null","false","0.2,0.8","2:nogo_b","",""
"null","","html-keyboard-response","76","273691","0.0-4.0-1.12","","<img src=""img/grey-n.png"" border=""10"">","null","trial","null","","0.2,0.8","2:nogo_b","0",""
"null","","html-keyboard-response","77","274701","0.0-4.0-2.12","","<div style=""font-size:60px;"">+</div>","null","","","","","","",""
"335.9350000100676","","image-keyboard-response","78","275038","0.0-4.0-0.13","","img/red.png","32","trial","32","true","0.8,0.2","1:go_a","",""
"null","","html-keyboard-response","79","276050","0.0-4.0-1.13","","<img src=""img/red-n.png"" border=""10"">","null","trial","32","","0.8,0.2","1:go_a","0",""
"null","","html-keyboard-response","80","277064","0.0-4.0-2.13","","<div style=""font-size:60px;"">+</div>","null","","","","","","",""
"1208.1900000048336","","image-keyboard-response","81","278274","0.0-4.0-0.14","","img/red.png","32","trial","32","true","0.8,0.2","1:go_a","",""
"null","","html-keyboard-response","82","279290","0.0-4.0-1.14","","<img src=""img/red-n.png"" border=""10"">","null","trial","32","","0.8,0.2","1:go_a","0",""
"null","","html-keyboard-response","83","280305","0.0-4.0-2.14","","<div style=""font-size:60px;"">+</div>","null","","","","","","",""
"411.0799999907613","","image-keyboard-response","84","280717","0.0-4.0-0.15","","img/grey.png","32","trial","null","false","0.2,0.8","2:nogo_b","",""
"null","","html-keyboard-response","85","281720","0.0-4.0-1.15","","<img src=""img/grey-r.png"" border=""10"">","null","trial","null","","0.2,0.8","2:nogo_b","1",""
"null","","html-keyboard-response","86","282741","0.0-4.0-2.15","","<div style=""font-size:60px;"">+</div>","null","","","","","","",""
"468.81500000017695","","image-keyboard-response","87","283211","0.0-4.0-0.16","","img/red.png","32","trial","32","true","0.8,0.2","1:go_a","",""
"null","","html-keyboard-response","88","284227","0.0-4.0-1.16","","<img src=""img/red-n.png"" border=""10"">","null","trial","32","","0.8,0.2","1:go_a","0",""
"null","","html-keyboard-response","89","285241","0.0-4.0-2.16","","<div style=""font-size:60px;"">+</div>","null","","","","","","",""
"316.9449999986682","","image-keyboard-response","90","285559","0.0-4.0-0.17","","img/grey.png","32","trial","null","false","0.2,0.8","2:nogo_b","",""
"null","","html-keyboard-response","91","286567","0.0-4.0-1.17","","<img src=""img/grey-n.png"" border=""10"">","null","trial","null","","0.2,0.8","2:nogo_b","0",""
"null","","html-keyboard-response","92","287574","0.0-4.0-2.17","","<div style=""font-size:60px;"">+</div>","null","","","","","","",""
"878.1700000108685","","image-keyboard-response","93","288453","0.0-4.0-0.18","","img/grey.png","32","trial","null","false","0.2,0.8","2:nogo_b","",""
"null","","html-keyboard-response","94","289460","0.0-4.0-1.18","","<img src=""img/grey-n.png"" border=""10"">","null","trial","null","","0.2,0.8","2:nogo_b","0",""
"null","","html-keyboard-response","95","290470","0.0-4.0-2.18","","<div style=""font-size:60px;"">+</div>","null","","","","","","",""
"393.9700000046287","","image-keyboard-response","96","290864","0.0-4.0-0.19","","img/red.png","32","trial","32","true","0.8,0.2","1:go_a","",""
"null","","html-keyboard-response","97","291878","0.0-4.0-1.19","","<img src=""img/red-r.png"" border=""10"">","null","trial","32","","0.8,0.2","1:go_a","1",""
"null","","html-keyboard-response","98","292881","0.0-4.0-2.19","","<div style=""font-size:60px;"">+</div>","null","","","","","","",""
"707.7049999788869","","image-keyboard-response","99","293591","0.0-4.0-0.20","","img/grey.png","32","trial","null","false","0.2,0.8","2:nogo_b","",""
"null","","html-keyboard-response","100","294610","0.0-4.0-1.20","","<img src=""img/grey-n.png"" border=""10"">","null","trial","null","","0.2,0.8","2:nogo_b","0",""
"null","","html-keyboard-response","101","295631","0.0-4.0-2.20","","<div style=""font-size:60px;"">+</div>","null","","","","","","",""
"317.48500000685453","","image-keyboard-response","102","295950","0.0-4.0-0.21","","img/red.png","32","trial","32","true","0.8,0.2","1:go_a","",""
"null","","html-keyboard-response","103","296960","0.0-4.0-1.21","","<img src=""img/red-r.png"" border=""10"">","null","trial","32","","0.8,0.2","1:go_a","1",""
"null","","html-keyboard-response","104","297973","0.0-4.0-2.21","","<div style=""font-size:60px;"">+</div>","null","","","","","","",""
"331.7049999895971","","image-keyboard-response","105","298304","0.0-4.0-0.22","","img/grey.png","32","trial","null","false","0.2,0.8","2:nogo_b","",""
"null","","html-keyboard-response","106","299319","0.0-4.0-1.22","","<img src=""img/grey-n.png"" border=""10"">","null","trial","null","","0.2,0.8","2:nogo_b","0",""
"null","","html-keyboard-response","107","300320","0.0-4.0-2.22","","<div style=""font-size:60px;"">+</div>","null","","","","","","",""
"267.7550000080373","","image-keyboard-response","108","300590","0.0-4.0-0.23","","img/red.png","32","trial","32","true","0.8,0.2","1:go_a","",""
"null","","html-keyboard-response","109","301606","0.0-4.0-1.23","","<img src=""img/red-r.png"" border=""10"">","null","trial","32","","0.8,0.2","1:go_a","1",""
"null","","html-keyboard-response","110","302610","0.0-4.0-2.23","","<div style=""font-size:60px;"">+</div>","null","","","","","","",""
"430.6500000238884","","image-keyboard-response","111","303042","0.0-4.0-0.24","","img/red.png","32","trial","32","true","0.8,0.2","1:go_a","",""
"null","","html-keyboard-response","112","304050","0.0-4.0-1.24","","<img src=""img/red-r.png"" border=""10"">","null","trial","32","","0.8,0.2","1:go_a","1",""
"null","","html-keyboard-response","113","305070","0.0-4.0-2.24","","<div style=""font-size:60px;"">+</div>","null","","","","","","",""
"329.5299999881536","","image-keyboard-response","114","305401","0.0-4.0-0.25","","img/grey.png","32","trial","null","false","0.2,0.8","2:nogo_b","",""
"null","","html-keyboard-response","115","306417","0.0-4.0-1.25","","<img src=""img/grey-n.png"" border=""10"">","null","trial","null","","0.2,0.8","2:nogo_b","0",""
"null","","html-keyboard-response","116","307420","0.0-4.0-2.25","","<div style=""font-size:60px;"">+</div>","null","","","","","","",""
"null","","image-keyboard-response","117","308940","0.0-4.0-0.26","","img/grey.png","null","trial","null","true","0.2,0.8","2:nogo_b","",""
"null","","html-keyboard-response","118","309960","0.0-4.0-1.26","","<img src=""img/grey-r.png"">","null","trial","null","","0.2,0.8","2:nogo_b","1",""
"null","","html-keyboard-response","119","310970","0.0-4.0-2.26","","<div style=""font-size:60px;"">+</div>","null","","","","","","",""
"298.1499999877997","","image-keyboard-response","120","311270","0.0-4.0-0.27","","img/red.png","32","trial","32","true","0.8,0.2","1:go_a","",""
"null","","html-keyboard-response","121","312276","0.0-4.0-1.27","","<img src=""img/red-n.png"" border=""10"">","null","trial","32","","0.8,0.2","1:go_a","0",""
"null","","html-keyboard-response","122","313289","0.0-4.0-2.27","","<div style=""font-size:60px;"">+</div>","null","","","","","","",""
"398.5300000058487","","image-keyboard-response","123","313688","0.0-4.0-0.28","","img/grey.png","32","trial","null","false","0.2,0.8","2:nogo_b","",""
"null","","html-keyboard-response","124","314709","0.0-4.0-1.28","","<img src=""img/grey-n.png"" border=""10"">","null","trial","null","","0.2,0.8","2:nogo_b","0",""
"null","","html-keyboard-response","125","315722","0.0-4.0-2.28","","<div style=""font-size:60px;"">+</div>","null","","","","","","",""
"352.4700000125449","","image-keyboard-response","126","316076","0.0-4.0-0.29","","img/red.png","32","trial","32","true","0.8,0.2","1:go_a","",""
"null","","html-keyboard-response","127","317078","0.0-4.0-1.29","","<img src=""img/red-r.png"" border=""10"">","null","trial","32","","0.8,0.2","1:go_a","1",""
"null","","html-keyboard-response","128","318094","0.0-4.0-2.29","","<div style=""font-size:60px;"">+</div>","null","","","","","","",""
"371.7449999821838","","image-keyboard-response","129","318468","0.0-4.0-0.30","","img/grey.png","32","trial","null","false","0.2,0.8","2:nogo_b","",""
"null","","html-keyboard-response","130","319479","0.0-4.0-1.30","","<img src=""img/grey-n.png"" border=""10"">","null","trial","null","","0.2,0.8","2:nogo_b","0",""
"null","","html-keyboard-response","131","320489","0.0-4.0-2.30","","<div style=""font-size:60px;"">+</div>","null","","","","","","",""
"360.85499997716397","","image-keyboard-response","132","320850","0.0-4.0-0.31","","img/red.png","32","trial","32","true","0.8,0.2","1:go_a","",""
"null","","html-keyboard-response","133","321865","0.0-4.0-1.31","","<img src=""img/red-r.png"" border=""10"">","null","trial","32","","0.8,0.2","1:go_a","1",""
"null","","html-keyboard-response","134","322867","0.0-4.0-2.31","","<div style=""font-size:60px;"">+</div>","null","","","","","","",""
"630.9699999983422","","image-keyboard-response","135","323499","0.0-4.0-0.32","","img/grey.png","32","trial","null","false","0.2,0.8","2:nogo_b","",""
"null","","html-keyboard-response","136","324502","0.0-4.0-1.32","","<img src=""img/grey-n.png"" border=""10"">","null","trial","null","","0.2,0.8","2:nogo_b","0",""
"null","","html-keyboard-response","137","325515","0.0-4.0-2.32","","<div style=""font-size:60px;"">+</div>","null","","","","","","",""
"470.8900000259746","","image-keyboard-response","138","325987","0.0-4.0-0.33","","img/red.png","32","trial","32","true","0.8,0.2","1:go_a","",""
"null","","html-keyboard-response","139","326993","0.0-4.0-1.33","","<img src=""img/red-r.png"" border=""10"">","null","trial","32","","0.8,0.2","1:go_a","1",""
"null","","html-keyboard-response","140","328010","0.0-4.0-2.33","","<div style=""font-size:60px;"">+</div>","null","","","","","","",""
"null","","image-keyboard-response","141","329515","0.0-4.0-0.34","","img/grey.png","null","trial","null","true","0.2,0.8","2:nogo_b","",""
"null","","html-keyboard-response","142","330525","0.0-4.0-1.34","","<img src=""img/grey-r.png"">","null","trial","null","","0.2,0.8","2:nogo_b","1",""
"null","","html-keyboard-response","143","331545","0.0-4.0-2.34","","<div style=""font-size:60px;"">+</div>","null","","","","","","",""
"394.4349999947008","","image-keyboard-response","144","331939","0.0-4.0-0.35","","img/red.png","32","trial","32","true","0.8,0.2","1:go_a","",""
"null","","html-keyboard-response","145","332945","0.0-4.0-1.35","","<img src=""img/red-r.png"" border=""10"">","null","trial","32","","0.8,0.2","1:go_a","1",""
"null","","html-keyboard-response","146","333953","0.0-4.0-2.35","","<div style=""font-size:60px;"">+</div>","null","","","","","","",""
"349.74000000511296","","image-keyboard-response","147","334304","0.0-4.0-0.36","","img/red.png","32","trial","32","true","0.8,0.2","1:go_a","",""
"null","","html-keyboard-response","148","335324","0.0-4.0-1.36","","<img src=""img/red-r.png"" border=""10"">","null","trial","32","","0.8,0.2","1:go_a","1",""
"null","","html-keyboard-response","149","336345","0.0-4.0-2.36","","<div style=""font-size:60px;"">+</div>","null","","","","","","",""
"394.479999988107","","image-keyboard-response","150","336743","0.0-4.0-0.37","","img/grey.png","32","trial","null","false","0.2,0.8","2:nogo_b","",""
"null","","html-keyboard-response","151","337745","0.0-4.0-1.37","","<img src=""img/grey-n.png"" border=""10"">","null","trial","null","","0.2,0.8","2:nogo_b","0",""
"null","","html-keyboard-response","152","338747","0.0-4.0-2.37","","<div style=""font-size:60px;"">+</div>","null","","","","","","",""
"967.7650000085123","","image-keyboard-response","153","339716","0.0-4.0-0.38","","img/grey.png","32","trial","null","false","0.2,0.8","2:nogo_b","",""
"null","","html-keyboard-response","154","340723","0.0-4.0-1.38","","<img src=""img/grey-n.png"" border=""10"">","null","trial","null","","0.2,0.8","2:nogo_b","0",""
"null","","html-keyboard-response","155","341744","0.0-4.0-2.38","","<div style=""font-size:60px;"">+</div>","null","","","","","","",""
"296.7400000197813","","image-keyboard-response","156","342042","0.0-4.0-0.39","","img/red.png","32","trial","32","true","0.8,0.2","1:go_a","",""
"null","","html-keyboard-response","157","343055","0.0-4.0-1.39","","<img src=""img/red-r.png"" border=""10"">","null","trial","32","","0.8,0.2","1:go_a","1",""
"null","","html-keyboard-response","158","344067","0.0-4.0-2.39","","<div style=""font-size:60px;"">+</div>","null","","","","","","",""
"null","","image-keyboard-response","159","345582","0.0-4.0-0.40","","img/grey.png","null","trial","null","true","0.2,0.8","2:nogo_b","",""
"null","","html-keyboard-response","160","346598","0.0-4.0-1.40","","<img src=""img/grey-n.png"">","null","trial","null","","0.2,0.8","2:nogo_b","0",""
"null","","html-keyboard-response","161","347614","0.0-4.0-2.40","","<div style=""font-size:60px;"">+</div>","null","","","","","","",""
"610.6800000125077","","image-keyboard-response","162","348226","0.0-4.0-0.41","","img/red.png","32","trial","32","true","0.8,0.2","1:go_a","",""
"null","","html-keyboard-response","163","349234","0.0-4.0-1.41","","<img src=""img/red-r.png"" border=""10"">","null","trial","32","","0.8,0.2","1:go_a","1",""
"null","","html-keyboard-response","164","350245","0.0-4.0-2.41","","<div style=""font-size:60px;"">+</div>","null","","","","","","",""
"410.9150000149384","","image-keyboard-response","165","350657","0.0-4.0-0.42","","img/red.png","32","trial","32","true","0.8,0.2","1:go_a","",""
"null","","html-keyboard-response","166","351664","0.0-4.0-1.42","","<img src=""img/red-r.png"" border=""10"">","null","trial","32","","0.8,0.2","1:go_a","1",""
"null","","html-keyboard-response","167","352679","0.0-4.0-2.42","","<div style=""font-size:60px;"">+</div>","null","","","","","","",""
"389.95000001159497","","image-keyboard-response","168","353069","0.0-4.0-0.43","","img/grey.png","32","trial","null","false","0.2,0.8","2:nogo_b","",""
"null","","html-keyboard-response","169","354074","0.0-4.0-1.43","","<img src=""img/grey-n.png"" border=""10"">","null","trial","null","","0.2,0.8","2:nogo_b","0",""
"null","","html-keyboard-response","170","355095","0.0-4.0-2.43","","<div style=""font-size:60px;"">+</div>","null","","","","","","",""
"544.6949999895878","","image-keyboard-response","171","355642","0.0-4.0-0.44","","img/grey.png","32","trial","null","false","0.2,0.8","2:nogo_b","",""
"null","","html-keyboard-response","172","356655","0.0-4.0-1.44","","<img src=""img/grey-r.png"" border=""10"">","null","trial","null","","0.2,0.8","2:nogo_b","1",""
"null","","html-keyboard-response","173","357661","0.0-4.0-2.44","","<div style=""font-size:60px;"">+</div>","null","","","","","","",""
"334.59000001312234","","image-keyboard-response","174","357996","0.0-4.0-0.45","","img/red.png","32","trial","32","true","0.8,0.2","1:go_a","",""
"null","","html-keyboard-response","175","359005","0.0-4.0-1.45","","<img src=""img/red-r.png"" border=""10"">","null","trial","32","","0.8,0.2","1:go_a","1",""
"null","","html-keyboard-response","176","360006","0.0-4.0-2.45","","<div style=""font-size:60px;"">+</div>","null","","","","","","",""
"392.33999999123625","","image-keyboard-response","177","360401","0.0-4.0-0.46","","img/red.png","32","trial","32","true","0.8,0.2","1:go_a","",""
"null","","html-keyboard-response","178","361415","0.0-4.0-1.46","","<img src=""img/red-r.png"" border=""10"">","null","trial","32","","0.8,0.2","1:go_a","1",""
"null","","html-keyboard-response","179","362435","0.0-4.0-2.46","","<div style=""font-size:60px;"">+</div>","null","","","","","","",""
"645.5600000044797","","image-keyboard-response","180","363083","0.0-4.0-0.47","","img/grey.png","32","trial","null","false","0.2,0.8","2:nogo_b","",""
"null","","html-keyboard-response","181","364099","0.0-4.0-1.47","","<img src=""img/grey-n.png"" border=""10"">","null","trial","null","","0.2,0.8","2:nogo_b","0",""
"null","","html-keyboard-response","182","365105","0.0-4.0-2.47","","<div style=""font-size:60px;"">+</div>","null","","","","","","",""
"953.5000000032596","","image-keyboard-response","183","366059","0.0-4.0-0.48","","img/grey.png","32","trial","null","false","0.2,0.8","2:nogo_b","",""
"null","","html-keyboard-response","184","367075","0.0-4.0-1.48","","<img src=""img/grey-n.png"" border=""10"">","null","trial","null","","0.2,0.8","2:nogo_b","0",""
"null","","html-keyboard-response","185","368088","0.0-4.0-2.48","","<div style=""font-size:60px;"">+</div>","null","","","","","","",""
"467.3950000142213","","image-keyboard-response","186","368557","0.0-4.0-0.49","","img/red.png","32","trial","32","true","0.8,0.2","1:go_a","",""
"null","","html-keyboard-response","187","369565","0.0-4.0-1.49","","<img src=""img/red-r.png"" border=""10"">","null","trial","32","","0.8,0.2","1:go_a","1",""
"null","","html-keyboard-response","188","370573","0.0-4.0-2.49","","<div style=""font-size:60px;"">+</div>","null","","","","","","",""
"586.1449999792967","","image-keyboard-response","189","371160","0.0-4.0-0.50","","img/grey.png","32","trial","null","false","0.2,0.8","2:nogo_b","",""
"null","","html-keyboard-response","190","372173","0.0-4.0-1.50","","<img src=""img/grey-n.png"" border=""10"">","null","trial","null","","0.2,0.8","2:nogo_b","0",""
"null","","html-keyboard-response","191","373195","0.0-4.0-2.50","","<div style=""font-size:60px;"">+</div>","null","","","","","","",""
"499.6699999901466","","image-keyboard-response","192","373696","0.0-4.0-0.51","","img/red.png","32","trial","32","true","0.8,0.2","1:go_a","",""
"null","","html-keyboard-response","193","374711","0.0-4.0-1.51","","<img src=""img/red-r.png"" border=""10"">","null","trial","32","","0.8,0.2","1:go_a","1",""
"null","","html-keyboard-response","194","375725","0.0-4.0-2.51","","<div style=""font-size:60px;"">+</div>","null","","","","","","",""
"576.9600000057835","","image-keyboard-response","195","376304","0.0-4.0-0.52","","img/grey.png","32","trial","null","false","0.2,0.8","2:nogo_b","",""
"null","","html-keyboard-response","196","377316","0.0-4.0-1.52","","<img src=""img/grey-r.png"" border=""10"">","null","trial","null","","0.2,0.8","2:nogo_b","1",""
"null","","html-keyboard-response","197","378330","0.0-4.0-2.52","","<div style=""font-size:60px;"">+</div>","null","","","","","","",""
"490.08499999763444","","image-keyboard-response","198","378822","0.0-4.0-0.53","","img/red.png","32","trial","32","true","0.8,0.2","1:go_a","",""
"null","","html-keyboard-response","199","379825","0.0-4.0-1.53","","<img src=""img/red-n.png"" border=""10"">","null","trial","32","","0.8,0.2","1:go_a","0",""
"null","","html-keyboard-response","200","380837","0.0-4.0-2.53","","<div style=""font-size:60px;"">+</div>","null","","","","","","",""
"528.3449999988079","","image-keyboard-response","201","381366","0.0-4.0-0.54","","img/red.png","32","trial","32","true","0.8,0.2","1:go_a","",""
"null","","html-keyboard-response","202","382382","0.0-4.0-1.54","","<img src=""img/red-n.png"" border=""10"">","null","trial","32","","0.8,0.2","1:go_a","0",""
"null","","html-keyboard-response","203","383396","0.0-4.0-2.54","","<div style=""font-size:60px;"">+</div>","null","","","","","","",""
"464.98000001884066","","image-keyboard-response","204","383862","0.0-4.0-0.55","","img/grey.png","32","trial","null","false","0.2,0.8","2:nogo_b","",""
"null","","html-keyboard-response","205","384865","0.0-4.0-1.55","","<img src=""img/grey-n.png"" border=""10"">","null","trial","null","","0.2,0.8","2:nogo_b","0",""
"null","","html-keyboard-response","206","385876","0.0-4.0-2.55","","<div style=""font-size:60px;"">+</div>","null","","","","","","",""
"499.54499999876134","","image-keyboard-response","207","386377","0.0-4.0-0.56","","img/red.png","32","trial","32","true","0.8,0.2","1:go_a","",""
"null","","html-keyboard-response","208","387395","0.0-4.0-1.56","","<img src=""img/red-r.png"" border=""10"">","null","trial","32","","0.8,0.2","1:go_a","1",""
"null","","html-keyboard-response","209","388413","0.0-4.0-2.56","","<div style=""font-size:60px;"">+</div>","null","","","","","","",""
"373.9999999816064","","image-keyboard-response","210","388787","0.0-4.0-0.57","","img/grey.png","32","trial","null","false","0.2,0.8","2:nogo_b","",""
"null","","html-keyboard-response","211","389796","0.0-4.0-1.57","","<img src=""img/grey-n.png"" border=""10"">","null","trial","null","","0.2,0.8","2:nogo_b","0",""
"null","","html-keyboard-response","212","390815","0.0-4.0-2.57","","<div style=""font-size:60px;"">+</div>","null","","","","","","",""
"364.9699999950826","","image-keyboard-response","213","391182","0.0-4.0-0.58","","img/grey.png","32","trial","null","false","0.2,0.8","2:nogo_b","",""
"null","","html-keyboard-response","214","392195","0.0-4.0-1.58","","<img src=""img/grey-n.png"" border=""10"">","null","trial","null","","0.2,0.8","2:nogo_b","0",""
"null","","html-keyboard-response","215","393204","0.0-4.0-2.58","","<div style=""font-size:60px;"">+</div>","null","","","","","","",""
"398.77500000875443","","image-keyboard-response","216","393604","0.0-4.0-0.59","","img/red.png","32","trial","32","true","0.8,0.2","1:go_a","",""
"null","","html-keyboard-response","217","394615","0.0-4.0-1.59","","<img src=""img/red-r.png"" border=""10"">","null","trial","32","","0.8,0.2","1:go_a","1",""
"null","","html-keyboard-response","218","395635","0.0-4.0-2.59","","<div style=""font-size:60px;"">+</div>","null","","","","","","",""
"18489.694999996573","","instructions","219","414126","0.0-5.0","[{""page_index"":0,""viewing_time"":18489.429999986896}]","","","","","","","","",""
"1062.434999999823","","image-keyboard-response","220","415191","0.0-6.0-0.0","","img/grey.png","32","trial","null","false","0.2,0.8","2:nogo_b","",""
"null","","html-keyboard-response","221","416205","0.0-6.0-1.0","","<img src=""img/grey-n.png"" border=""10"">","null","trial","null","","0.2,0.8","2:nogo_b","0",""
"null","","html-keyboard-response","222","417225","0.0-6.0-2.0","","<div style=""font-size:60px;"">+</div>","null","","","","","","",""
"432.5949999911245","","image-keyboard-response","223","417659","0.0-6.0-0.1","","img/green.png","32","trial","32","true","0.8,0.2","1:go_a","",""
"null","","html-keyboard-response","224","418668","0.0-6.0-1.1","","<img src=""img/green-r.png"" border=""10"">","null","trial","32","","0.8,0.2","1:go_a","1",""
"null","","html-keyboard-response","225","419675","0.0-6.0-2.1","","<div style=""font-size:60px;"">+</div>","null","","","","","","",""
"670.3249999845866","","image-keyboard-response","226","420346","0.0-6.0-0.2","","img/yellow.png","32","trial","32","true","1,0","3:go_c","",""
"null","","html-keyboard-response","227","421355","0.0-6.0-1.2","","<img src=""img/yellow-r.png"" border=""10"">","null","trial","32","","1,0","3:go_c","1",""
"null","","html-keyboard-response","228","422365","0.0-6.0-2.2","","<div style=""font-size:60px;"">+</div>","null","","","","","","",""
"491.8550000002142","","image-keyboard-response","229","422858","0.0-6.0-0.3","","img/blue.png","32","trial","null","false","0,1","4:nogo_d","",""
"null","","html-keyboard-response","230","423865","0.0-6.0-1.3","","<img src=""img/blue-n.png"" border=""10"">","null","trial","null","","0,1","4:nogo_d","0",""
"null","","html-keyboard-response","231","424875","0.0-6.0-2.3","","<div style=""font-size:60px;"">+</div>","null","","","","","","",""
"null","","image-keyboard-response","232","426383","0.0-6.0-0.4","","img/grey.png","null","trial","null","true","0.2,0.8","2:nogo_b","",""
"null","","html-keyboard-response","233","427393","0.0-6.0-1.4","","<img src=""img/grey-r.png"">","null","trial","null","","0.2,0.8","2:nogo_b","1",""
"null","","html-keyboard-response","234","428401","0.0-6.0-2.4","","<div style=""font-size:60px;"">+</div>","null","","","","","","",""
"367.25499999010935","","image-keyboard-response","235","428769","0.0-6.0-0.5","","img/blue.png","32","trial","null","false","0,1","4:nogo_d","",""
"null","","html-keyboard-response","236","429788","0.0-6.0-1.5","","<img src=""img/blue-n.png"" border=""10"">","null","trial","null","","0,1","4:nogo_d","0",""
"null","","html-keyboard-response","237","430798","0.0-6.0-2.5","","<div style=""font-size:60px;"">+</div>","null","","","","","","",""
"749.8450000130106","","image-keyboard-response","238","431549","0.0-6.0-0.6","","img/green.png","32","trial","32","true","0.8,0.2","1:go_a","",""
"null","","html-keyboard-response","239","432567","0.0-6.0-1.6","","<img src=""img/green-r.png"" border=""10"">","null","trial","32","","0.8,0.2","1:go_a","1",""
"null","","html-keyboard-response","240","433578","0.0-6.0-2.6","","<div style=""font-size:60px;"">+</div>","null","","","","","","",""
"null","","image-keyboard-response","241","435088","0.0-6.0-0.7","","img/yellow.png","null","trial","32","false","1,0","3:go_c","",""
"null","","html-keyboard-response","242","436101","0.0-6.0-1.7","","<img src=""img/yellow-n.png"">","null","trial","32","","1,0","3:go_c","0",""
"null","","html-keyboard-response","243","437118","0.0-6.0-2.7","","<div style=""font-size:60px;"">+</div>","null","","","","","","",""
"750.1050000137184","","image-keyboard-response","244","437869","0.0-6.0-0.8","","img/grey.png","32","trial","null","false","0.2,0.8","2:nogo_b","",""
"null","","html-keyboard-response","245","438877","0.0-6.0-1.8","","<img src=""img/grey-n.png"" border=""10"">","null","trial","null","","0.2,0.8","2:nogo_b","0",""
"null","","html-keyboard-response","246","439894","0.0-6.0-2.8","","<div style=""font-size:60px;"">+</div>","null","","","","","","",""
"722.0549999910872","","image-keyboard-response","247","440617","0.0-6.0-0.9","","img/blue.png","32","trial","null","false","0,1","4:nogo_d","",""
"null","","html-keyboard-response","248","441621","0.0-6.0-1.9","","<img src=""img/blue-n.png"" border=""10"">","null","trial","null","","0,1","4:nogo_d","0",""
"null","","html-keyboard-response","249","442627","0.0-6.0-2.9","","<div style=""font-size:60px;"">+</div>","null","","","","","","",""
"371.9699999783188","","image-keyboard-response","250","443000","0.0-6.0-0.10","","img/green.png","32","trial","32","true","0.8,0.2","1:go_a","",""
"null","","html-keyboard-response","251","444017","0.0-6.0-1.10","","<img src=""img/green-n.png"" border=""10"">","null","trial","32","","0.8,0.2","1:go_a","0",""
"null","","html-keyboard-response","252","445033","0.0-6.0-2.10","","<div style=""font-size:60px;"">+</div>","null","","","","","","",""
"572.7400000032503","","image-keyboard-response","253","445607","0.0-6.0-0.11","","img/yellow.png","32","trial","32","true","1,0","3:go_c","",""
"null","","html-keyboard-response","254","446616","0.0-6.0-1.11","","<img src=""img/yellow-r.png"" border=""10"">","null","trial","32","","1,0","3:go_c","1",""
"null","","html-keyboard-response","255","447621","0.0-6.0-2.11","","<div style=""font-size:60px;"">+</div>","null","","","","","","",""
"579.4000000169035","","image-keyboard-response","256","448201","0.0-6.0-0.12","","img/green.png","32","trial","32","true","0.8,0.2","1:go_a","",""
"null","","html-keyboard-response","257","449210","0.0-6.0-1.12","","<img src=""img/green-r.png"" border=""10"">","null","trial","32","","0.8,0.2","1:go_a","1",""
"null","","html-keyboard-response","258","450218","0.0-6.0-2.12","","<div style=""font-size:60px;"">+</div>","null","","","","","","",""
"null","","image-keyboard-response","259","451734","0.0-6.0-0.13","","img/grey.png","null","trial","null","true","0.2,0.8","2:nogo_b","",""
"null","","html-keyboard-response","260","452750","0.0-6.0-1.13","","<img src=""img/grey-r.png"">","null","trial","null","","0.2,0.8","2:nogo_b","1",""
"null","","html-keyboard-response","261","453753","0.0-6.0-2.13","","<div style=""font-size:60px;"">+</div>","null","","","","","","",""
"378.7350000056904","","image-keyboard-response","262","454133","0.0-6.0-0.14","","img/yellow.png","32","trial","32","true","1,0","3:go_c","",""
"null","","html-keyboard-response","263","455137","0.0-6.0-1.14","","<img src=""img/yellow-r.png"" border=""10"">","null","trial","32","","1,0","3:go_c","1",""
"null","","html-keyboard-response","264","456142","0.0-6.0-2.14","","<div style=""font-size:60px;"">+</div>","null","","","","","","",""
"null","","image-keyboard-response","265","457653","0.0-6.0-0.15","","img/blue.png","null","trial","null","true","0,1","4:nogo_d","",""
"null","","html-keyboard-response","266","458660","0.0-6.0-1.15","","<img src=""img/blue-r.png"">","null","trial","null","","0,1","4:nogo_d","1",""
"null","","html-keyboard-response","267","459666","0.0-6.0-2.15","","<div style=""font-size:60px;"">+</div>","null","","","","","","",""
"486.91500001586974","","image-keyboard-response","268","460154","0.0-6.0-0.16","","img/blue.png","32","trial","null","false","0,1","4:nogo_d","",""
"null","","html-keyboard-response","269","461159","0.0-6.0-1.16","","<img src=""img/blue-n.png"" border=""10"">","null","trial","null","","0,1","4:nogo_d","0",""
"null","","html-keyboard-response","270","462167","0.0-6.0-2.16","","<div style=""font-size:60px;"">+</div>","null","","","","","","",""
"771.4599999890197","","image-keyboard-response","271","462939","0.0-6.0-0.17","","img/grey.png","32","trial","null","false","0.2,0.8","2:nogo_b","",""
"null","","html-keyboard-response","272","463942","0.0-6.0-1.17","","<img src=""img/grey-n.png"" border=""10"">","null","trial","null","","0.2,0.8","2:nogo_b","0",""
"null","","html-keyboard-response","273","464956","0.0-6.0-2.17","","<div style=""font-size:60px;"">+</div>","null","","","","","","",""
"627.0949999743607","","image-keyboard-response","274","465584","0.0-6.0-0.18","","img/yellow.png","32","trial","32","true","1,0","3:go_c","",""
"null","","html-keyboard-response","275","466595","0.0-6.0-1.18","","<img src=""img/yellow-r.png"" border=""10"">","null","trial","32","","1,0","3:go_c","1",""
"null","","html-keyboard-response","276","467602","0.0-6.0-2.18","","<div style=""font-size:60px;"">+</div>","null","","","","","","",""
"348.40499999700114","","image-keyboard-response","277","467952","0.0-6.0-0.19","","img/green.png","32","trial","32","true","0.8,0.2","1:go_a","",""
"null","","html-keyboard-response","278","468965","0.0-6.0-1.19","","<img src=""img/green-r.png"" border=""10"">","null","trial","32","","0.8,0.2","1:go_a","1",""
"null","","html-keyboard-response","279","469971","0.0-6.0-2.19","","<div style=""font-size:60px;"">+</div>","null","","","","","","",""
"610.6399999989662","","image-keyboard-response","280","470583","0.0-6.0-0.20","","img/yellow.png","32","trial","32","true","1,0","3:go_c","",""
"null","","html-keyboard-response","281","471587","0.0-6.0-1.20","","<img src=""img/yellow-r.png"" border=""10"">","null","trial","32","","1,0","3:go_c","1",""
"null","","html-keyboard-response","282","472590","0.0-6.0-2.20","","<div style=""font-size:60px;"">+</div>","null","","","","","","",""
"951.3300000107847","","image-keyboard-response","283","473542","0.0-6.0-0.21","","img/grey.png","32","trial","null","false","0.2,0.8","2:nogo_b","",""
"null","","html-keyboard-response","284","474558","0.0-6.0-1.21","","<img src=""img/grey-r.png"" border=""10"">","null","trial","null","","0.2,0.8","2:nogo_b","1",""
"null","","html-keyboard-response","285","475562","0.0-6.0-2.21","","<div style=""font-size:60px;"">+</div>","null","","","","","","",""
"475.9500000218395","","image-keyboard-response","286","476040","0.0-6.0-0.22","","img/green.png","32","trial","32","true","0.8,0.2","1:go_a","",""
"null","","html-keyboard-response","287","477055","0.0-6.0-1.22","","<img src=""img/green-r.png"" border=""10"">","null","trial","32","","0.8,0.2","1:go_a","1",""
"null","","html-keyboard-response","288","478057","0.0-6.0-2.22","","<div style=""font-size:60px;"">+</div>","null","","","","","","",""
"null","","image-keyboard-response","289","479575","0.0-6.0-0.23","","img/blue.png","null","trial","null","true","0,1","4:nogo_d","",""
"null","","html-keyboard-response","290","480578","0.0-6.0-1.23","","<img src=""img/blue-r.png"">","null","trial","null","","0,1","4:nogo_d","1",""
"null","","html-keyboard-response","291","481594","0.0-6.0-2.23","","<div style=""font-size:60px;"">+</div>","null","","","","","","",""
"518.2499999937136","","image-keyboard-response","292","482113","0.0-6.0-0.24","","img/blue.png","32","trial","null","false","0,1","4:nogo_d","",""
"null","","html-keyboard-response","293","483119","0.0-6.0-1.24","","<img src=""img/blue-n.png"" border=""10"">","null","trial","null","","0,1","4:nogo_d","0",""
"null","","html-keyboard-response","294","484124","0.0-6.0-2.24","","<div style=""font-size:60px;"">+</div>","null","","","","","","",""
"705.9549999830779","","image-keyboard-response","295","484831","0.0-6.0-0.25","","img/yellow.png","32","trial","32","true","1,0","3:go_c","",""
"null","","html-keyboard-response","296","485840","0.0-6.0-1.25","","<img src=""img/yellow-r.png"" border=""10"">","null","trial","32","","1,0","3:go_c","1",""
"null","","html-keyboard-response","297","486842","0.0-6.0-2.25","","<div style=""font-size:60px;"">+</div>","null","","","","","","",""
"534.0799999830779","","image-keyboard-response","298","487376","0.0-6.0-0.26","","img/green.png","32","trial","32","true","0.8,0.2","1:go_a","",""
"null","","html-keyboard-response","299","488380","0.0-6.0-1.26","","<img src=""img/green-r.png"" border=""10"">","null","trial","32","","0.8,0.2","1:go_a","1",""
"null","","html-keyboard-response","300","489383","0.0-6.0-2.26","","<div style=""font-size:60px;"">+</div>","null","","","","","","",""
"742.1749999921303","","image-keyboard-response","301","490126","0.0-6.0-0.27","","img/grey.png","32","trial","null","false","0.2,0.8","2:nogo_b","",""
"null","","html-keyboard-response","302","491138","0.0-6.0-1.27","","<img src=""img/grey-n.png"" border=""10"">","null","trial","null","","0.2,0.8","2:nogo_b","0",""
"null","","html-keyboard-response","303","492153","0.0-6.0-2.27","","<div style=""font-size:60px;"">+</div>","null","","","","","","",""
"575.7250000024214","","image-keyboard-response","304","492729","0.0-6.0-0.28","","img/yellow.png","32","trial","32","true","1,0","3:go_c","",""
"null","","html-keyboard-response","305","493737","0.0-6.0-1.28","","<img src=""img/yellow-r.png"" border=""10"">","null","trial","32","","1,0","3:go_c","1",""
"null","","html-keyboard-response","306","494739","0.0-6.0-2.28","","<div style=""font-size:60px;"">+</div>","null","","","","","","",""
"624.6050000190735","","image-keyboard-response","307","495364","0.0-6.0-0.29","","img/grey.png","32","trial","null","false","0.2,0.8","2:nogo_b","",""
"null","","html-keyboard-response","308","496373","0.0-6.0-1.29","","<img src=""img/grey-n.png"" border=""10"">","null","trial","null","","0.2,0.8","2:nogo_b","0",""
"null","","html-keyboard-response","309","497379","0.0-6.0-2.29","","<div style=""font-size:60px;"">+</div>","null","","","","","","",""
"null","","image-keyboard-response","310","498887","0.0-6.0-0.30","","img/blue.png","null","trial","null","true","0,1","4:nogo_d","",""
"null","","html-keyboard-response","311","499894","0.0-6.0-1.30","","<img src=""img/blue-r.png"">","null","trial","null","","0,1","4:nogo_d","1",""
"null","","html-keyboard-response","312","500901","0.0-6.0-2.30","","<div style=""font-size:60px;"">+</div>","null","","","","","","",""
"419.4699999934528","","image-keyboard-response","313","501321","0.0-6.0-0.31","","img/green.png","32","trial","32","true","0.8,0.2","1:go_a","",""
"null","","html-keyboard-response","314","502327","0.0-6.0-1.31","","<img src=""img/green-r.png"" border=""10"">","null","trial","32","","0.8,0.2","1:go_a","1",""
"null","","html-keyboard-response","315","503332","0.0-6.0-2.31","","<div style=""font-size:60px;"">+</div>","null","","","","","","",""
"null","","image-keyboard-response","316","504841","0.0-6.0-0.32","","img/blue.png","null","trial","null","true","0,1","4:nogo_d","",""
"null","","html-keyboard-response","317","505842","0.0-6.0-1.32","","<img src=""img/blue-r.png"">","null","trial","null","","0,1","4:nogo_d","1",""
"null","","html-keyboard-response","318","506862","0.0-6.0-2.32","","<div style=""font-size:60px;"">+</div>","null","","","","","","",""
"755.78000000678","","image-keyboard-response","319","507619","0.0-6.0-0.33","","img/grey.png","32","trial","null","false","0.2,0.8","2:nogo_b","",""
"null","","html-keyboard-response","320","508627","0.0-6.0-1.33","","<img src=""img/grey-n.png"" border=""10"">","null","trial","null","","0.2,0.8","2:nogo_b","0",""
"null","","html-keyboard-response","321","509633","0.0-6.0-2.33","","<div style=""font-size:60px;"">+</div>","null","","","","","","",""
"516.2950000085402","","image-keyboard-response","322","510150","0.0-6.0-0.34","","img/green.png","32","trial","32","true","0.8,0.2","1:go_a","",""
"null","","html-keyboard-response","323","511162","0.0-6.0-1.34","","<img src=""img/green-n.png"" border=""10"">","null","trial","32","","0.8,0.2","1:go_a","0",""
"null","","html-keyboard-response","324","512176","0.0-6.0-2.34","","<div style=""font-size:60px;"">+</div>","null","","","","","","",""
"457.9500000108965","","image-keyboard-response","325","512635","0.0-6.0-0.35","","img/yellow.png","32","trial","32","true","1,0","3:go_c","",""
"null","","html-keyboard-response","326","513642","0.0-6.0-1.35","","<img src=""img/yellow-r.png"" border=""10"">","null","trial","32","","1,0","3:go_c","1",""
"null","","html-keyboard-response","327","514648","0.0-6.0-2.35","","<div style=""font-size:60px;"">+</div>","null","","","","","","",""
"442.2550000017509","","image-keyboard-response","328","515091","0.0-6.0-0.36","","img/yellow.png","32","trial","32","true","1,0","3:go_c","",""
"null","","html-keyboard-response","329","516112","0.0-6.0-1.36","","<img src=""img/yellow-r.png"" border=""10"">","null","trial","32","","1,0","3:go_c","1",""
"null","","html-keyboard-response","330","517123","0.0-6.0-2.36","","<div style=""font-size:60px;"">+</div>","null","","","","","","",""
"787.1799999848008","","image-keyboard-response","331","517913","0.0-6.0-0.37","","img/grey.png","32","trial","null","false","0.2,0.8","2:nogo_b","",""
"null","","html-keyboard-response","332","518932","0.0-6.0-1.37","","<img src=""img/grey-n.png"" border=""10"">","null","trial","null","","0.2,0.8","2:nogo_b","0",""
"null","","html-keyboard-response","333","519942","0.0-6.0-2.37","","<div style=""font-size:60px;"">+</div>","null","","","","","","",""
"429.1499999817461","","image-keyboard-response","334","520372","0.0-6.0-0.38","","img/green.png","32","trial","32","true","0.8,0.2","1:go_a","",""
"null","","html-keyboard-response","335","521392","0.0-6.0-1.38","","<img src=""img/green-r.png"" border=""10"">","null","trial","32","","0.8,0.2","1:go_a","1",""
"null","","html-keyboard-response","336","522397","0.0-6.0-2.38","","<div style=""font-size:60px;"">+</div>","null","","","","","","",""
"null","","image-keyboard-response","337","523912","0.0-6.0-0.39","","img/blue.png","null","trial","null","true","0,1","4:nogo_d","",""
"null","","html-keyboard-response","338","524922","0.0-6.0-1.39","","<img src=""img/blue-r.png"">","null","trial","null","","0,1","4:nogo_d","1",""
"null","","html-keyboard-response","339","525924","0.0-6.0-2.39","","<div style=""font-size:60px;"">+</div>","null","","","","","","",""
"461.9349999993574","","image-keyboard-response","340","526388","0.0-6.0-0.40","","img/green.png","32","trial","32","true","0.8,0.2","1:go_a","",""
"null","","html-keyboard-response","341","527392","0.0-6.0-1.40","","<img src=""img/green-n.png"" border=""10"">","null","trial","32","","0.8,0.2","1:go_a","0",""
"null","","html-keyboard-response","342","528412","0.0-6.0-2.40","","<div style=""font-size:60px;"">+</div>","null","","","","","","",""
"490.1100000133738","","image-keyboard-response","343","528905","0.0-6.0-0.41","","img/blue.png","32","trial","null","false","0,1","4:nogo_d","",""
"null","","html-keyboard-response","344","529906","0.0-6.0-1.41","","<img src=""img/blue-n.png"" border=""10"">","null","trial","null","","0,1","4:nogo_d","0",""
"null","","html-keyboard-response","345","530922","0.0-6.0-2.41","","<div style=""font-size:60px;"">+</div>","null","","","","","","",""
"559.9950000178069","","image-keyboard-response","346","531484","0.0-6.0-0.42","","img/yellow.png","32","trial","32","true","1,0","3:go_c","",""
"null","","html-keyboard-response","347","532492","0.0-6.0-1.42","","<img src=""img/yellow-r.png"" border=""10"">","null","trial","32","","1,0","3:go_c","1",""
"null","","html-keyboard-response","348","533512","0.0-6.0-2.42","","<div style=""font-size:60px;"">+</div>","null","","","","","","",""
"null","","image-keyboard-response","349","535016","0.0-6.0-0.43","","img/grey.png","null","trial","null","true","0.2,0.8","2:nogo_b","",""
"null","","html-keyboard-response","350","536032","0.0-6.0-1.43","","<img src=""img/grey-r.png"">","null","trial","null","","0.2,0.8","2:nogo_b","1",""
"null","","html-keyboard-response","351","537033","0.0-6.0-2.43","","<div style=""font-size:60px;"">+</div>","null","","","","","","",""
"null","","image-keyboard-response","352","538542","0.0-6.0-0.44","","img/blue.png","null","trial","null","true","0,1","4:nogo_d","",""
"null","","html-keyboard-response","353","539556","0.0-6.0-1.44","","<img src=""img/blue-r.png"">","null","trial","null","","0,1","4:nogo_d","1",""
"null","","html-keyboard-response","354","540572","0.0-6.0-2.44","","<div style=""font-size:60px;"">+</div>","null","","","","","","",""
"390.4200000106357","","image-keyboard-response","355","540964","0.0-6.0-0.45","","img/green.png","32","trial","32","true","0.8,0.2","1:go_a","",""
"null","","html-keyboard-response","356","541968","0.0-6.0-1.45","","<img src=""img/green-r.png"" border=""10"">","null","trial","32","","0.8,0.2","1:go_a","1",""
"null","","html-keyboard-response","357","542982","0.0-6.0-2.45","","<div style=""font-size:60px;"">+</div>","null","","","","","","",""
"466.13000001525506","","image-keyboard-response","358","543450","0.0-6.0-0.46","","img/yellow.png","32","trial","32","true","1,0","3:go_c","",""
"null","","html-keyboard-response","359","544462","0.0-6.0-1.46","","<img src=""img/yellow-r.png"" border=""10"">","null","trial","32","","1,0","3:go_c","1",""
"null","","html-keyboard-response","360","545469","0.0-6.0-2.46","","<div style=""font-size:60px;"">+</div>","null","","","","","","",""
"null","","image-keyboard-response","361","546985","0.0-6.0-0.47","","img/grey.png","null","trial","null","true","0.2,0.8","2:nogo_b","",""
"null","","html-keyboard-response","362","548003","0.0-6.0-1.47","","<img src=""img/grey-r.png"">","null","trial","null","","0.2,0.8","2:nogo_b","1",""
"null","","html-keyboard-response","363","549019","0.0-6.0-2.47","","<div style=""font-size:60px;"">+</div>","null","","","","","","",""
"536.8249999883119","","image-keyboard-response","364","549557","0.0-6.0-0.48","","img/blue.png","32","trial","null","false","0,1","4:nogo_d","",""
"null","","html-keyboard-response","365","550573","0.0-6.0-1.48","","<img src=""img/blue-n.png"" border=""10"">","null","trial","null","","0,1","4:nogo_d","0",""
"null","","html-keyboard-response","366","551583","0.0-6.0-2.48","","<div style=""font-size:60px;"">+</div>","null","","","","","","",""
"448.50999998743646","","image-keyboard-response","367","552033","0.0-6.0-0.49","","img/green.png","32","trial","32","true","0.8,0.2","1:go_a","",""
"null","","html-keyboard-response","368","553049","0.0-6.0-1.49","","<img src=""img/green-r.png"" border=""10"">","null","trial","32","","0.8,0.2","1:go_a","1",""
"null","","html-keyboard-response","369","554063","0.0-6.0-2.49","","<div style=""font-size:60px;"">+</div>","null","","","","","","",""
"512.6149999850895","","image-keyboard-response","370","554578","0.0-6.0-0.50","","img/yellow.png","32","trial","32","true","1,0","3:go_c","",""
"null","","html-keyboard-response","371","555582","0.0-6.0-1.50","","<img src=""img/yellow-r.png"" border=""10"">","null","trial","32","","1,0","3:go_c","1",""
"null","","html-keyboard-response","372","556599","0.0-6.0-2.50","","<div style=""font-size:60px;"">+</div>","null","","","","","","",""
"777.1199999842793","","image-keyboard-response","373","557377","0.0-6.0-0.51","","img/grey.png","32","trial","null","false","0.2,0.8","2:nogo_b","",""
"null","","html-keyboard-response","374","558380","0.0-6.0-1.51","","<img src=""img/grey-n.png"" border=""10"">","null","trial","null","","0.2,0.8","2:nogo_b","0",""
"null","","html-keyboard-response","375","559395","0.0-6.0-2.51","","<div style=""font-size:60px;"">+</div>","null","","","","","","",""
"null","","image-keyboard-response","376","560899","0.0-6.0-0.52","","img/blue.png","null","trial","null","true","0,1","4:nogo_d","",""
"null","","html-keyboard-response","377","561910","0.0-6.0-1.52","","<img src=""img/blue-r.png"">","null","trial","null","","0,1","4:nogo_d","1",""
"null","","html-keyboard-response","378","562916","0.0-6.0-2.52","","<div style=""font-size:60px;"">+</div>","null","","","","","","",""
"null","","image-keyboard-response","379","564421","0.0-6.0-0.53","","img/grey.png","null","trial","null","true","0.2,0.8","2:nogo_b","",""
"null","","html-keyboard-response","380","565439","0.0-6.0-1.53","","<img src=""img/grey-n.png"">","null","trial","null","","0.2,0.8","2:nogo_b","0",""
"null","","html-keyboard-response","381","566448","0.0-6.0-2.53","","<div style=""font-size:60px;"">+</div>","null","","","","","","",""
"457.6649999944493","","image-keyboard-response","382","566906","0.0-6.0-0.54","","img/green.png","32","trial","32","true","0.8,0.2","1:go_a","",""
"null","","html-keyboard-response","383","567912","0.0-6.0-1.54","","<img src=""img/green-n.png"" border=""10"">","null","trial","32","","0.8,0.2","1:go_a","0",""
"null","","html-keyboard-response","384","568915","0.0-6.0-2.54","","<div style=""font-size:60px;"">+</div>","null","","","","","","",""
"487.1550000098068","","image-keyboard-response","385","569402","0.0-6.0-0.55","","img/yellow.png","32","trial","32","true","1,0","3:go_c","",""
"null","","html-keyboard-response","386","570410","0.0-6.0-1.55","","<img src=""img/yellow-r.png"" border=""10"">","null","trial","32","","1,0","3:go_c","1",""
"null","","html-keyboard-response","387","571418","0.0-6.0-2.55","","<div style=""font-size:60px;"">+</div>","null","","","","","","",""
"652.8650000109337","","image-keyboard-response","388","572072","0.0-6.0-0.56","","img/green.png","32","trial","32","true","0.8,0.2","1:go_a","",""
"null","","html-keyboard-response","389","573087","0.0-6.0-1.56","","<img src=""img/green-n.png"" border=""10"">","null","trial","32","","0.8,0.2","1:go_a","0",""
"null","","html-keyboard-response","390","574097","0.0-6.0-2.56","","<div style=""font-size:60px;"">+</div>","null","","","","","","",""
"502.04500000108965","","image-keyboard-response","391","574600","0.0-6.0-0.57","","img/yellow.png","32","trial","32","true","1,0","3:go_c","",""
"null","","html-keyboard-response","392","575615","0.0-6.0-1.57","","<img src=""img/yellow-r.png"" border=""10"">","null","trial","32","","1,0","3:go_c","1",""
"null","","html-keyboard-response","393","576619","0.0-6.0-2.57","","<div style=""font-size:60px;"">+</div>","null","","","","","","",""
"null","","image-keyboard-response","394","578126","0.0-6.0-0.58","","img/grey.png","null","trial","null","true","0.2,0.8","2:nogo_b","",""
"null","","html-keyboard-response","395","579131","0.0-6.0-1.58","","<img src=""img/grey-r.png"">","null","trial","null","","0.2,0.8","2:nogo_b","1",""
"null","","html-keyboard-response","396","580136","0.0-6.0-2.58","","<div style=""font-size:60px;"">+</div>","null","","","","","","",""
"444.8100000154227","","image-keyboard-response","397","580582","0.0-6.0-0.59","","img/blue.png","32","trial","null","false","0,1","4:nogo_d","",""
"null","","html-keyboard-response","398","581592","0.0-6.0-1.59","","<img src=""img/blue-n.png"" border=""10"">","null","trial","null","","0,1","4:nogo_d","0",""
"null","","html-keyboard-response","399","582595","0.0-6.0-2.59","","<div style=""font-size:60px;"">+</div>","null","","","","","","",""
"556.1849999940023","","image-keyboard-response","400","583152","0.0-6.0-0.60","","img/green.png","32","trial","32","true","0.8,0.2","1:go_a","",""
"null","","html-keyboard-response","401","584161","0.0-6.0-1.60","","<img src=""img/green-n.png"" border=""10"">","null","trial","32","","0.8,0.2","1:go_a","0",""
"null","","html-keyboard-response","402","585164","0.0-6.0-2.60","","<div style=""font-size:60px;"">+</div>","null","","","","","","",""
"516.6599999938626","","image-keyboard-response","403","585681","0.0-6.0-0.61","","img/yellow.png","32","trial","32","true","1,0","3:go_c","",""
"null","","html-keyboard-response","404","586687","0.0-6.0-1.61","","<img src=""img/yellow-r.png"" border=""10"">","null","trial","32","","1,0","3:go_c","1",""
"null","","html-keyboard-response","405","587702","0.0-6.0-2.61","","<div style=""font-size:60px;"">+</div>","null","","","","","","",""
"null","","image-keyboard-response","406","589206","0.0-6.0-0.62","","img/grey.png","null","trial","null","true","0.2,0.8","2:nogo_b","",""
"null","","html-keyboard-response","407","590212","0.0-6.0-1.62","","<img src=""img/grey-r.png"">","null","trial","null","","0.2,0.8","2:nogo_b","1",""
"null","","html-keyboard-response","408","591219","0.0-6.0-2.62","","<div style=""font-size:60px;"">+</div>","null","","","","","","",""
"452.7700000035111","","image-keyboard-response","409","591672","0.0-6.0-0.63","","img/blue.png","32","trial","null","false","0,1","4:nogo_d","",""
"null","","html-keyboard-response","410","592682","0.0-6.0-1.63","","<img src=""img/blue-n.png"" border=""10"">","null","trial","null","","0,1","4:nogo_d","0",""
"null","","html-keyboard-response","411","593687","0.0-6.0-2.63","","<div style=""font-size:60px;"">+</div>","null","","","","","","",""
"501.6349999932572","","image-keyboard-response","412","594190","0.0-6.0-0.64","","img/green.png","32","trial","32","true","0.8,0.2","1:go_a","",""
"null","","html-keyboard-response","413","595196","0.0-6.0-1.64","","<img src=""img/green-r.png"" border=""10"">","null","trial","32","","0.8,0.2","1:go_a","1",""
"null","","html-keyboard-response","414","596210","0.0-6.0-2.64","","<div style=""font-size:60px;"">+</div>","null","","","","","","",""
"491.4149999967776","","image-keyboard-response","415","596702","0.0-6.0-0.65","","img/blue.png","32","trial","null","false","0,1","4:nogo_d","",""
"null","","html-keyboard-response","416","597709","0.0-6.0-1.65","","<img src=""img/blue-n.png"" border=""10"">","null","trial","null","","0,1","4:nogo_d","0",""
"null","","html-keyboard-response","417","598724","0.0-6.0-2.65","","<div style=""font-size:60px;"">+</div>","null","","","","","","",""
"535.1899999950547","","image-keyboard-response","418","599260","0.0-6.0-0.66","","img/yellow.png","32","trial","32","true","1,0","3:go_c","",""
"null","","html-keyboard-response","419","600262","0.0-6.0-1.66","","<img src=""img/yellow-r.png"" border=""10"">","null","trial","32","","1,0","3:go_c","1",""
"null","","html-keyboard-response","420","601276","0.0-6.0-2.66","","<div style=""font-size:60px;"">+</div>","null","","","","","","",""
"741.5250000194646","","image-keyboard-response","421","602019","0.0-6.0-0.67","","img/grey.png","32","trial","null","false","0.2,0.8","2:nogo_b","",""
"null","","html-keyboard-response","422","603026","0.0-6.0-1.67","","<img src=""img/grey-n.png"" border=""10"">","null","trial","null","","0.2,0.8","2:nogo_b","0",""
"null","","html-keyboard-response","423","604030","0.0-6.0-2.67","","<div style=""font-size:60px;"">+</div>","null","","","","","","",""
"451.48000001790933","","image-keyboard-response","424","604482","0.0-6.0-0.68","","img/yellow.png","32","trial","32","true","1,0","3:go_c","",""
"null","","html-keyboard-response","425","605496","0.0-6.0-1.68","","<img src=""img/yellow-r.png"" border=""10"">","null","trial","32","","1,0","3:go_c","1",""
"null","","html-keyboard-response","426","606506","0.0-6.0-2.68","","<div style=""font-size:60px;"">+</div>","null","","","","","","",""
"441.85999999172054","","image-keyboard-response","427","606950","0.0-6.0-0.69","","img/blue.png","32","trial","null","false","0,1","4:nogo_d","",""
"null","","html-keyboard-response","428","607966","0.0-6.0-1.69","","<img src=""img/blue-n.png"" border=""10"">","null","trial","null","","0,1","4:nogo_d","0",""
"null","","html-keyboard-response","429","608976","0.0-6.0-2.69","","<div style=""font-size:60px;"">+</div>","null","","","","","","",""
"null","","image-keyboard-response","430","610482","0.0-6.0-0.70","","img/grey.png","null","trial","null","true","0.2,0.8","2:nogo_b","",""
"null","","html-keyboard-response","431","611496","0.0-6.0-1.70","","<img src=""img/grey-r.png"">","null","trial","null","","0.2,0.8","2:nogo_b","1",""
"null","","html-keyboard-response","432","612507","0.0-6.0-2.70","","<div style=""font-size:60px;"">+</div>","null","","","","","","",""
"466.7849999968894","","image-keyboard-response","433","612974","0.0-6.0-0.71","","img/green.png","32","trial","32","true","0.8,0.2","1:go_a","",""
"null","","html-keyboard-response","434","613988","0.0-6.0-1.71","","<img src=""img/green-r.png"" border=""10"">","null","trial","32","","0.8,0.2","1:go_a","1",""
"null","","html-keyboard-response","435","615007","0.0-6.0-2.71","","<div style=""font-size:60px;"">+</div>","null","","","","","","",""
"616.3200000009965","","image-keyboard-response","436","615625","0.0-6.0-0.72","","img/grey.png","32","trial","null","false","0.2,0.8","2:nogo_b","",""
"null","","html-keyboard-response","437","616646","0.0-6.0-1.72","","<img src=""img/grey-n.png"" border=""10"">","null","trial","null","","0.2,0.8","2:nogo_b","0",""
"null","","html-keyboard-response","438","617656","0.0-6.0-2.72","","<div style=""font-size:60px;"">+</div>","null","","","","","","",""
"558.950000006007","","image-keyboard-response","439","618217","0.0-6.0-0.73","","img/blue.png","32","trial","null","false","0,1","4:nogo_d","",""
"null","","html-keyboard-response","440","619219","0.0-6.0-1.73","","<img src=""img/blue-n.png"" border=""10"">","null","trial","null","","0,1","4:nogo_d","0",""
"null","","html-keyboard-response","441","620223","0.0-6.0-2.73","","<div style=""font-size:60px;"">+</div>","null","","","","","","",""
"525.6700000027195","","image-keyboard-response","442","620750","0.0-6.0-0.74","","img/green.png","32","trial","32","true","0.8,0.2","1:go_a","",""
"null","","html-keyboard-response","443","621764","0.0-6.0-1.74","","<img src=""img/green-r.png"" border=""10"">","null","trial","32","","0.8,0.2","1:go_a","1",""
"null","","html-keyboard-response","444","622770","0.0-6.0-2.74","","<div style=""font-size:60px;"">+</div>","null","","","","","","",""
"426.3900000078138","","image-keyboard-response","445","623197","0.0-6.0-0.75","","img/yellow.png","32","trial","32","true","1,0","3:go_c","",""
"null","","html-keyboard-response","446","624204","0.0-6.0-1.75","","<img src=""img/yellow-r.png"" border=""10"">","null","trial","32","","1,0","3:go_c","1",""
"null","","html-keyboard-response","447","625220","0.0-6.0-2.75","","<div style=""font-size:60px;"">+</div>","null","","","","","","",""
"789.0949999855366","","image-keyboard-response","448","626010","0.0-6.0-0.76","","img/green.png","32","trial","32","true","0.8,0.2","1:go_a","",""
"null","","html-keyboard-response","449","627024","0.0-6.0-1.76","","<img src=""img/green-n.png"" border=""10"">","null","trial","32","","0.8,0.2","1:go_a","0",""
"null","","html-keyboard-response","450","628030","0.0-6.0-2.76","","<div style=""font-size:60px;"">+</div>","null","","","","","","",""
"605.0099999993108","","image-keyboard-response","451","628636","0.0-6.0-0.77","","img/grey.png","32","trial","null","false","0.2,0.8","2:nogo_b","",""
"null","","html-keyboard-response","452","629647","0.0-6.0-1.77","","<img src=""img/grey-n.png"" border=""10"">","null","trial","null","","0.2,0.8","2:nogo_b","0",""
"null","","html-keyboard-response","453","630649","0.0-6.0-2.77","","<div style=""font-size:60px;"">+</div>","null","","","","","","",""
"474.23999998136424","","image-keyboard-response","454","631125","0.0-6.0-0.78","","img/yellow.png","32","trial","32","true","1,0","3:go_c","",""
"null","","html-keyboard-response","455","632142","0.0-6.0-1.78","","<img src=""img/yellow-r.png"" border=""10"">","null","trial","32","","1,0","3:go_c","1",""
"null","","html-keyboard-response","456","633147","0.0-6.0-2.78","","<div style=""font-size:60px;"">+</div>","null","","","","","","",""
"null","","image-keyboard-response","457","634656","0.0-6.0-0.79","","img/blue.png","null","trial","null","true","0,1","4:nogo_d","",""
"null","","html-keyboard-response","458","635662","0.0-6.0-1.79","","<img src=""img/blue-r.png"">","null","trial","null","","0,1","4:nogo_d","1",""
"null","","html-keyboard-response","459","636670","0.0-6.0-2.79","","<div style=""font-size:60px;"">+</div>","null","","","","","","",""
"null","","image-keyboard-response","460","638185","0.0-6.0-0.80","","img/blue.png","null","trial","null","true","0,1","4:nogo_d","",""
"null","","html-keyboard-response","461","639189","0.0-6.0-1.80","","<img src=""img/blue-r.png"">","null","trial","null","","0,1","4:nogo_d","1",""
"null","","html-keyboard-response","462","640196","0.0-6.0-2.80","","<div style=""font-size:60px;"">+</div>","null","","","","","","",""
"433.6900000052992","","image-keyboard-response","463","640631","0.0-6.0-0.81","","img/yellow.png","32","trial","32","true","1,0","3:go_c","",""
"null","","html-keyboard-response","464","641641","0.0-6.0-1.81","","<img src=""img/yellow-r.png"" border=""10"">","null","trial","32","","1,0","3:go_c","1",""
"null","","html-keyboard-response","465","642648","0.0-6.0-2.81","","<div style=""font-size:60px;"">+</div>","null","","","","","","",""
"null","","image-keyboard-response","466","644153","0.0-6.0-0.82","","img/grey.png","null","trial","null","true","0.2,0.8","2:nogo_b","",""
"null","","html-keyboard-response","467","645168","0.0-6.0-1.82","","<img src=""img/grey-n.png"">","null","trial","null","","0.2,0.8","2:nogo_b","0",""
"null","","html-keyboard-response","468","646171","0.0-6.0-2.82","","<div style=""font-size:60px;"">+</div>","null","","","","","","",""
"507.7049999963492","","image-keyboard-response","469","646680","0.0-6.0-0.83","","img/green.png","32","trial","32","true","0.8,0.2","1:go_a","",""
"null","","html-keyboard-response","470","647695","0.0-6.0-1.83","","<img src=""img/green-n.png"" border=""10"">","null","trial","32","","0.8,0.2","1:go_a","0",""
"null","","html-keyboard-response","471","648697","0.0-6.0-2.83","","<div style=""font-size:60px;"">+</div>","null","","","","","","",""
"1217.6449999969918","","image-keyboard-response","472","649916","0.0-6.0-0.84","","img/blue.png","32","trial","null","false","0,1","4:nogo_d","",""
"null","","html-keyboard-response","473","650919","0.0-6.0-1.84","","<img src=""img/blue-n.png"" border=""10"">","null","trial","null","","0,1","4:nogo_d","0",""
"null","","html-keyboard-response","474","651922","0.0-6.0-2.84","","<div style=""font-size:60px;"">+</div>","null","","","","","","",""
"707.7449999924283","","image-keyboard-response","475","652632","0.0-6.0-0.85","","img/green.png","32","trial","32","true","0.8,0.2","1:go_a","",""
"null","","html-keyboard-response","476","653648","0.0-6.0-1.85","","<img src=""img/green-r.png"" border=""10"">","null","trial","32","","0.8,0.2","1:go_a","1",""
"null","","html-keyboard-response","477","654662","0.0-6.0-2.85","","<div style=""font-size:60px;"">+</div>","null","","","","","","",""
"null","","image-keyboard-response","478","656167","0.0-6.0-0.86","","img/grey.png","null","trial","null","true","0.2,0.8","2:nogo_b","",""
"null","","html-keyboard-response","479","657172","0.0-6.0-1.86","","<img src=""img/grey-r.png"">","null","trial","null","","0.2,0.8","2:nogo_b","1",""
"null","","html-keyboard-response","480","658177","0.0-6.0-2.86","","<div style=""font-size:60px;"">+</div>","null","","","","","","",""
"620.5650000192691","","image-keyboard-response","481","658799","0.0-6.0-0.87","","img/yellow.png","32","trial","32","true","1,0","3:go_c","",""
"null","","html-keyboard-response","482","659812","0.0-6.0-1.87","","<img src=""img/yellow-r.png"" border=""10"">","null","trial","32","","1,0","3:go_c","1",""
"null","","html-keyboard-response","483","660820","0.0-6.0-2.87","","<div style=""font-size:60px;"">+</div>","null","","","","","","",""
"null","","image-keyboard-response","484","662325","0.0-6.0-0.88","","img/grey.png","null","trial","null","true","0.2,0.8","2:nogo_b","",""
"null","","html-keyboard-response","485","663329","0.0-6.0-1.88","","<img src=""img/grey-n.png"">","null","trial","null","","0.2,0.8","2:nogo_b","0",""
"null","","html-keyboard-response","486","664339","0.0-6.0-2.88","","<div style=""font-size:60px;"">+</div>","null","","","","","","",""
"null","","image-keyboard-response","487","665849","0.0-6.0-0.89","","img/blue.png","null","trial","null","true","0,1","4:nogo_d","",""
"null","","html-keyboard-response","488","666854","0.0-6.0-1.89","","<img src=""img/blue-r.png"">","null","trial","null","","0,1","4:nogo_d","1",""
"null","","html-keyboard-response","489","667860","0.0-6.0-2.89","","<div style=""font-size:60px;"">+</div>","null","","","","","","",""
"452.61499998741783","","image-keyboard-response","490","668313","0.0-6.0-0.90","","img/green.png","32","trial","32","true","0.8,0.2","1:go_a","",""
"null","","html-keyboard-response","491","669323","0.0-6.0-1.90","","<img src=""img/green-r.png"" border=""10"">","null","trial","32","","0.8,0.2","1:go_a","1",""
"null","","html-keyboard-response","492","670328","0.0-6.0-2.90","","<div style=""font-size:60px;"">+</div>","null","","","","","","",""
"608.7450000050012","","image-keyboard-response","493","670939","0.0-6.0-0.91","","img/yellow.png","32","trial","32","true","1,0","3:go_c","",""
"null","","html-keyboard-response","494","671954","0.0-6.0-1.91","","<img src=""img/yellow-r.png"" border=""10"">","null","trial","32","","1,0","3:go_c","1",""
"null","","html-keyboard-response","495","672955","0.0-6.0-2.91","","<div style=""font-size:60px;"">+</div>","null","","","","","","",""
"511.52999998885207","","image-keyboard-response","496","673468","0.0-6.0-0.92","","img/yellow.png","32","trial","32","true","1,0","3:go_c","",""
"null","","html-keyboard-response","497","674479","0.0-6.0-1.92","","<img src=""img/yellow-r.png"" border=""10"">","null","trial","32","","1,0","3:go_c","1",""
"null","","html-keyboard-response","498","675483","0.0-6.0-2.92","","<div style=""font-size:60px;"">+</div>","null","","","","","","",""
"null","","image-keyboard-response","499","676999","0.0-6.0-0.93","","img/blue.png","null","trial","null","true","0,1","4:nogo_d","",""
"null","","html-keyboard-response","500","678008","0.0-6.0-1.93","","<img src=""img/blue-r.png"">","null","trial","null","","0,1","4:nogo_d","1",""
"null","","html-keyboard-response","501","679023","0.0-6.0-2.93","","<div style=""font-size:60px;"">+</div>","null","","","","","","",""
"476.5299999853596","","image-keyboard-response","502","679500","0.0-6.0-0.94","","img/green.png","32","trial","32","true","0.8,0.2","1:go_a","",""
"null","","html-keyboard-response","503","680513","0.0-6.0-1.94","","<img src=""img/green-r.png"" border=""10"">","null","trial","32","","0.8,0.2","1:go_a","1",""
"null","","html-keyboard-response","504","681515","0.0-6.0-2.94","","<div style=""font-size:60px;"">+</div>","null","","","","","","",""
"null","","image-keyboard-response","505","683035","0.0-6.0-0.95","","img/grey.png","null","trial","null","true","0.2,0.8","2:nogo_b","",""
"null","","html-keyboard-response","506","684052","0.0-6.0-1.95","","<img src=""img/grey-r.png"">","null","trial","null","","0.2,0.8","2:nogo_b","1",""
"null","","html-keyboard-response","507","685054","0.0-6.0-2.95","","<div style=""font-size:60px;"">+</div>","null","","","","","","",""
"null","","image-keyboard-response","508","686574","0.0-6.0-0.96","","img/blue.png","null","trial","null","true","0,1","4:nogo_d","",""
"null","","html-keyboard-response","509","687584","0.0-6.0-1.96","","<img src=""img/blue-r.png"">","null","trial","null","","0,1","4:nogo_d","1",""
"null","","html-keyboard-response","510","688604","0.0-6.0-2.96","","<div style=""font-size:60px;"">+</div>","null","","","","","","",""
"445.8050000248477","","image-keyboard-response","511","689051","0.0-6.0-0.97","","img/green.png","32","trial","32","true","0.8,0.2","1:go_a","",""
"null","","html-keyboard-response","512","690052","0.0-6.0-1.97","","<img src=""img/green-r.png"" border=""10"">","null","trial","32","","0.8,0.2","1:go_a","1",""
"null","","html-keyboard-response","513","691065","0.0-6.0-2.97","","<div style=""font-size:60px;"">+</div>","null","","","","","","",""
"null","","image-keyboard-response","514","692573","0.0-6.0-0.98","","img/grey.png","null","trial","null","true","0.2,0.8","2:nogo_b","",""
"null","","html-keyboard-response","515","693595","0.0-6.0-1.98","","<img src=""img/grey-r.png"">","null","trial","null","","0.2,0.8","2:nogo_b","1",""
"null","","html-keyboard-response","516","694614","0.0-6.0-2.98","","<div style=""font-size:60px;"">+</div>","null","","","","","","",""
"430.0349999975879","","image-keyboard-response","517","695045","0.0-6.0-0.99","","img/yellow.png","32","trial","32","true","1,0","3:go_c","",""
"null","","html-keyboard-response","518","696052","0.0-6.0-1.99","","<img src=""img/yellow-r.png"" border=""10"">","null","trial","32","","1,0","3:go_c","1",""
"null","","html-keyboard-response","519","697055","0.0-6.0-2.99","","<div style=""font-size:60px;"">+</div>","null","","","","","","",""
"null","","image-keyboard-response","520","698575","0.0-6.0-0.100","","img/blue.png","null","trial","null","true","0,1","4:nogo_d","",""
"null","","html-keyboard-response","521","699594","0.0-6.0-1.100","","<img src=""img/blue-r.png"">","null","trial","null","","0,1","4:nogo_d","1",""
"null","","html-keyboard-response","522","700595","0.0-6.0-2.100","","<div style=""font-size:60px;"">+</div>","null","","","","","","",""
"343.35499998996966","","image-keyboard-response","523","700940","0.0-6.0-0.101","","img/green.png","32","trial","32","true","0.8,0.2","1:go_a","",""
"null","","html-keyboard-response","524","701954","0.0-6.0-1.101","","<img src=""img/green-r.png"" border=""10"">","null","trial","32","","0.8,0.2","1:go_a","1",""
"null","","html-keyboard-response","525","702964","0.0-6.0-2.101","","<div style=""font-size:60px;"">+</div>","null","","","","","","",""
"null","","image-keyboard-response","526","704466","0.0-6.0-0.102","","img/grey.png","null","trial","null","true","0.2,0.8","2:nogo_b","",""
"null","","html-keyboard-response","527","705485","0.0-6.0-1.102","","<img src=""img/grey-r.png"">","null","trial","null","","0.2,0.8","2:nogo_b","1",""
"null","","html-keyboard-response","528","706506","0.0-6.0-2.102","","<div style=""font-size:60px;"">+</div>","null","","","","","","",""
"274.83499998925254","","image-keyboard-response","529","706781","0.0-6.0-0.103","","img/yellow.png","32","trial","32","true","1,0","3:go_c","",""
"null","","html-keyboard-response","530","707795","0.0-6.0-1.103","","<img src=""img/yellow-r.png"" border=""10"">","null","trial","32","","1,0","3:go_c","1",""
"null","","html-keyboard-response","531","708815","0.0-6.0-2.103","","<div style=""font-size:60px;"">+</div>","null","","","","","","",""
"448.0000000039581","","image-keyboard-response","532","709264","0.0-6.0-0.104","","img/grey.png","32","trial","null","false","0.2,0.8","2:nogo_b","",""
"null","","html-keyboard-response","533","710275","0.0-6.0-1.104","","<img src=""img/grey-n.png"" border=""10"">","null","trial","null","","0.2,0.8","2:nogo_b","0",""
"null","","html-keyboard-response","534","711283","0.0-6.0-2.104","","<div style=""font-size:60px;"">+</div>","null","","","","","","",""
"439.3649999983609","","image-keyboard-response","535","711723","0.0-6.0-0.105","","img/yellow.png","32","trial","32","true","1,0","3:go_c","",""
"null","","html-keyboard-response","536","712726","0.0-6.0-1.105","","<img src=""img/yellow-r.png"" border=""10"">","null","trial","32","","1,0","3:go_c","1",""
"null","","html-keyboard-response","537","713740","0.0-6.0-2.105","","<div style=""font-size:60px;"">+</div>","null","","","","","","",""
"581.7500000121072","","image-keyboard-response","538","714323","0.0-6.0-0.106","","img/blue.png","32","trial","null","false","0,1","4:nogo_d","",""
"null","","html-keyboard-response","539","715335","0.0-6.0-1.106","","<img src=""img/blue-n.png"" border=""10"">","null","trial","null","","0,1","4:nogo_d","0",""
"null","","html-keyboard-response","540","716346","0.0-6.0-2.106","","<div style=""font-size:60px;"">+</div>","null","","","","","","",""
"320.39999999688007","","image-keyboard-response","541","716668","0.0-6.0-0.107","","img/green.png","32","trial","32","true","0.8,0.2","1:go_a","",""
"null","","html-keyboard-response","542","717684","0.0-6.0-1.107","","<img src=""img/green-r.png"" border=""10"">","null","trial","32","","0.8,0.2","1:go_a","1",""
"null","","html-keyboard-response","543","718705","0.0-6.0-2.107","","<div style=""font-size:60px;"">+</div>","null","","","","","","",""
"282.34500001417473","","image-keyboard-response","544","718989","0.0-6.0-0.108","","img/yellow.png","32","trial","32","true","1,0","3:go_c","",""
"null","","html-keyboard-response","545","720005","0.0-6.0-1.108","","<img src=""img/yellow-r.png"" border=""10"">","null","trial","32","","1,0","3:go_c","1",""
"null","","html-keyboard-response","546","721017","0.0-6.0-2.108","","<div style=""font-size:60px;"">+</div>","null","","","","","","",""
"546.8950000067707","","image-keyboard-response","547","721564","0.0-6.0-0.109","","img/grey.png","32","trial","null","false","0.2,0.8","2:nogo_b","",""
"null","","html-keyboard-response","548","722576","0.0-6.0-1.109","","<img src=""img/grey-n.png"" border=""10"">","null","trial","null","","0.2,0.8","2:nogo_b","0",""
"null","","html-keyboard-response","549","723595","0.0-6.0-2.109","","<div style=""font-size:60px;"">+</div>","null","","","","","","",""
"383.2899999979418","","image-keyboard-response","550","723979","0.0-6.0-0.110","","img/blue.png","32","trial","null","false","0,1","4:nogo_d","",""
"null","","html-keyboard-response","551","724995","0.0-6.0-1.110","","<img src=""img/blue-n.png"" border=""10"">","null","trial","null","","0,1","4:nogo_d","0",""
"null","","html-keyboard-response","552","725999","0.0-6.0-2.110","","<div style=""font-size:60px;"">+</div>","null","","","","","","",""
"371.7800000158604","","image-keyboard-response","553","726372","0.0-6.0-0.111","","img/green.png","32","trial","32","true","0.8,0.2","1:go_a","",""
"null","","html-keyboard-response","554","727375","0.0-6.0-1.111","","<img src=""img/green-r.png"" border=""10"">","null","trial","32","","0.8,0.2","1:go_a","1",""
"null","","html-keyboard-response","555","728384","0.0-6.0-2.111","","<div style=""font-size:60px;"">+</div>","null","","","","","","",""
"341.57000001869164","","image-keyboard-response","556","728727","0.0-6.0-0.112","","img/blue.png","32","trial","null","false","0,1","4:nogo_d","",""
"null","","html-keyboard-response","557","729745","0.0-6.0-1.112","","<img src=""img/blue-n.png"" border=""10"">","null","trial","null","","0,1","4:nogo_d","0",""
"null","","html-keyboard-response","558","730765","0.0-6.0-2.112","","<div style=""font-size:60px;"">+</div>","null","","","","","","",""
"468.85000000474975","","image-keyboard-response","559","731235","0.0-6.0-0.113","","img/yellow.png","32","trial","32","true","1,0","3:go_c","",""
"null","","html-keyboard-response","560","732239","0.0-6.0-1.113","","<img src=""img/yellow-r.png"" border=""10"">","null","trial","32","","1,0","3:go_c","1",""
"null","","html-keyboard-response","561","733245","0.0-6.0-2.113","","<div style=""font-size:60px;"">+</div>","null","","","","","","",""
"349.965000001248","","image-keyboard-response","562","733596","0.0-6.0-0.114","","img/grey.png","32","trial","null","false","0.2,0.8","2:nogo_b","",""
"null","","html-keyboard-response","563","734605","0.0-6.0-1.114","","<img src=""img/grey-n.png"" border=""10"">","null","trial","null","","0.2,0.8","2:nogo_b","0",""
"null","","html-keyboard-response","564","735626","0.0-6.0-2.114","","<div style=""font-size:60px;"">+</div>","null","","","","","","",""
"378.9450000040233","","image-keyboard-response","565","736007","0.0-6.0-0.115","","img/green.png","32","trial","32","true","0.8,0.2","1:go_a","",""
"null","","html-keyboard-response","566","737015","0.0-6.0-1.115","","<img src=""img/green-r.png"" border=""10"">","null","trial","32","","0.8,0.2","1:go_a","1",""
"null","","html-keyboard-response","567","738025","0.0-6.0-2.115","","<div style=""font-size:60px;"">+</div>","null","","","","","","",""
"439.34000001172535","","image-keyboard-response","568","738466","0.0-6.0-0.116","","img/blue.png","32","trial","null","false","0,1","4:nogo_d","",""
"null","","html-keyboard-response","569","739471","0.0-6.0-1.116","","<img src=""img/blue-n.png"" border=""10"">","null","trial","null","","0,1","4:nogo_d","0",""
"null","","html-keyboard-response","570","740473","0.0-6.0-2.116","","<div style=""font-size:60px;"">+</div>","null","","","","","","",""
"409.76000000955537","","image-keyboard-response","571","740884","0.0-6.0-0.117","","img/grey.png","32","trial","null","false","0.2,0.8","2:nogo_b","",""
"null","","html-keyboard-response","572","741890","0.0-6.0-1.117","","<img src=""img/grey-n.png"" border=""10"">","null","trial","null","","0.2,0.8","2:nogo_b","0",""
"null","","html-keyboard-response","573","742895","0.0-6.0-2.117","","<div style=""font-size:60px;"">+</div>","null","","","","","","",""
"336.28000001772307","","image-keyboard-response","574","743232","0.0-6.0-0.118","","img/green.png","32","trial","32","true","0.8,0.2","1:go_a","",""
"null","","html-keyboard-response","575","744245","0.0-6.0-1.118","","<img src=""img/green-n.png"" border=""10"">","null","trial","32","","0.8,0.2","1:go_a","0",""
"null","","html-keyboard-response","576","745255","0.0-6.0-2.118","","<div style=""font-size:60px;"">+</div>","null","","","","","","",""
"369.7849999880418","","image-keyboard-response","577","745626","0.0-6.0-0.119","","img/yellow.png","32","trial","32","true","1,0","3:go_c","",""
"null","","html-keyboard-response","578","746635","0.0-6.0-1.119","","<img src=""img/yellow-r.png"" border=""10"">","null","trial","32","","1,0","3:go_c","1",""
"null","","html-keyboard-response","579","747636","0.0-6.0-2.119","","<div style=""font-size:60px;"">+</div>","null","","","","","","",""
"8196.12499998766","","instructions","580","755832","0.0-7.0","[{""page_index"":0,""viewing_time"":8195.989999978337}]","","","","","","","","",""
"781.329999997979","","image-keyboard-response","581","756614","0.0-8.0-0.0","","img/orange.png","32","trial","null","false","0.2,0.8","4:nogo_d","",""
"null","","html-keyboard-response","582","757630","0.0-8.0-1.0","","<img src=""img/orange-n.png"" border=""10"">","null","trial","null","","0.2,0.8","4:nogo_d","0",""
"null","","html-keyboard-response","583","758645","0.0-8.0-2.0","","<div style=""font-size:60px;"">+</div>","null","","","","","","",""
"413.8649999804329","","image-keyboard-response","584","759060","0.0-8.0-0.1","","img/pink.png","32","trial","null","false","0.2,0.8","2:nogo_b","",""
"null","","html-keyboard-response","585","760075","0.0-8.0-1.1","","<img src=""img/pink-r.png"" border=""10"">","null","trial","null","","0.2,0.8","2:nogo_b","1",""
"null","","html-keyboard-response","586","761086","0.0-8.0-2.1","","<div style=""font-size:60px;"">+</div>","null","","","","","","",""
"542.3549999832176","","image-keyboard-response","587","761629","0.0-8.0-0.2","","img/purple.png","32","trial","32","true","0.8,0.2","1:go_a","",""
"null","","html-keyboard-response","588","762645","0.0-8.0-1.2","","<img src=""img/purple-n.png"" border=""10"">","null","trial","32","","0.8,0.2","1:go_a","0",""
"null","","html-keyboard-response","589","763655","0.0-8.0-2.2","","<div style=""font-size:60px;"">+</div>","null","","","","","","",""
"552.1149999985937","","image-keyboard-response","590","764209","0.0-8.0-0.3","","img/blue.png","32","trial","32","true","0.8,0.2","3:go_c","",""
"null","","html-keyboard-response","591","765226","0.0-8.0-1.3","","<img src=""img/blue-n.png"" border=""10"">","null","trial","32","","0.8,0.2","3:go_c","0",""
"null","","html-keyboard-response","592","766235","0.0-8.0-2.3","","<div style=""font-size:60px;"">+</div>","null","","","","","","",""
"701.0250000166707","","image-keyboard-response","593","766938","0.0-8.0-0.4","","img/purple.png","32","trial","32","true","0.8,0.2","1:go_a","",""
"null","","html-keyboard-response","594","767945","0.0-8.0-1.4","","<img src=""img/purple-r.png"" border=""10"">","null","trial","32","","0.8,0.2","1:go_a","1",""
"null","","html-keyboard-response","595","768960","0.0-8.0-2.4","","<div style=""font-size:60px;"">+</div>","null","","","","","","",""
"null","","image-keyboard-response","596","770476","0.0-8.0-0.5","","img/blue.png","null","trial","32","false","0.8,0.2","3:go_c","",""
"null","","html-keyboard-response","597","771491","0.0-8.0-1.5","","<img src=""img/blue-n.png"">","null","trial","32","","0.8,0.2","3:go_c","0",""
"null","","html-keyboard-response","598","772495","0.0-8.0-2.5","","<div style=""font-size:60px;"">+</div>","null","","","","","","",""
"null","","image-keyboard-response","599","774005","0.0-8.0-0.6","","img/orange.png","null","trial","null","true","0.2,0.8","4:nogo_d","",""
"null","","html-keyboard-response","600","775016","0.0-8.0-1.6","","<img src=""img/orange-n.png"">","null","trial","null","","0.2,0.8","4:nogo_d","0",""
"null","","html-keyboard-response","601","776036","0.0-8.0-2.6","","<div style=""font-size:60px;"">+</div>","null","","","","","","",""
"588.74000000651","","image-keyboard-response","602","776628","0.0-8.0-0.7","","img/pink.png","32","trial","null","false","0.2,0.8","2:nogo_b","",""
"null","","html-keyboard-response","603","777646","0.0-8.0-1.7","","<img src=""img/pink-n.png"" border=""10"">","null","trial","null","","0.2,0.8","2:nogo_b","0",""
"null","","html-keyboard-response","604","778661","0.0-8.0-2.7","","<div style=""font-size:60px;"">+</div>","null","","","","","","",""
"951.824999996461","","image-keyboard-response","605","779613","0.0-8.0-0.8","","img/pink.png","32","trial","null","false","0.2,0.8","2:nogo_b","",""
"null","","html-keyboard-response","606","780625","0.0-8.0-1.8","","<img src=""img/pink-n.png"" border=""10"">","null","trial","null","","0.2,0.8","2:nogo_b","0",""
"null","","html-keyboard-response","607","781645","0.0-8.0-2.8","","<div style=""font-size:60px;"">+</div>","null","","","","","","",""
"null","","image-keyboard-response","608","783155","0.0-8.0-0.9","","img/orange.png","null","trial","null","true","0.2,0.8","4:nogo_d","",""
"null","","html-keyboard-response","609","784165","0.0-8.0-1.9","","<img src=""img/orange-n.png"">","null","trial","null","","0.2,0.8","4:nogo_d","0",""
"null","","html-keyboard-response","610","785171","0.0-8.0-2.9","","<div style=""font-size:60px;"">+</div>","null","","","","","","",""
"null","","image-keyboard-response","611","786684","0.0-8.0-0.10","","img/blue.png","null","trial","32","false","0.8,0.2","3:go_c","",""
"null","","html-keyboard-response","612","787694","0.0-8.0-1.10","","<img src=""img/blue-n.png"">","null","trial","32","","0.8,0.2","3:go_c","0",""
"null","","html-keyboard-response","613","788715","0.0-8.0-2.10","","<div style=""font-size:60px;"">+</div>","null","","","","","","",""
"606.0050000087358","","image-keyboard-response","614","789323","0.0-8.0-0.11","","img/purple.png","32","trial","32","true","0.8,0.2","1:go_a","",""
"null","","html-keyboard-response","615","790325","0.0-8.0-1.11","","<img src=""img/purple-r.png"" border=""10"">","null","trial","32","","0.8,0.2","1:go_a","1",""
"null","","html-keyboard-response","616","791329","0.0-8.0-2.11","","<div style=""font-size:60px;"">+</div>","null","","","","","","",""
"null","","image-keyboard-response","617","792836","0.0-8.0-0.12","","img/orange.png","null","trial","null","true","0.2,0.8","4:nogo_d","",""
"null","","html-keyboard-response","618","793846","0.0-8.0-1.12","","<img src=""img/orange-r.png"">","null","trial","null","","0.2,0.8","4:nogo_d","1",""
"null","","html-keyboard-response","619","794860","0.0-8.0-2.12","","<div style=""font-size:60px;"">+</div>","null","","","","","","",""
"null","","image-keyboard-response","620","796365","0.0-8.0-0.13","","img/blue.png","null","trial","32","false","0.8,0.2","3:go_c","",""
"null","","html-keyboard-response","621","797382","0.0-8.0-1.13","","<img src=""img/blue-n.png"">","null","trial","32","","0.8,0.2","3:go_c","0",""
"null","","html-keyboard-response","622","798395","0.0-8.0-2.13","","<div style=""font-size:60px;"">+</div>","null","","","","","","",""
"454.7200000088196","","image-keyboard-response","623","798852","0.0-8.0-0.14","","img/purple.png","32","trial","32","true","0.8,0.2","1:go_a","",""
"null","","html-keyboard-response","624","799857","0.0-8.0-1.14","","<img src=""img/purple-n.png"" border=""10"">","null","trial","32","","0.8,0.2","1:go_a","0",""
"null","","html-keyboard-response","625","800865","0.0-8.0-2.14","","<div style=""font-size:60px;"">+</div>","null","","","","","","",""
"437.2350000194274","","image-keyboard-response","626","801304","0.0-8.0-0.15","","img/pink.png","32","trial","null","false","0.2,0.8","2:nogo_b","",""
"null","","html-keyboard-response","627","802312","0.0-8.0-1.15","","<img src=""img/pink-n.png"" border=""10"">","null","trial","null","","0.2,0.8","2:nogo_b","0",""
"null","","html-keyboard-response","628","803317","0.0-8.0-2.15","","<div style=""font-size:60px;"">+</div>","null","","","","","","",""
"433.30999999307096","","image-keyboard-response","629","803752","0.0-8.0-0.16","","img/pink.png","32","trial","null","false","0.2,0.8","2:nogo_b","",""
"null","","html-keyboard-response","630","804757","0.0-8.0-1.16","","<img src=""img/pink-n.png"" border=""10"">","null","trial","null","","0.2,0.8","2:nogo_b","0",""
"null","","html-keyboard-response","631","805770","0.0-8.0-2.16","","<div style=""font-size:60px;"">+</div>","null","","","","","","",""
"null","","image-keyboard-response","632","807271","0.0-8.0-0.17","","img/blue.png","null","trial","32","false","0.8,0.2","3:go_c","",""
"null","","html-keyboard-response","633","808281","0.0-8.0-1.17","","<img src=""img/blue-n.png"">","null","trial","32","","0.8,0.2","3:go_c","0",""
"null","","html-keyboard-response","634","809293","0.0-8.0-2.17","","<div style=""font-size:60px;"">+</div>","null","","","","","","",""
"569.3650000030175","","image-keyboard-response","635","809864","0.0-8.0-0.18","","img/orange.png","32","trial","null","false","0.2,0.8","4:nogo_d","",""
"null","","html-keyboard-response","636","810881","0.0-8.0-1.18","","<img src=""img/orange-n.png"" border=""10"">","null","trial","null","","0.2,0.8","4:nogo_d","0",""
"null","","html-keyboard-response","637","811901","0.0-8.0-2.18","","<div style=""font-size:60px;"">+</div>","null","","","","","","",""
"520.795000018552","","image-keyboard-response","638","812423","0.0-8.0-0.19","","img/purple.png","32","trial","32","true","0.8,0.2","1:go_a","",""
"null","","html-keyboard-response","639","813435","0.0-8.0-1.19","","<img src=""img/purple-n.png"" border=""10"">","null","trial","32","","0.8,0.2","1:go_a","0",""
"null","","html-keyboard-response","640","814441","0.0-8.0-2.19","","<div style=""font-size:60px;"">+</div>","null","","","","","","",""
"457.1449999930337","","image-keyboard-response","641","814899","0.0-8.0-0.20","","img/pink.png","32","trial","null","false","0.2,0.8","2:nogo_b","",""
"null","","html-keyboard-response","642","815901","0.0-8.0-1.20","","<img src=""img/pink-n.png"" border=""10"">","null","trial","null","","0.2,0.8","2:nogo_b","0",""
"null","","html-keyboard-response","643","816911","0.0-8.0-2.20","","<div style=""font-size:60px;"">+</div>","null","","","","","","",""
"660.4300000180956","","image-keyboard-response","644","817572","0.0-8.0-0.21","","img/purple.png","32","trial","32","true","0.8,0.2","1:go_a","",""
"null","","html-keyboard-response","645","818591","0.0-8.0-1.21","","<img src=""img/purple-r.png"" border=""10"">","null","trial","32","","0.8,0.2","1:go_a","1",""
"null","","html-keyboard-response","646","819609","0.0-8.0-2.21","","<div style=""font-size:60px;"">+</div>","null","","","","","","",""
"null","","image-keyboard-response","647","821131","0.0-8.0-0.22","","img/blue.png","null","trial","32","false","0.8,0.2","3:go_c","",""
"null","","html-keyboard-response","648","822141","0.0-8.0-1.22","","<img src=""img/blue-n.png"">","null","trial","32","","0.8,0.2","3:go_c","0",""
"null","","html-keyboard-response","649","823143","0.0-8.0-2.22","","<div style=""font-size:60px;"">+</div>","null","","","","","","",""
"668.4649999951944","","image-keyboard-response","650","823813","0.0-8.0-0.23","","img/orange.png","32","trial","null","false","0.2,0.8","4:nogo_d","",""
"null","","html-keyboard-response","651","824824","0.0-8.0-1.23","","<img src=""img/orange-n.png"" border=""10"">","null","trial","null","","0.2,0.8","4:nogo_d","0",""
"null","","html-keyboard-response","652","825824","0.0-8.0-2.23","","<div style=""font-size:60px;"">+</div>","null","","","","","","",""
"null","","image-keyboard-response","653","827344","0.0-8.0-0.24","","img/blue.png","null","trial","32","false","0.8,0.2","3:go_c","",""
"null","","html-keyboard-response","654","828365","0.0-8.0-1.24","","<img src=""img/blue-n.png"">","null","trial","32","","0.8,0.2","3:go_c","0",""
"null","","html-keyboard-response","655","829375","0.0-8.0-2.24","","<div style=""font-size:60px;"">+</div>","null","","","","","","",""
"699.1100000159349","","image-keyboard-response","656","830076","0.0-8.0-0.25","","img/orange.png","32","trial","null","false","0.2,0.8","4:nogo_d","",""
"null","","html-keyboard-response","657","831095","0.0-8.0-1.25","","<img src=""img/orange-n.png"" border=""10"">","null","trial","null","","0.2,0.8","4:nogo_d","0",""
"null","","html-keyboard-response","658","832114","0.0-8.0-2.25","","<div style=""font-size:60px;"">+</div>","null","","","","","","",""
"764.8550000158139","","image-keyboard-response","659","832879","0.0-8.0-0.26","","img/pink.png","32","trial","null","false","0.2,0.8","2:nogo_b","",""
"null","","html-keyboard-response","660","833892","0.0-8.0-1.26","","<img src=""img/pink-r.png"" border=""10"">","null","trial","null","","0.2,0.8","2:nogo_b","1",""
"null","","html-keyboard-response","661","834905","0.0-8.0-2.26","","<div style=""font-size:60px;"">+</div>","null","","","","","","",""
"588.1100000115111","","image-keyboard-response","662","835494","0.0-8.0-0.27","","img/purple.png","32","trial","32","true","0.8,0.2","1:go_a","",""
"null","","html-keyboard-response","663","836514","0.0-8.0-1.27","","<img src=""img/purple-r.png"" border=""10"">","null","trial","32","","0.8,0.2","1:go_a","1",""
"null","","html-keyboard-response","664","837534","0.0-8.0-2.27","","<div style=""font-size:60px;"">+</div>","null","","","","","","",""
"699.895000027027","","image-keyboard-response","665","838234","0.0-8.0-0.28","","img/purple.png","32","trial","32","true","0.8,0.2","1:go_a","",""
"null","","html-keyboard-response","666","839238","0.0-8.0-1.28","","<img src=""img/purple-n.png"" border=""10"">","null","trial","32","","0.8,0.2","1:go_a","0",""
"null","","html-keyboard-response","667","840244","0.0-8.0-2.28","","<div style=""font-size:60px;"">+</div>","null","","","","","","",""
"475.2499999885913","","image-keyboard-response","668","840720","0.0-8.0-0.29","","img/pink.png","32","trial","null","false","0.2,0.8","2:nogo_b","",""
"null","","html-keyboard-response","669","841734","0.0-8.0-1.29","","<img src=""img/pink-n.png"" border=""10"">","null","trial","null","","0.2,0.8","2:nogo_b","0",""
"null","","html-keyboard-response","670","842752","0.0-8.0-2.29","","<div style=""font-size:60px;"">+</div>","null","","","","","","",""
"1090.024999983143","","image-keyboard-response","671","843834","0.0-8.0-0.30","","img/orange.png","32","trial","null","false","0.2,0.8","4:nogo_d","",""
"null","","html-keyboard-response","672","844836","0.0-8.0-1.30","","<img src=""img/orange-n.png"" border=""10"">","null","trial","null","","0.2,0.8","4:nogo_d","0",""
"null","","html-keyboard-response","673","845855","0.0-8.0-2.30","","<div style=""font-size:60px;"">+</div>","null","","","","","","",""
"null","","image-keyboard-response","674","847364","0.0-8.0-0.31","","img/blue.png","null","trial","32","false","0.8,0.2","3:go_c","",""
"null","","html-keyboard-response","675","848385","0.0-8.0-1.31","","<img src=""img/blue-n.png"">","null","trial","32","","0.8,0.2","3:go_c","0",""
