"rt","url","trial_type","trial_index","time_elapsed","internal_node_id","view_history","stimulus","key_press","test_part","correct_response","correct","use_rew","which_stim","reward","responses"
"2928.300000011921","consent.html","external-html","0","3032","0.0-0.0","","","","","","","","","",""
"74725.89999997616","","instructions","1","77759","0.0-1.0","[{""page_index"":0,""viewing_time"":3213.199999988079},{""page_index"":1,""viewing_time"":17026.100000023842},{""page_index"":2,""viewing_time"":5614},{""page_index"":3,""viewing_time"":17997.899999976158},{""page_index"":4,""viewing_time"":18618},{""page_index"":5,""viewing_time"":6021.100000023842},{""page_index"":6,""viewing_time"":6235}]","","","","","","","","",""
"444.89999997615814","","image-keyboard-response","2","78205","0.0-2.0-0.0","","img/test2.PNG","32","practice","null","false","","","",""
"null","","html-keyboard-response","3","79215","0.0-2.0-1.0","","<img src=""img/test2-neutral.PNG"" border=""10px; grey"">","null","","","","","","",""
"null","","html-keyboard-response","4","80220","0.0-2.0-2.0","","<div style=""font-size:60px;"">+</div>","null","","","","","","",""
"545","","image-keyboard-response","5","80766","0.0-2.0-0.1","","img/test3.PNG","32","practice","null","false","","","",""
"null","","html-keyboard-response","6","81782","0.0-2.0-1.1","","<img src=""img/test3-neutral.PNG"" border=""10px; grey"">","null","","","","","","",""
"null","","html-keyboard-response","7","82787","0.0-2.0-2.1","","<div style=""font-size:60px;"">+</div>","null","","","","","","",""
"339.39999997615814","","image-keyboard-response","8","83127","0.0-2.0-0.2","","img/test1.PNG","32","practice","32","true","","","",""
"null","","html-keyboard-response","9","84134","0.0-2.0-1.2","","<img src=""img/test1-reward.PNG"" border=""10px; grey"">","null","","","","","","",""
"null","","html-keyboard-response","10","85140","0.0-2.0-2.2","","<div style=""font-size:60px;"">+</div>","null","","","","","","",""
"538","","image-keyboard-response","11","85679","0.0-2.0-0.3","","img/test1.PNG","32","practice","32","true","","","",""
"null","","html-keyboard-response","12","86689","0.0-2.0-1.3","","<img src=""img/test1-reward.PNG"" border=""10px; grey"">","null","","","","","","",""
"null","","html-keyboard-response","13","87694","0.0-2.0-2.3","","<div style=""font-size:60px;"">+</div>","null","","","","","","",""
"null","","image-keyboard-response","14","89209","0.0-2.0-0.4","","img/test2.PNG","null","practice","null","true","","","",""
"null","","html-keyboard-response","15","90215","0.0-2.0-1.4","","<img src=""img/test2-reward.PNG"">","null","","","","","","",""
"null","","html-keyboard-response","16","91220","0.0-2.0-2.4","","<div style=""font-size:60px;"">+</div>","null","","","","","","",""
"1024.8999999761581","","image-keyboard-response","17","92246","0.0-2.0-0.5","","img/test3.PNG","32","practice","null","false","","","",""
"null","","html-keyboard-response","18","93262","0.0-2.0-1.5","","<img src=""img/test3-neutral.PNG"" border=""10px; grey"">","null","","","","","","",""
"null","","html-keyboard-response","19","94267","0.0-2.0-2.5","","<div style=""font-size:60px;"">+</div>","null","","","","","","",""
"431","","image-keyboard-response","20","94699","0.0-2.0-0.6","","img/test1.PNG","32","practice","32","true","","","",""
"null","","html-keyboard-response","21","95707","0.0-2.0-1.6","","<img src=""img/test1-reward.PNG"" border=""10px; grey"">","null","","","","","","",""
"null","","html-keyboard-response","22","96713","0.0-2.0-2.6","","<div style=""font-size:60px;"">+</div>","null","","","","","","",""
"365.80000001192093","","image-keyboard-response","23","97079","0.0-2.0-0.7","","img/test2.PNG","32","practice","null","false","","","",""
"null","","html-keyboard-response","24","98089","0.0-2.0-1.7","","<img src=""img/test2-neutral.PNG"" border=""10px; grey"">","null","","","","","","",""
"null","","html-keyboard-response","25","99095","0.0-2.0-2.7","","<div style=""font-size:60px;"">+</div>","null","","","","","","",""
"null","","image-keyboard-response","26","100609","0.0-2.0-0.8","","img/test3.PNG","null","practice","null","true","","","",""
"null","","html-keyboard-response","27","101616","0.0-2.0-1.8","","<img src=""img/test3-reward.PNG"">","null","","","","","","",""
"null","","html-keyboard-response","28","102623","0.0-2.0-2.8","","<div style=""font-size:60px;"">+</div>","null","","","","","","",""
"574.1000000238419","","image-keyboard-response","29","103197","0.0-2.0-0.9","","img/test3.PNG","32","practice","null","false","","","",""
"null","","html-keyboard-response","30","104200","0.0-2.0-1.9","","<img src=""img/test3-neutral.PNG"" border=""10px; grey"">","null","","","","","","",""
"null","","html-keyboard-response","31","105206","0.0-2.0-2.9","","<div style=""font-size:60px;"">+</div>","null","","","","","","",""
"701.5","","image-keyboard-response","32","105908","0.0-2.0-0.10","","img/test2.PNG","32","practice","null","false","","","",""
"null","","html-keyboard-response","33","106923","0.0-2.0-1.10","","<img src=""img/test2-neutral.PNG"" border=""10px; grey"">","null","","","","","","",""
"null","","html-keyboard-response","34","107928","0.0-2.0-2.10","","<div style=""font-size:60px;"">+</div>","null","","","","","","",""
"355.69999998807907","","image-keyboard-response","35","108285","0.0-2.0-0.11","","img/test1.PNG","32","practice","32","true","","","",""
"null","","html-keyboard-response","36","109291","0.0-2.0-1.11","","<img src=""img/test1-reward.PNG"" border=""10px; grey"">","null","","","","","","",""
"null","","html-keyboard-response","37","110295","0.0-2.0-2.11","","<div style=""font-size:60px;"">+</div>","null","","","","","","",""
"1849.6000000238419","","instructions","38","112145","0.0-3.0","[{""page_index"":0,""viewing_time"":1849.5}]","","","","","","","","",""
"521.3000000119209","","image-keyboard-response","39","112667","0.0-4.0-0.0","","img/red.png","32","trial","null","false","0.2,0.8","2:nogo_b","",""
"null","","html-keyboard-response","40","113670","0.0-4.0-1.0","","<img src=""img/red-n.png"" border=""10"">","null","trial","null","","0.2,0.8","2:nogo_b","0",""
"null","","html-keyboard-response","41","114676","0.0-4.0-2.0","","<div style=""font-size:60px;"">+</div>","null","","","","","","",""
"338.2999999523163","","image-keyboard-response","42","115015","0.0-4.0-0.1","","img/grey.png","32","trial","32","true","0.8,0.2","1:go_a","",""
"null","","html-keyboard-response","43","116022","0.0-4.0-1.1","","<img src=""img/grey-r.png"" border=""10"">","null","trial","32","","0.8,0.2","1:go_a","1",""
"null","","html-keyboard-response","44","117028","0.0-4.0-2.1","","<div style=""font-size:60px;"">+</div>","null","","","","","","",""
"323.39999997615814","","image-keyboard-response","45","117352","0.0-4.0-0.2","","img/grey.png","32","trial","32","true","0.8,0.2","1:go_a","",""
"null","","html-keyboard-response","46","118359","0.0-4.0-1.2","","<img src=""img/grey-r.png"" border=""10"">","null","trial","32","","0.8,0.2","1:go_a","1",""
"null","","html-keyboard-response","47","119365","0.0-4.0-2.2","","<div style=""font-size:60px;"">+</div>","null","","","","","","",""
"null","","image-keyboard-response","48","120880","0.0-4.0-0.3","","img/red.png","null","trial","null","true","0.2,0.8","2:nogo_b","",""
"null","","html-keyboard-response","49","121886","0.0-4.0-1.3","","<img src=""img/red-n.png"">","null","trial","null","","0.2,0.8","2:nogo_b","0",""
"null","","html-keyboard-response","50","122894","0.0-4.0-2.3","","<div style=""font-size:60px;"">+</div>","null","","","","","","",""
"398.69999998807907","","image-keyboard-response","51","123293","0.0-4.0-0.4","","img/grey.png","32","trial","32","true","0.8,0.2","1:go_a","",""
"null","","html-keyboard-response","52","124303","0.0-4.0-1.4","","<img src=""img/grey-r.png"" border=""10"">","null","trial","32","","0.8,0.2","1:go_a","1",""
"null","","html-keyboard-response","53","125308","0.0-4.0-2.4","","<div style=""font-size:60px;"">+</div>","null","","","","","","",""
"null","","image-keyboard-response","54","126811","0.0-4.0-0.5","","img/red.png","null","trial","null","true","0.2,0.8","2:nogo_b","",""
"null","","html-keyboard-response","55","127816","0.0-4.0-1.5","","<img src=""img/red-r.png"">","null","trial","null","","0.2,0.8","2:nogo_b","1",""
"null","","html-keyboard-response","56","128822","0.0-4.0-2.5","","<div style=""font-size:60px;"">+</div>","null","","","","","","",""
"539.9000000357628","","image-keyboard-response","57","129362","0.0-4.0-0.6","","img/red.png","32","trial","null","false","0.2,0.8","2:nogo_b","",""
"null","","html-keyboard-response","58","130367","0.0-4.0-1.6","","<img src=""img/red-n.png"" border=""10"">","null","trial","null","","0.2,0.8","2:nogo_b","0",""
"null","","html-keyboard-response","59","131372","0.0-4.0-2.6","","<div style=""font-size:60px;"">+</div>","null","","","","","","",""
"850.1000000238419","","image-keyboard-response","60","132223","0.0-4.0-0.7","","img/grey.png","32","trial","32","true","0.8,0.2","1:go_a","",""
"null","","html-keyboard-response","61","133229","0.0-4.0-1.7","","<img src=""img/grey-n.png"" border=""10"">","null","trial","32","","0.8,0.2","1:go_a","0",""
"null","","html-keyboard-response","62","134235","0.0-4.0-2.7","","<div style=""font-size:60px;"">+</div>","null","","","","","","",""
"397.5","","image-keyboard-response","63","134633","0.0-4.0-0.8","","img/red.png","32","trial","null","false","0.2,0.8","2:nogo_b","",""
"null","","html-keyboard-response","64","135644","0.0-4.0-1.8","","<img src=""img/red-n.png"" border=""10"">","null","trial","null","","0.2,0.8","2:nogo_b","0",""
"null","","html-keyboard-response","65","136650","0.0-4.0-2.8","","<div style=""font-size:60px;"">+</div>","null","","","","","","",""
"608.8000000119209","","image-keyboard-response","66","137260","0.0-4.0-0.9","","img/grey.png","32","trial","32","true","0.8,0.2","1:go_a","",""
"null","","html-keyboard-response","67","138275","0.0-4.0-1.9","","<img src=""img/grey-r.png"" border=""10"">","null","trial","32","","0.8,0.2","1:go_a","1",""
"null","","html-keyboard-response","68","139281","0.0-4.0-2.9","","<div style=""font-size:60px;"">+</div>","null","","","","","","",""
"null","","image-keyboard-response","69","140784","0.0-4.0-0.10","","img/grey.png","null","trial","32","false","0.8,0.2","1:go_a","",""
"null","","html-keyboard-response","70","141791","0.0-4.0-1.10","","<img src=""img/grey-n.png"">","null","trial","32","","0.8,0.2","1:go_a","0",""
"null","","html-keyboard-response","71","142797","0.0-4.0-2.10","","<div style=""font-size:60px;"">+</div>","null","","","","","","",""
"365.9000000357628","","image-keyboard-response","72","143163","0.0-4.0-0.11","","img/red.png","32","trial","null","false","0.2,0.8","2:nogo_b","",""
"null","","html-keyboard-response","73","144175","0.0-4.0-1.11","","<img src=""img/red-n.png"" border=""10"">","null","trial","null","","0.2,0.8","2:nogo_b","0",""
"null","","html-keyboard-response","74","145181","0.0-4.0-2.11","","<div style=""font-size:60px;"">+</div>","null","","","","","","",""
"349.5","","image-keyboard-response","75","145531","0.0-4.0-0.12","","img/red.png","32","trial","null","false","0.2,0.8","2:nogo_b","",""
"null","","html-keyboard-response","76","146542","0.0-4.0-1.12","","<img src=""img/red-n.png"" border=""10"">","null","trial","null","","0.2,0.8","2:nogo_b","0",""
"null","","html-keyboard-response","77","147547","0.0-4.0-2.12","","<div style=""font-size:60px;"">+</div>","null","","","","","","",""
"508.80000001192093","","image-keyboard-response","78","148056","0.0-4.0-0.13","","img/grey.png","32","trial","32","true","0.8,0.2","1:go_a","",""
"null","","html-keyboard-response","79","149062","0.0-4.0-1.13","","<img src=""img/grey-r.png"" border=""10"">","null","trial","32","","0.8,0.2","1:go_a","1",""
"null","","html-keyboard-response","80","150068","0.0-4.0-2.13","","<div style=""font-size:60px;"">+</div>","null","","","","","","",""
"615.3000000119209","","image-keyboard-response","81","150684","0.0-4.0-0.14","","img/grey.png","32","trial","32","true","0.8,0.2","1:go_a","",""
"null","","html-keyboard-response","82","151691","0.0-4.0-1.14","","<img src=""img/grey-r.png"" border=""10"">","null","trial","32","","0.8,0.2","1:go_a","1",""
"null","","html-keyboard-response","83","152696","0.0-4.0-2.14","","<div style=""font-size:60px;"">+</div>","null","","","","","","",""
"861","","image-keyboard-response","84","153558","0.0-4.0-0.15","","img/red.png","32","trial","null","false","0.2,0.8","2:nogo_b","",""
"null","","html-keyboard-response","85","154567","0.0-4.0-1.15","","<img src=""img/red-n.png"" border=""10"">","null","trial","null","","0.2,0.8","2:nogo_b","0",""
"null","","html-keyboard-response","86","155572","0.0-4.0-2.15","","<div style=""font-size:60px;"">+</div>","null","","","","","","",""
"1209.199999988079","","image-keyboard-response","87","156782","0.0-4.0-0.16","","img/grey.png","32","trial","32","true","0.8,0.2","1:go_a","",""
"null","","html-keyboard-response","88","157798","0.0-4.0-1.16","","<img src=""img/grey-r.png"" border=""10"">","null","trial","32","","0.8,0.2","1:go_a","1",""
"null","","html-keyboard-response","89","158804","0.0-4.0-2.16","","<div style=""font-size:60px;"">+</div>","null","","","","","","",""
"null","","image-keyboard-response","90","160320","0.0-4.0-0.17","","img/red.png","null","trial","null","true","0.2,0.8","2:nogo_b","",""
"null","","html-keyboard-response","91","161325","0.0-4.0-1.17","","<img src=""img/red-n.png"">","null","trial","null","","0.2,0.8","2:nogo_b","0",""
"null","","html-keyboard-response","92","162331","0.0-4.0-2.17","","<div style=""font-size:60px;"">+</div>","null","","","","","","",""
"641.0999999642372","","image-keyboard-response","93","162973","0.0-4.0-0.18","","img/red.png","32","trial","null","false","0.2,0.8","2:nogo_b","",""
"null","","html-keyboard-response","94","163987","0.0-4.0-1.18","","<img src=""img/red-n.png"" border=""10"">","null","trial","null","","0.2,0.8","2:nogo_b","0",""
"null","","html-keyboard-response","95","164993","0.0-4.0-2.18","","<div style=""font-size:60px;"">+</div>","null","","","","","","",""
"709.3999999761581","","image-keyboard-response","96","165703","0.0-4.0-0.19","","img/grey.png","32","trial","32","true","0.8,0.2","1:go_a","",""
"null","","html-keyboard-response","97","166710","0.0-4.0-1.19","","<img src=""img/grey-r.png"" border=""10"">","null","trial","32","","0.8,0.2","1:go_a","1",""
"null","","html-keyboard-response","98","167715","0.0-4.0-2.19","","<div style=""font-size:60px;"">+</div>","null","","","","","","",""
"524","","image-keyboard-response","99","168240","0.0-4.0-0.20","","img/red.png","32","trial","null","false","0.2,0.8","2:nogo_b","",""
"null","","html-keyboard-response","100","169247","0.0-4.0-1.20","","<img src=""img/red-r.png"" border=""10"">","null","trial","null","","0.2,0.8","2:nogo_b","1",""
"null","","html-keyboard-response","101","170252","0.0-4.0-2.20","","<div style=""font-size:60px;"">+</div>","null","","","","","","",""
"358.89999997615814","","image-keyboard-response","102","170612","0.0-4.0-0.21","","img/grey.png","32","trial","32","true","0.8,0.2","1:go_a","",""
"null","","html-keyboard-response","103","171614","0.0-4.0-1.21","","<img src=""img/grey-r.png"" border=""10"">","null","trial","32","","0.8,0.2","1:go_a","1",""
"null","","html-keyboard-response","104","172621","0.0-4.0-2.21","","<div style=""font-size:60px;"">+</div>","null","","","","","","",""
"849.1999999880791","","image-keyboard-response","105","173471","0.0-4.0-0.22","","img/grey.png","32","trial","32","true","0.8,0.2","1:go_a","",""
"null","","html-keyboard-response","106","174476","0.0-4.0-1.22","","<img src=""img/grey-r.png"" border=""10"">","null","trial","32","","0.8,0.2","1:go_a","1",""
"null","","html-keyboard-response","107","175481","0.0-4.0-2.22","","<div style=""font-size:60px;"">+</div>","null","","","","","","",""
"null","","image-keyboard-response","108","176995","0.0-4.0-0.23","","img/red.png","null","trial","null","true","0.2,0.8","2:nogo_b","",""
"null","","html-keyboard-response","109","178000","0.0-4.0-1.23","","<img src=""img/red-r.png"">","null","trial","null","","0.2,0.8","2:nogo_b","1",""
"null","","html-keyboard-response","110","179006","0.0-4.0-2.23","","<div style=""font-size:60px;"">+</div>","null","","","","","","",""
"660.1000000238419","","image-keyboard-response","111","179666","0.0-4.0-0.24","","img/grey.png","32","trial","32","true","0.8,0.2","1:go_a","",""
"null","","html-keyboard-response","112","180678","0.0-4.0-1.24","","<img src=""img/grey-r.png"" border=""10"">","null","trial","32","","0.8,0.2","1:go_a","1",""
"null","","html-keyboard-response","113","181685","0.0-4.0-2.24","","<div style=""font-size:60px;"">+</div>","null","","","","","","",""
"1248.0999999642372","","image-keyboard-response","114","182934","0.0-4.0-0.25","","img/red.png","32","trial","null","false","0.2,0.8","2:nogo_b","",""
"null","","html-keyboard-response","115","183946","0.0-4.0-1.25","","<img src=""img/red-n.png"" border=""10"">","null","trial","null","","0.2,0.8","2:nogo_b","0",""
"null","","html-keyboard-response","116","184952","0.0-4.0-2.25","","<div style=""font-size:60px;"">+</div>","null","","","","","","",""
"null","","image-keyboard-response","117","186467","0.0-4.0-0.26","","img/red.png","null","trial","null","true","0.2,0.8","2:nogo_b","",""
"null","","html-keyboard-response","118","187468","0.0-4.0-1.26","","<img src=""img/red-r.png"">","null","trial","null","","0.2,0.8","2:nogo_b","1",""
"null","","html-keyboard-response","119","188478","0.0-4.0-2.26","","<div style=""font-size:60px;"">+</div>","null","","","","","","",""
"440.10000002384186","","image-keyboard-response","120","188919","0.0-4.0-0.27","","img/grey.png","32","trial","32","true","0.8,0.2","1:go_a","",""
"null","","html-keyboard-response","121","189933","0.0-4.0-1.27","","<img src=""img/grey-r.png"" border=""10"">","null","trial","32","","0.8,0.2","1:go_a","1",""
"null","","html-keyboard-response","122","190938","0.0-4.0-2.27","","<div style=""font-size:60px;"">+</div>","null","","","","","","",""
"619.7999999523163","","image-keyboard-response","123","191558","0.0-4.0-0.28","","img/red.png","32","trial","null","false","0.2,0.8","2:nogo_b","",""
"null","","html-keyboard-response","124","192561","0.0-4.0-1.28","","<img src=""img/red-n.png"" border=""10"">","null","trial","null","","0.2,0.8","2:nogo_b","0",""
"null","","html-keyboard-response","125","193568","0.0-4.0-2.28","","<div style=""font-size:60px;"">+</div>","null","","","","","","",""
"522.5999999642372","","image-keyboard-response","126","194091","0.0-4.0-0.29","","img/grey.png","32","trial","32","true","0.8,0.2","1:go_a","",""
"null","","html-keyboard-response","127","195099","0.0-4.0-1.29","","<img src=""img/grey-r.png"" border=""10"">","null","trial","32","","0.8,0.2","1:go_a","1",""
"null","","html-keyboard-response","128","196105","0.0-4.0-2.29","","<div style=""font-size:60px;"">+</div>","null","","","","","","",""
"823","","image-keyboard-response","129","196928","0.0-4.0-0.30","","img/red.png","32","trial","null","false","0.2,0.8","2:nogo_b","",""
"null","","html-keyboard-response","130","197930","0.0-4.0-1.30","","<img src=""img/red-n.png"" border=""10"">","null","trial","null","","0.2,0.8","2:nogo_b","0",""
"null","","html-keyboard-response","131","198937","0.0-4.0-2.30","","<div style=""font-size:60px;"">+</div>","null","","","","","","",""
"427.69999998807907","","image-keyboard-response","132","199365","0.0-4.0-0.31","","img/grey.png","32","trial","32","true","0.8,0.2","1:go_a","",""
"null","","html-keyboard-response","133","200377","0.0-4.0-1.31","","<img src=""img/grey-n.png"" border=""10"">","null","trial","32","","0.8,0.2","1:go_a","0",""
"null","","html-keyboard-response","134","201384","0.0-4.0-2.31","","<div style=""font-size:60px;"">+</div>","null","","","","","","",""
"536.7999999523163","","image-keyboard-response","135","201921","0.0-4.0-0.32","","img/red.png","32","trial","null","false","0.2,0.8","2:nogo_b","",""
"null","","html-keyboard-response","136","202930","0.0-4.0-1.32","","<img src=""img/red-n.png"" border=""10"">","null","trial","null","","0.2,0.8","2:nogo_b","0",""
"null","","html-keyboard-response","137","203936","0.0-4.0-2.32","","<div style=""font-size:60px;"">+</div>","null","","","","","","",""
"312.5999999642372","","image-keyboard-response","138","204249","0.0-4.0-0.33","","img/grey.png","32","trial","32","true","0.8,0.2","1:go_a","",""
"null","","html-keyboard-response","139","205251","0.0-4.0-1.33","","<img src=""img/grey-r.png"" border=""10"">","null","trial","32","","0.8,0.2","1:go_a","1",""
"null","","html-keyboard-response","140","206256","0.0-4.0-2.33","","<div style=""font-size:60px;"">+</div>","null","","","","","","",""
"323.0999999642372","","image-keyboard-response","141","206580","0.0-4.0-0.34","","img/red.png","32","trial","null","false","0.2,0.8","2:nogo_b","",""
"null","","html-keyboard-response","142","207587","0.0-4.0-1.34","","<img src=""img/red-r.png"" border=""10"">","null","trial","null","","0.2,0.8","2:nogo_b","1",""
"null","","html-keyboard-response","143","208594","0.0-4.0-2.34","","<div style=""font-size:60px;"">+</div>","null","","","","","","",""
"286.60000002384186","","image-keyboard-response","144","208881","0.0-4.0-0.35","","img/grey.png","32","trial","32","true","0.8,0.2","1:go_a","",""
"null","","html-keyboard-response","145","209893","0.0-4.0-1.35","","<img src=""img/grey-r.png"" border=""10"">","null","trial","32","","0.8,0.2","1:go_a","1",""
"null","","html-keyboard-response","146","210898","0.0-4.0-2.35","","<div style=""font-size:60px;"">+</div>","null","","","","","","",""
"null","","image-keyboard-response","147","212413","0.0-4.0-0.36","","img/red.png","null","trial","null","true","0.2,0.8","2:nogo_b","",""
"null","","html-keyboard-response","148","213420","0.0-4.0-1.36","","<img src=""img/red-r.png"">","null","trial","null","","0.2,0.8","2:nogo_b","1",""
"null","","html-keyboard-response","149","214425","0.0-4.0-2.36","","<div style=""font-size:60px;"">+</div>","null","","","","","","",""
"327.5","","image-keyboard-response","150","214753","0.0-4.0-0.37","","img/grey.png","32","trial","32","true","0.8,0.2","1:go_a","",""
"null","","html-keyboard-response","151","215756","0.0-4.0-1.37","","<img src=""img/grey-r.png"" border=""10"">","null","trial","32","","0.8,0.2","1:go_a","1",""
"null","","html-keyboard-response","152","216761","0.0-4.0-2.37","","<div style=""font-size:60px;"">+</div>","null","","","","","","",""
"null","","image-keyboard-response","153","218261","0.0-4.0-0.38","","img/red.png","null","trial","null","true","0.2,0.8","2:nogo_b","",""
"null","","html-keyboard-response","154","219267","0.0-4.0-1.38","","<img src=""img/red-r.png"">","null","trial","null","","0.2,0.8","2:nogo_b","1",""
"null","","html-keyboard-response","155","220272","0.0-4.0-2.38","","<div style=""font-size:60px;"">+</div>","null","","","","","","",""
"299.69999998807907","","image-keyboard-response","156","220572","0.0-4.0-0.39","","img/grey.png","32","trial","32","true","0.8,0.2","1:go_a","",""
"null","","html-keyboard-response","157","221585","0.0-4.0-1.39","","<img src=""img/grey-r.png"" border=""10"">","null","trial","32","","0.8,0.2","1:go_a","1",""
"null","","html-keyboard-response","158","222591","0.0-4.0-2.39","","<div style=""font-size:60px;"">+</div>","null","","","","","","",""
"293.5","","image-keyboard-response","159","222885","0.0-4.0-0.40","","img/red.png","32","trial","null","false","0.2,0.8","2:nogo_b","",""
"null","","html-keyboard-response","160","223890","0.0-4.0-1.40","","<img src=""img/red-r.png"" border=""10"">","null","trial","null","","0.2,0.8","2:nogo_b","1",""
"null","","html-keyboard-response","161","224895","0.0-4.0-2.40","","<div style=""font-size:60px;"">+</div>","null","","","","","","",""
"314.30000001192093","","image-keyboard-response","162","225210","0.0-4.0-0.41","","img/grey.png","32","trial","32","true","0.8,0.2","1:go_a","",""
"null","","html-keyboard-response","163","226211","0.0-4.0-1.41","","<img src=""img/grey-r.png"" border=""10"">","null","trial","32","","0.8,0.2","1:go_a","1",""
"null","","html-keyboard-response","164","227215","0.0-4.0-2.41","","<div style=""font-size:60px;"">+</div>","null","","","","","","",""
"610.3999999761581","","image-keyboard-response","165","227826","0.0-4.0-0.42","","img/red.png","32","trial","null","false","0.2,0.8","2:nogo_b","",""
"null","","html-keyboard-response","166","228839","0.0-4.0-1.42","","<img src=""img/red-n.png"" border=""10"">","null","trial","null","","0.2,0.8","2:nogo_b","0",""
"null","","html-keyboard-response","167","229844","0.0-4.0-2.42","","<div style=""font-size:60px;"">+</div>","null","","","","","","",""
"280.0999999642372","","image-keyboard-response","168","230125","0.0-4.0-0.43","","img/grey.png","32","trial","32","true","0.8,0.2","1:go_a","",""
"null","","html-keyboard-response","169","231129","0.0-4.0-1.43","","<img src=""img/grey-r.png"" border=""10"">","null","trial","32","","0.8,0.2","1:go_a","1",""
"null","","html-keyboard-response","170","232134","0.0-4.0-2.43","","<div style=""font-size:60px;"">+</div>","null","","","","","","",""
"541.1999999880791","","image-keyboard-response","171","232676","0.0-4.0-0.44","","img/grey.png","32","trial","32","true","0.8,0.2","1:go_a","",""
"null","","html-keyboard-response","172","233680","0.0-4.0-1.44","","<img src=""img/grey-r.png"" border=""10"">","null","trial","32","","0.8,0.2","1:go_a","1",""
"null","","html-keyboard-response","173","234684","0.0-4.0-2.44","","<div style=""font-size:60px;"">+</div>","null","","","","","","",""
"null","","image-keyboard-response","174","236185","0.0-4.0-0.45","","img/red.png","null","trial","null","true","0.2,0.8","2:nogo_b","",""
"null","","html-keyboard-response","175","237190","0.0-4.0-1.45","","<img src=""img/red-n.png"">","null","trial","null","","0.2,0.8","2:nogo_b","0",""
"null","","html-keyboard-response","176","238190","0.0-4.0-2.45","","<div style=""font-size:60px;"">+</div>","null","","","","","","",""
"286.30000001192093","","image-keyboard-response","177","238477","0.0-4.0-0.46","","img/grey.png","32","trial","32","true","0.8,0.2","1:go_a","",""
"null","","html-keyboard-response","178","239479","0.0-4.0-1.46","","<img src=""img/grey-r.png"" border=""10"">","null","trial","32","","0.8,0.2","1:go_a","1",""
"null","","html-keyboard-response","179","240485","0.0-4.0-2.46","","<div style=""font-size:60px;"">+</div>","null","","","","","","",""
"null","","image-keyboard-response","180","242000","0.0-4.0-0.47","","img/red.png","null","trial","null","true","0.2,0.8","2:nogo_b","",""
"null","","html-keyboard-response","181","243005","0.0-4.0-1.47","","<img src=""img/red-r.png"">","null","trial","null","","0.2,0.8","2:nogo_b","1",""
"null","","html-keyboard-response","182","244007","0.0-4.0-2.47","","<div style=""font-size:60px;"">+</div>","null","","","","","","",""
"365.5999999642372","","image-keyboard-response","183","244373","0.0-4.0-0.48","","img/grey.png","32","trial","32","true","0.8,0.2","1:go_a","",""
"null","","html-keyboard-response","184","245384","0.0-4.0-1.48","","<img src=""img/grey-n.png"" border=""10"">","null","trial","32","","0.8,0.2","1:go_a","0",""
"null","","html-keyboard-response","185","246390","0.0-4.0-2.48","","<div style=""font-size:60px;"">+</div>","null","","","","","","",""
"290","","image-keyboard-response","186","246681","0.0-4.0-0.49","","img/red.png","32","trial","null","false","0.2,0.8","2:nogo_b","",""
"null","","html-keyboard-response","187","247690","0.0-4.0-1.49","","<img src=""img/red-n.png"" border=""10"">","null","trial","null","","0.2,0.8","2:nogo_b","0",""
"null","","html-keyboard-response","188","248697","0.0-4.0-2.49","","<div style=""font-size:60px;"">+</div>","null","","","","","","",""
"847.1999999880791","","image-keyboard-response","189","249544","0.0-4.0-0.50","","img/red.png","32","trial","null","false","0.2,0.8","2:nogo_b","",""
"null","","html-keyboard-response","190","250552","0.0-4.0-1.50","","<img src=""img/red-n.png"" border=""10"">","null","trial","null","","0.2,0.8","2:nogo_b","0",""
"null","","html-keyboard-response","191","251557","0.0-4.0-2.50","","<div style=""font-size:60px;"">+</div>","null","","","","","","",""
"359.80000001192093","","image-keyboard-response","192","251917","0.0-4.0-0.51","","img/grey.png","32","trial","32","true","0.8,0.2","1:go_a","",""
"null","","html-keyboard-response","193","252932","0.0-4.0-1.51","","<img src=""img/grey-r.png"" border=""10"">","null","trial","32","","0.8,0.2","1:go_a","1",""
"null","","html-keyboard-response","194","253938","0.0-4.0-2.51","","<div style=""font-size:60px;"">+</div>","null","","","","","","",""
"341.9000000357628","","image-keyboard-response","195","254280","0.0-4.0-0.52","","img/grey.png","32","trial","32","true","0.8,0.2","1:go_a","",""
"null","","html-keyboard-response","196","255284","0.0-4.0-1.52","","<img src=""img/grey-r.png"" border=""10"">","null","trial","32","","0.8,0.2","1:go_a","1",""
"null","","html-keyboard-response","197","256284","0.0-4.0-2.52","","<div style=""font-size:60px;"">+</div>","null","","","","","","",""
"338.19999998807907","","image-keyboard-response","198","256623","0.0-4.0-0.53","","img/red.png","32","trial","null","false","0.2,0.8","2:nogo_b","",""
"null","","html-keyboard-response","199","257634","0.0-4.0-1.53","","<img src=""img/red-n.png"" border=""10"">","null","trial","null","","0.2,0.8","2:nogo_b","0",""
"null","","html-keyboard-response","200","258640","0.0-4.0-2.53","","<div style=""font-size:60px;"">+</div>","null","","","","","","",""
"419.0999999642372","","image-keyboard-response","201","259060","0.0-4.0-0.54","","img/grey.png","32","trial","32","true","0.8,0.2","1:go_a","",""
"null","","html-keyboard-response","202","260063","0.0-4.0-1.54","","<img src=""img/grey-r.png"" border=""10"">","null","trial","32","","0.8,0.2","1:go_a","1",""
"null","","html-keyboard-response","203","261070","0.0-4.0-2.54","","<div style=""font-size:60px;"">+</div>","null","","","","","","",""
"null","","image-keyboard-response","204","262571","0.0-4.0-0.55","","img/red.png","null","trial","null","true","0.2,0.8","2:nogo_b","",""
"null","","html-keyboard-response","205","263572","0.0-4.0-1.55","","<img src=""img/red-r.png"">","null","trial","null","","0.2,0.8","2:nogo_b","1",""
"null","","html-keyboard-response","206","264585","0.0-4.0-2.55","","<div style=""font-size:60px;"">+</div>","null","","","","","","",""
"318.80000001192093","","image-keyboard-response","207","264904","0.0-4.0-0.56","","img/grey.png","32","trial","32","true","0.8,0.2","1:go_a","",""
"null","","html-keyboard-response","208","265916","0.0-4.0-1.56","","<img src=""img/grey-r.png"" border=""10"">","null","trial","32","","0.8,0.2","1:go_a","1",""
"null","","html-keyboard-response","209","266922","0.0-4.0-2.56","","<div style=""font-size:60px;"">+</div>","null","","","","","","",""
"279.4000000357628","","image-keyboard-response","210","267202","0.0-4.0-0.57","","img/red.png","32","trial","null","false","0.2,0.8","2:nogo_b","",""
"null","","html-keyboard-response","211","268207","0.0-4.0-1.57","","<img src=""img/red-n.png"" border=""10"">","null","trial","null","","0.2,0.8","2:nogo_b","0",""
"null","","html-keyboard-response","212","269213","0.0-4.0-2.57","","<div style=""font-size:60px;"">+</div>","null","","","","","","",""
"426.5999999642372","","image-keyboard-response","213","269640","0.0-4.0-0.58","","img/grey.png","32","trial","32","true","0.8,0.2","1:go_a","",""
"null","","html-keyboard-response","214","270652","0.0-4.0-1.58","","<img src=""img/grey-n.png"" border=""10"">","null","trial","32","","0.8,0.2","1:go_a","0",""
"null","","html-keyboard-response","215","271656","0.0-4.0-2.58","","<div style=""font-size:60px;"">+</div>","null","","","","","","",""
"322.60000002384186","","image-keyboard-response","216","271979","0.0-4.0-0.59","","img/red.png","32","trial","null","false","0.2,0.8","2:nogo_b","",""
"null","","html-keyboard-response","217","272987","0.0-4.0-1.59","","<img src=""img/red-n.png"" border=""10"">","null","trial","null","","0.2,0.8","2:nogo_b","0",""
"null","","html-keyboard-response","218","273992","0.0-4.0-2.59","","<div style=""font-size:60px;"">+</div>","null","","","","","","",""
"2226.300000011921","","instructions","219","276219","0.0-5.0","[{""page_index"":0,""viewing_time"":2226.199999988079}]","","","","","","","","",""
"582.3000000119209","","image-keyboard-response","220","276802","0.0-6.0-0.0","","img/red.png","32","trial","null","false","0.4,0.6","2:nogo_b","",""
"null","","html-keyboard-response","221","277815","0.0-6.0-1.0","","<img src=""img/red-n.png"" border=""10"">","null","trial","null","","0.4,0.6","2:nogo_b","0",""
"null","","html-keyboard-response","222","278823","0.0-6.0-2.0","","<div style=""font-size:60px;"">+</div>","null","","","","","","",""
"378.80000001192093","","image-keyboard-response","223","279202","0.0-6.0-0.1","","img/grey.png","32","trial","null","false","0.4,0.6","4:nogo_d","",""
"null","","html-keyboard-response","224","280215","0.0-6.0-1.1","","<img src=""img/grey-n.png"" border=""10"">","null","trial","null","","0.4,0.6","4:nogo_d","0",""
"null","","html-keyboard-response","225","281220","0.0-6.0-2.1","","<div style=""font-size:60px;"">+</div>","null","","","","","","",""
"452.69999998807907","","image-keyboard-response","226","281674","0.0-6.0-0.2","","img/blue.png","32","trial","32","true","0.6,0.4","3:go_c","",""
"null","","html-keyboard-response","227","282690","0.0-6.0-1.2","","<img src=""img/blue-r.png"" border=""10"">","null","trial","32","","0.6,0.4","3:go_c","1",""
"null","","html-keyboard-response","228","283696","0.0-6.0-2.2","","<div style=""font-size:60px;"">+</div>","null","","","","","","",""
"675.3999999761581","","image-keyboard-response","229","284372","0.0-6.0-0.3","","img/pink.png","32","trial","32","true","0.6,0.4","1:go_a","",""
"null","","html-keyboard-response","230","285382","0.0-6.0-1.3","","<img src=""img/pink-r.png"" border=""10"">","null","trial","32","","0.6,0.4","1:go_a","1",""
"null","","html-keyboard-response","231","286388","0.0-6.0-2.3","","<div style=""font-size:60px;"">+</div>","null","","","","","","",""
"660.3000000119209","","image-keyboard-response","232","287049","0.0-6.0-0.4","","img/blue.png","32","trial","32","true","0.6,0.4","3:go_c","",""
"null","","html-keyboard-response","233","288057","0.0-6.0-1.4","","<img src=""img/blue-n.png"" border=""10"">","null","trial","32","","0.6,0.4","3:go_c","0",""
"null","","html-keyboard-response","234","289062","0.0-6.0-2.4","","<div style=""font-size:60px;"">+</div>","null","","","","","","",""
"355.5","","image-keyboard-response","235","289418","0.0-6.0-0.5","","img/grey.png","32","trial","null","false","0.4,0.6","4:nogo_d","",""
"null","","html-keyboard-response","236","290424","0.0-6.0-1.5","","<img src=""img/grey-n.png"" border=""10"">","null","trial","null","","0.4,0.6","4:nogo_d","0",""
"null","","html-keyboard-response","237","291430","0.0-6.0-2.5","","<div style=""font-size:60px;"">+</div>","null","","","","","","",""
"428.19999998807907","","image-keyboard-response","238","291859","0.0-6.0-0.6","","img/pink.png","32","trial","32","true","0.6,0.4","1:go_a","",""
"null","","html-keyboard-response","239","292867","0.0-6.0-1.6","","<img src=""img/pink-n.png"" border=""10"">","null","trial","32","","0.6,0.4","1:go_a","0",""
"null","","html-keyboard-response","240","293873","0.0-6.0-2.6","","<div style=""font-size:60px;"">+</div>","null","","","","","","",""
"719.5","","image-keyboard-response","241","294593","0.0-6.0-0.7","","img/red.png","32","trial","null","false","0.4,0.6","2:nogo_b","",""
"null","","html-keyboard-response","242","295604","0.0-6.0-1.7","","<img src=""img/red-n.png"" border=""10"">","null","trial","null","","0.4,0.6","2:nogo_b","0",""
"null","","html-keyboard-response","243","296609","0.0-6.0-2.7","","<div style=""font-size:60px;"">+</div>","null","","","","","","",""
"488.5","","image-keyboard-response","244","297098","0.0-6.0-0.8","","img/grey.png","32","trial","null","false","0.4,0.6","4:nogo_d","",""
"null","","html-keyboard-response","245","298108","0.0-6.0-1.8","","<img src=""img/grey-n.png"" border=""10"">","null","trial","null","","0.4,0.6","4:nogo_d","0",""
"null","","html-keyboard-response","246","299114","0.0-6.0-2.8","","<div style=""font-size:60px;"">+</div>","null","","","","","","",""
"null","","image-keyboard-response","247","300615","0.0-6.0-0.9","","img/red.png","null","trial","null","true","0.4,0.6","2:nogo_b","",""
"null","","html-keyboard-response","248","301621","0.0-6.0-1.9","","<img src=""img/red-n.png"">","null","trial","null","","0.4,0.6","2:nogo_b","0",""
"null","","html-keyboard-response","249","302626","0.0-6.0-2.9","","<div style=""font-size:60px;"">+</div>","null","","","","","","",""
"435.9000000357628","","image-keyboard-response","250","303062","0.0-6.0-0.10","","img/pink.png","32","trial","32","true","0.6,0.4","1:go_a","",""
"null","","html-keyboard-response","251","304066","0.0-6.0-1.10","","<img src=""img/pink-r.png"" border=""10"">","null","trial","32","","0.6,0.4","1:go_a","1",""
"null","","html-keyboard-response","252","305070","0.0-6.0-2.10","","<div style=""font-size:60px;"">+</div>","null","","","","","","",""
"506.9000000357628","","image-keyboard-response","253","305577","0.0-6.0-0.11","","img/blue.png","32","trial","32","true","0.6,0.4","3:go_c","",""
"null","","html-keyboard-response","254","306585","0.0-6.0-1.11","","<img src=""img/blue-r.png"" border=""10"">","null","trial","32","","0.6,0.4","3:go_c","1",""
"null","","html-keyboard-response","255","307591","0.0-6.0-2.11","","<div style=""font-size:60px;"">+</div>","null","","","","","","",""
"null","","image-keyboard-response","256","309092","0.0-6.0-0.12","","img/red.png","null","trial","null","true","0.4,0.6","2:nogo_b","",""
"null","","html-keyboard-response","257","310093","0.0-6.0-1.12","","<img src=""img/red-n.png"">","null","trial","null","","0.4,0.6","2:nogo_b","0",""
"null","","html-keyboard-response","258","311102","0.0-6.0-2.12","","<div style=""font-size:60px;"">+</div>","null","","","","","","",""
"594.5","","image-keyboard-response","259","311697","0.0-6.0-0.13","","img/blue.png","32","trial","32","true","0.6,0.4","3:go_c","",""
"null","","html-keyboard-response","260","312709","0.0-6.0-1.13","","<img src=""img/blue-n.png"" border=""10"">","null","trial","32","","0.6,0.4","3:go_c","0",""
"null","","html-keyboard-response","261","313715","0.0-6.0-2.13","","<div style=""font-size:60px;"">+</div>","null","","","","","","",""
"501","","image-keyboard-response","262","314217","0.0-6.0-0.14","","img/pink.png","32","trial","32","true","0.6,0.4","1:go_a","",""
"null","","html-keyboard-response","263","315231","0.0-6.0-1.14","","<img src=""img/pink-r.png"" border=""10"">","null","trial","32","","0.6,0.4","1:go_a","1",""
"null","","html-keyboard-response","264","316236","0.0-6.0-2.14","","<div style=""font-size:60px;"">+</div>","null","","","","","","",""
"null","","image-keyboard-response","265","317751","0.0-6.0-0.15","","img/grey.png","null","trial","null","true","0.4,0.6","4:nogo_d","",""
"null","","html-keyboard-response","266","318756","0.0-6.0-1.15","","<img src=""img/grey-n.png"">","null","trial","null","","0.4,0.6","4:nogo_d","0",""
"null","","html-keyboard-response","267","319762","0.0-6.0-2.15","","<div style=""font-size:60px;"">+</div>","null","","","","","","",""
"394.2999999523163","","image-keyboard-response","268","320157","0.0-6.0-0.16","","img/pink.png","32","trial","32","true","0.6,0.4","1:go_a","",""
"null","","html-keyboard-response","269","321171","0.0-6.0-1.16","","<img src=""img/pink-n.png"" border=""10"">","null","trial","32","","0.6,0.4","1:go_a","0",""
"null","","html-keyboard-response","270","322176","0.0-6.0-2.16","","<div style=""font-size:60px;"">+</div>","null","","","","","","",""
"451.10000002384186","","image-keyboard-response","271","322628","0.0-6.0-0.17","","img/blue.png","32","trial","32","true","0.6,0.4","3:go_c","",""
"null","","html-keyboard-response","272","323630","0.0-6.0-1.17","","<img src=""img/blue-n.png"" border=""10"">","null","trial","32","","0.6,0.4","3:go_c","0",""
"null","","html-keyboard-response","273","324635","0.0-6.0-2.17","","<div style=""font-size:60px;"">+</div>","null","","","","","","",""
"1117.699999988079","","image-keyboard-response","274","325753","0.0-6.0-0.18","","img/red.png","32","trial","null","false","0.4,0.6","2:nogo_b","",""
"null","","html-keyboard-response","275","326754","0.0-6.0-1.18","","<img src=""img/red-r.png"" border=""10"">","null","trial","null","","0.4,0.6","2:nogo_b","1",""
"null","","html-keyboard-response","276","327760","0.0-6.0-2.18","","<div style=""font-size:60px;"">+</div>","null","","","","","","",""
"380.4000000357628","","image-keyboard-response","277","328141","0.0-6.0-0.19","","img/grey.png","32","trial","null","false","0.4,0.6","4:nogo_d","",""
"null","","html-keyboard-response","278","329152","0.0-6.0-1.19","","<img src=""img/grey-n.png"" border=""10"">","null","trial","null","","0.4,0.6","4:nogo_d","0",""
"null","","html-keyboard-response","279","330157","0.0-6.0-2.19","","<div style=""font-size:60px;"">+</div>","null","","","","","","",""
"399.19999998807907","","image-keyboard-response","280","330557","0.0-6.0-0.20","","img/pink.png","32","trial","32","true","0.6,0.4","1:go_a","",""
"null","","html-keyboard-response","281","331565","0.0-6.0-1.20","","<img src=""img/pink-r.png"" border=""10"">","null","trial","32","","0.6,0.4","1:go_a","1",""
"null","","html-keyboard-response","282","332570","0.0-6.0-2.20","","<div style=""font-size:60px;"">+</div>","null","","","","","","",""
"444.5","","image-keyboard-response","283","333015","0.0-6.0-0.21","","img/blue.png","32","trial","32","true","0.6,0.4","3:go_c","",""
"null","","html-keyboard-response","284","334023","0.0-6.0-1.21","","<img src=""img/blue-r.png"" border=""10"">","null","trial","32","","0.6,0.4","3:go_c","1",""
"null","","html-keyboard-response","285","335029","0.0-6.0-2.21","","<div style=""font-size:60px;"">+</div>","null","","","","","","",""
"729.3000000119209","","image-keyboard-response","286","335759","0.0-6.0-0.22","","img/red.png","32","trial","null","false","0.4,0.6","2:nogo_b","",""
"null","","html-keyboard-response","287","336761","0.0-6.0-1.22","","<img src=""img/red-n.png"" border=""10"">","null","trial","null","","0.4,0.6","2:nogo_b","0",""
"null","","html-keyboard-response","288","337767","0.0-6.0-2.22","","<div style=""font-size:60px;"">+</div>","null","","","","","","",""
"null","","image-keyboard-response","289","339284","0.0-6.0-0.23","","img/grey.png","null","trial","null","true","0.4,0.6","4:nogo_d","",""
"null","","html-keyboard-response","290","340289","0.0-6.0-1.23","","<img src=""img/grey-n.png"">","null","trial","null","","0.4,0.6","4:nogo_d","0",""
"null","","html-keyboard-response","291","341295","0.0-6.0-2.23","","<div style=""font-size:60px;"">+</div>","null","","","","","","",""
"974.9000000357628","","image-keyboard-response","292","342270","0.0-6.0-0.24","","img/red.png","32","trial","null","false","0.4,0.6","2:nogo_b","",""
"null","","html-keyboard-response","293","343273","0.0-6.0-1.24","","<img src=""img/red-n.png"" border=""10"">","null","trial","null","","0.4,0.6","2:nogo_b","0",""
"null","","html-keyboard-response","294","344279","0.0-6.0-2.24","","<div style=""font-size:60px;"">+</div>","null","","","","","","",""
"419.30000001192093","","image-keyboard-response","295","344699","0.0-6.0-0.25","","img/pink.png","32","trial","32","true","0.6,0.4","1:go_a","",""
"null","","html-keyboard-response","296","345703","0.0-6.0-1.25","","<img src=""img/pink-r.png"" border=""10"">","null","trial","32","","0.6,0.4","1:go_a","1",""
"null","","html-keyboard-response","297","346710","0.0-6.0-2.25","","<div style=""font-size:60px;"">+</div>","null","","","","","","",""
"347.69999998807907","","image-keyboard-response","298","347058","0.0-6.0-0.26","","img/blue.png","32","trial","32","true","0.6,0.4","3:go_c","",""
"null","","html-keyboard-response","299","348071","0.0-6.0-1.26","","<img src=""img/blue-n.png"" border=""10"">","null","trial","32","","0.6,0.4","3:go_c","0",""
"null","","html-keyboard-response","300","349075","0.0-6.0-2.26","","<div style=""font-size:60px;"">+</div>","null","","","","","","",""
"659","","image-keyboard-response","301","349735","0.0-6.0-0.27","","img/grey.png","32","trial","null","false","0.4,0.6","4:nogo_d","",""
"null","","html-keyboard-response","302","350744","0.0-6.0-1.27","","<img src=""img/grey-n.png"" border=""10"">","null","trial","null","","0.4,0.6","4:nogo_d","0",""
"null","","html-keyboard-response","303","351749","0.0-6.0-2.27","","<div style=""font-size:60px;"">+</div>","null","","","","","","",""
"484.19999998807907","","image-keyboard-response","304","352234","0.0-6.0-0.28","","img/pink.png","32","trial","32","true","0.6,0.4","1:go_a","",""
"null","","html-keyboard-response","305","353251","0.0-6.0-1.28","","<img src=""img/pink-r.png"" border=""10"">","null","trial","32","","0.6,0.4","1:go_a","1",""
"null","","html-keyboard-response","306","354257","0.0-6.0-2.28","","<div style=""font-size:60px;"">+</div>","null","","","","","","",""
"437.19999998807907","","image-keyboard-response","307","354695","0.0-6.0-0.29","","img/blue.png","32","trial","32","true","0.6,0.4","3:go_c","",""
"null","","html-keyboard-response","308","355710","0.0-6.0-1.29","","<img src=""img/blue-n.png"" border=""10"">","null","trial","32","","0.6,0.4","3:go_c","0",""
"null","","html-keyboard-response","309","356717","0.0-6.0-2.29","","<div style=""font-size:60px;"">+</div>","null","","","","","","",""
"null","","image-keyboard-response","310","358231","0.0-6.0-0.30","","img/grey.png","null","trial","null","true","0.4,0.6","4:nogo_d","",""
"null","","html-keyboard-response","311","359238","0.0-6.0-1.30","","<img src=""img/grey-n.png"">","null","trial","null","","0.4,0.6","4:nogo_d","0",""
"null","","html-keyboard-response","312","360243","0.0-6.0-2.30","","<div style=""font-size:60px;"">+</div>","null","","","","","","",""
"null","","image-keyboard-response","313","361759","0.0-6.0-0.31","","img/red.png","null","trial","null","true","0.4,0.6","2:nogo_b","",""
"null","","html-keyboard-response","314","362764","0.0-6.0-1.31","","<img src=""img/red-r.png"">","null","trial","null","","0.4,0.6","2:nogo_b","1",""
"null","","html-keyboard-response","315","363772","0.0-6.0-2.31","","<div style=""font-size:60px;"">+</div>","null","","","","","","",""
"692.8999999761581","","image-keyboard-response","316","364465","0.0-6.0-0.32","","img/red.png","32","trial","null","false","0.4,0.6","2:nogo_b","",""
"null","","html-keyboard-response","317","365475","0.0-6.0-1.32","","<img src=""img/red-n.png"" border=""10"">","null","trial","null","","0.4,0.6","2:nogo_b","0",""
"null","","html-keyboard-response","318","366482","0.0-6.0-2.32","","<div style=""font-size:60px;"">+</div>","null","","","","","","",""
"505.39999997615814","","image-keyboard-response","319","366988","0.0-6.0-0.33","","img/blue.png","32","trial","32","true","0.6,0.4","3:go_c","",""
"null","","html-keyboard-response","320","367999","0.0-6.0-1.33","","<img src=""img/blue-n.png"" border=""10"">","null","trial","32","","0.6,0.4","3:go_c","0",""
"null","","html-keyboard-response","321","369007","0.0-6.0-2.33","","<div style=""font-size:60px;"">+</div>","null","","","","","","",""
"419.80000001192093","","image-keyboard-response","322","369427","0.0-6.0-0.34","","img/pink.png","32","trial","32","true","0.6,0.4","1:go_a","",""
"null","","html-keyboard-response","323","370430","0.0-6.0-1.34","","<img src=""img/pink-n.png"" border=""10"">","null","trial","32","","0.6,0.4","1:go_a","0",""
"null","","html-keyboard-response","324","371436","0.0-6.0-2.34","","<div style=""font-size:60px;"">+</div>","null","","","","","","",""
"721.6999999880791","","image-keyboard-response","325","372158","0.0-6.0-0.35","","img/grey.png","32","trial","null","false","0.4,0.6","4:nogo_d","",""
"null","","html-keyboard-response","326","373167","0.0-6.0-1.35","","<img src=""img/grey-n.png"" border=""10"">","null","trial","null","","0.4,0.6","4:nogo_d","0",""
"null","","html-keyboard-response","327","374173","0.0-6.0-2.35","","<div style=""font-size:60px;"">+</div>","null","","","","","","",""
"411.60000002384186","","image-keyboard-response","328","374585","0.0-6.0-0.36","","img/pink.png","32","trial","32","true","0.6,0.4","1:go_a","",""
"null","","html-keyboard-response","329","375598","0.0-6.0-1.36","","<img src=""img/pink-r.png"" border=""10"">","null","trial","32","","0.6,0.4","1:go_a","1",""
"null","","html-keyboard-response","330","376603","0.0-6.0-2.36","","<div style=""font-size:60px;"">+</div>","null","","","","","","",""
"481","","image-keyboard-response","331","377085","0.0-6.0-0.37","","img/blue.png","32","trial","32","true","0.6,0.4","3:go_c","",""
"null","","html-keyboard-response","332","378090","0.0-6.0-1.37","","<img src=""img/blue-n.png"" border=""10"">","null","trial","32","","0.6,0.4","3:go_c","0",""
"null","","html-keyboard-response","333","379094","0.0-6.0-2.37","","<div style=""font-size:60px;"">+</div>","null","","","","","","",""
"998.1999999880791","","image-keyboard-response","334","380093","0.0-6.0-0.38","","img/red.png","32","trial","null","false","0.4,0.6","2:nogo_b","",""
"null","","html-keyboard-response","335","381105","0.0-6.0-1.38","","<img src=""img/red-r.png"" border=""10"">","null","trial","null","","0.4,0.6","2:nogo_b","1",""
"null","","html-keyboard-response","336","382111","0.0-6.0-2.38","","<div style=""font-size:60px;"">+</div>","null","","","","","","",""
"null","","image-keyboard-response","337","383612","0.0-6.0-0.39","","img/grey.png","null","trial","null","true","0.4,0.6","4:nogo_d","",""
"null","","html-keyboard-response","338","384617","0.0-6.0-1.39","","<img src=""img/grey-r.png"">","null","trial","null","","0.4,0.6","4:nogo_d","1",""
"null","","html-keyboard-response","339","385623","0.0-6.0-2.39","","<div style=""font-size:60px;"">+</div>","null","","","","","","",""
"529.1000000238419","","image-keyboard-response","340","386153","0.0-6.0-0.40","","img/pink.png","32","trial","32","true","0.6,0.4","1:go_a","",""
"null","","html-keyboard-response","341","387155","0.0-6.0-1.40","","<img src=""img/pink-r.png"" border=""10"">","null","trial","32","","0.6,0.4","1:go_a","1",""
"null","","html-keyboard-response","342","388161","0.0-6.0-2.40","","<div style=""font-size:60px;"">+</div>","null","","","","","","",""
"842.6999999880791","","image-keyboard-response","343","389004","0.0-6.0-0.41","","img/grey.png","32","trial","null","false","0.4,0.6","4:nogo_d","",""
"null","","html-keyboard-response","344","390018","0.0-6.0-1.41","","<img src=""img/grey-n.png"" border=""10"">","null","trial","null","","0.4,0.6","4:nogo_d","0",""
"null","","html-keyboard-response","345","391022","0.0-6.0-2.41","","<div style=""font-size:60px;"">+</div>","null","","","","","","",""
"758.3000000119209","","image-keyboard-response","346","391781","0.0-6.0-0.42","","img/blue.png","32","trial","32","true","0.6,0.4","3:go_c","",""
"null","","html-keyboard-response","347","392787","0.0-6.0-1.42","","<img src=""img/blue-r.png"" border=""10"">","null","trial","32","","0.6,0.4","3:go_c","1",""
"null","","html-keyboard-response","348","393794","0.0-6.0-2.42","","<div style=""font-size:60px;"">+</div>","null","","","","","","",""
"1011.6999999880791","","image-keyboard-response","349","394806","0.0-6.0-0.43","","img/red.png","32","trial","null","false","0.4,0.6","2:nogo_b","",""
"null","","html-keyboard-response","350","395819","0.0-6.0-1.43","","<img src=""img/red-n.png"" border=""10"">","null","trial","null","","0.4,0.6","2:nogo_b","0",""
"null","","html-keyboard-response","351","396822","0.0-6.0-2.43","","<div style=""font-size:60px;"">+</div>","null","","","","","","",""
"1480.199999988079","","image-keyboard-response","352","398303","0.0-6.0-0.44","","img/red.png","32","trial","null","false","0.4,0.6","2:nogo_b","",""
"null","","html-keyboard-response","353","399313","0.0-6.0-1.44","","<img src=""img/red-n.png"" border=""10"">","null","trial","null","","0.4,0.6","2:nogo_b","0",""
"null","","html-keyboard-response","354","400319","0.0-6.0-2.44","","<div style=""font-size:60px;"">+</div>","null","","","","","","",""
"510.39999997615814","","image-keyboard-response","355","400830","0.0-6.0-0.45","","img/pink.png","32","trial","32","true","0.6,0.4","1:go_a","",""
"null","","html-keyboard-response","356","401835","0.0-6.0-1.45","","<img src=""img/pink-r.png"" border=""10"">","null","trial","32","","0.6,0.4","1:go_a","1",""
"null","","html-keyboard-response","357","402839","0.0-6.0-2.45","","<div style=""font-size:60px;"">+</div>","null","","","","","","",""
"null","","image-keyboard-response","358","404340","0.0-6.0-0.46","","img/blue.png","null","trial","32","false","0.6,0.4","3:go_c","",""
"null","","html-keyboard-response","359","405346","0.0-6.0-1.46","","<img src=""img/blue-r.png"">","null","trial","32","","0.6,0.4","3:go_c","1",""
"null","","html-keyboard-response","360","406351","0.0-6.0-2.46","","<div style=""font-size:60px;"">+</div>","null","","","","","","",""
"null","","image-keyboard-response","361","407867","0.0-6.0-0.47","","img/grey.png","null","trial","null","true","0.4,0.6","4:nogo_d","",""
"null","","html-keyboard-response","362","408874","0.0-6.0-1.47","","<img src=""img/grey-r.png"">","null","trial","null","","0.4,0.6","4:nogo_d","1",""
"null","","html-keyboard-response","363","409879","0.0-6.0-2.47","","<div style=""font-size:60px;"">+</div>","null","","","","","","",""
"572.1999999880791","","image-keyboard-response","364","410452","0.0-6.0-0.48","","img/pink.png","32","trial","32","true","0.6,0.4","1:go_a","",""
"null","","html-keyboard-response","365","411458","0.0-6.0-1.48","","<img src=""img/pink-r.png"" border=""10"">","null","trial","32","","0.6,0.4","1:go_a","1",""
"null","","html-keyboard-response","366","412465","0.0-6.0-2.48","","<div style=""font-size:60px;"">+</div>","null","","","","","","",""
"529.8999999761581","","image-keyboard-response","367","412995","0.0-6.0-0.49","","img/blue.png","32","trial","32","true","0.6,0.4","3:go_c","",""
"null","","html-keyboard-response","368","414011","0.0-6.0-1.49","","<img src=""img/blue-r.png"" border=""10"">","null","trial","32","","0.6,0.4","3:go_c","1",""
"null","","html-keyboard-response","369","415016","0.0-6.0-2.49","","<div style=""font-size:60px;"">+</div>","null","","","","","","",""
"null","","image-keyboard-response","370","416518","0.0-6.0-0.50","","img/red.png","null","trial","null","true","0.4,0.6","2:nogo_b","",""
"null","","html-keyboard-response","371","417524","0.0-6.0-1.50","","<img src=""img/red-r.png"">","null","trial","null","","0.4,0.6","2:nogo_b","1",""
"null","","html-keyboard-response","372","418525","0.0-6.0-2.50","","<div style=""font-size:60px;"">+</div>","null","","","","","","",""
"null","","image-keyboard-response","373","420031","0.0-6.0-0.51","","img/grey.png","null","trial","null","true","0.4,0.6","4:nogo_d","",""
"null","","html-keyboard-response","374","421038","0.0-6.0-1.51","","<img src=""img/grey-r.png"">","null","trial","null","","0.4,0.6","4:nogo_d","1",""
"null","","html-keyboard-response","375","422043","0.0-6.0-2.51","","<div style=""font-size:60px;"">+</div>","null","","","","","","",""
"434.30000001192093","","image-keyboard-response","376","422478","0.0-6.0-0.52","","img/pink.png","32","trial","32","true","0.6,0.4","1:go_a","",""
"null","","html-keyboard-response","377","423483","0.0-6.0-1.52","","<img src=""img/pink-r.png"" border=""10"">","null","trial","32","","0.6,0.4","1:go_a","1",""
"null","","html-keyboard-response","378","424488","0.0-6.0-2.52","","<div style=""font-size:60px;"">+</div>","null","","","","","","",""
"384.0999999642372","","image-keyboard-response","379","424873","0.0-6.0-0.53","","img/blue.png","32","trial","32","true","0.6,0.4","3:go_c","",""
"null","","html-keyboard-response","380","425882","0.0-6.0-1.53","","<img src=""img/blue-r.png"" border=""10"">","null","trial","32","","0.6,0.4","3:go_c","1",""
"null","","html-keyboard-response","381","426888","0.0-6.0-2.53","","<div style=""font-size:60px;"">+</div>","null","","","","","","",""
"510.39999997615814","","image-keyboard-response","382","427399","0.0-6.0-0.54","","img/grey.png","32","trial","null","false","0.4,0.6","4:nogo_d","",""
"null","","html-keyboard-response","383","428402","0.0-6.0-1.54","","<img src=""img/grey-r.png"" border=""10"">","null","trial","null","","0.4,0.6","4:nogo_d","1",""
"null","","html-keyboard-response","384","429408","0.0-6.0-2.54","","<div style=""font-size:60px;"">+</div>","null","","","","","","",""
"541.6999999880791","","image-keyboard-response","385","429950","0.0-6.0-0.55","","img/red.png","32","trial","null","false","0.4,0.6","2:nogo_b","",""
"null","","html-keyboard-response","386","430956","0.0-6.0-1.55","","<img src=""img/red-n.png"" border=""10"">","null","trial","null","","0.4,0.6","2:nogo_b","0",""
"null","","html-keyboard-response","387","431961","0.0-6.0-2.55","","<div style=""font-size:60px;"">+</div>","null","","","","","","",""
"488.80000001192093","","image-keyboard-response","388","432450","0.0-6.0-0.56","","img/pink.png","32","trial","32","true","0.6,0.4","1:go_a","",""
"null","","html-keyboard-response","389","433462","0.0-6.0-1.56","","<img src=""img/pink-n.png"" border=""10"">","null","trial","32","","0.6,0.4","1:go_a","0",""
"null","","html-keyboard-response","390","434467","0.0-6.0-2.56","","<div style=""font-size:60px;"">+</div>","null","","","","","","",""
"606.1000000238419","","image-keyboard-response","391","435073","0.0-6.0-0.57","","img/grey.png","32","trial","null","false","0.4,0.6","4:nogo_d","",""
"null","","html-keyboard-response","392","436077","0.0-6.0-1.57","","<img src=""img/grey-n.png"" border=""10"">","null","trial","null","","0.4,0.6","4:nogo_d","0",""
"null","","html-keyboard-response","393","437083","0.0-6.0-2.57","","<div style=""font-size:60px;"">+</div>","null","","","","","","",""
"350.0999999642372","","image-keyboard-response","394","437434","0.0-6.0-0.58","","img/red.png","32","trial","null","false","0.4,0.6","2:nogo_b","",""
"null","","html-keyboard-response","395","438445","0.0-6.0-1.58","","<img src=""img/red-r.png"" border=""10"">","null","trial","null","","0.4,0.6","2:nogo_b","1",""
"null","","html-keyboard-response","396","439451","0.0-6.0-2.58","","<div style=""font-size:60px;"">+</div>","null","","","","","","",""
"1074.5","","image-keyboard-response","397","440526","0.0-6.0-0.59","","img/blue.png","32","trial","32","true","0.6,0.4","3:go_c","",""
"null","","html-keyboard-response","398","441541","0.0-6.0-1.59","","<img src=""img/blue-r.png"" border=""10"">","null","trial","32","","0.6,0.4","3:go_c","1",""
"null","","html-keyboard-response","399","442548","0.0-6.0-2.59","","<div style=""font-size:60px;"">+</div>","null","","","","","","",""
"996.5","","image-keyboard-response","400","443545","0.0-6.0-0.60","","img/grey.png","32","trial","null","false","0.4,0.6","4:nogo_d","",""
"null","","html-keyboard-response","401","444558","0.0-6.0-1.60","","<img src=""img/grey-r.png"" border=""10"">","null","trial","null","","0.4,0.6","4:nogo_d","1",""
"null","","html-keyboard-response","402","445563","0.0-6.0-2.60","","<div style=""font-size:60px;"">+</div>","null","","","","","","",""
"null","","image-keyboard-response","403","447065","0.0-6.0-0.61","","img/red.png","null","trial","null","true","0.4,0.6","2:nogo_b","",""
"null","","html-keyboard-response","404","448071","0.0-6.0-1.61","","<img src=""img/red-n.png"">","null","trial","null","","0.4,0.6","2:nogo_b","0",""
"null","","html-keyboard-response","405","449072","0.0-6.0-2.61","","<div style=""font-size:60px;"">+</div>","null","","","","","","",""
"564.3000000119209","","image-keyboard-response","406","449636","0.0-6.0-0.62","","img/blue.png","32","trial","32","true","0.6,0.4","3:go_c","",""
"null","","html-keyboard-response","407","450640","0.0-6.0-1.62","","<img src=""img/blue-r.png"" border=""10"">","null","trial","32","","0.6,0.4","3:go_c","1",""
"null","","html-keyboard-response","408","451647","0.0-6.0-2.62","","<div style=""font-size:60px;"">+</div>","null","","","","","","",""
"522.6999999880791","","image-keyboard-response","409","452170","0.0-6.0-0.63","","img/pink.png","32","trial","32","true","0.6,0.4","1:go_a","",""
"null","","html-keyboard-response","410","453179","0.0-6.0-1.63","","<img src=""img/pink-r.png"" border=""10"">","null","trial","32","","0.6,0.4","1:go_a","1",""
"null","","html-keyboard-response","411","454183","0.0-6.0-2.63","","<div style=""font-size:60px;"">+</div>","null","","","","","","",""
"null","","image-keyboard-response","412","455697","0.0-6.0-0.64","","img/red.png","null","trial","null","true","0.4,0.6","2:nogo_b","",""
"null","","html-keyboard-response","413","456705","0.0-6.0-1.64","","<img src=""img/red-n.png"">","null","trial","null","","0.4,0.6","2:nogo_b","0",""
"null","","html-keyboard-response","414","457711","0.0-6.0-2.64","","<div style=""font-size:60px;"">+</div>","null","","","","","","",""
"846.6999999880791","","image-keyboard-response","415","458558","0.0-6.0-0.65","","img/grey.png","32","trial","null","false","0.4,0.6","4:nogo_d","",""
"null","","html-keyboard-response","416","459567","0.0-6.0-1.65","","<img src=""img/grey-n.png"" border=""10"">","null","trial","null","","0.4,0.6","4:nogo_d","0",""
"null","","html-keyboard-response","417","460572","0.0-6.0-2.65","","<div style=""font-size:60px;"">+</div>","null","","","","","","",""
"596.1999999880791","","image-keyboard-response","418","461169","0.0-6.0-0.66","","img/pink.png","32","trial","32","true","0.6,0.4","1:go_a","",""
"null","","html-keyboard-response","419","462182","0.0-6.0-1.66","","<img src=""img/pink-n.png"" border=""10"">","null","trial","32","","0.6,0.4","1:go_a","0",""
"null","","html-keyboard-response","420","463188","0.0-6.0-2.66","","<div style=""font-size:60px;"">+</div>","null","","","","","","",""
"304.19999998807907","","image-keyboard-response","421","463493","0.0-6.0-0.67","","img/blue.png","32","trial","32","true","0.6,0.4","3:go_c","",""
"null","","html-keyboard-response","422","464504","0.0-6.0-1.67","","<img src=""img/blue-n.png"" border=""10"">","null","trial","32","","0.6,0.4","3:go_c","0",""
"null","","html-keyboard-response","423","465508","0.0-6.0-2.67","","<div style=""font-size:60px;"">+</div>","null","","","","","","",""
"859.3000000119209","","image-keyboard-response","424","466368","0.0-6.0-0.68","","img/blue.png","32","trial","32","true","0.6,0.4","3:go_c","",""
"null","","html-keyboard-response","425","467379","0.0-6.0-1.68","","<img src=""img/blue-r.png"" border=""10"">","null","trial","32","","0.6,0.4","3:go_c","1",""
"null","","html-keyboard-response","426","468384","0.0-6.0-2.68","","<div style=""font-size:60px;"">+</div>","null","","","","","","",""
"506.4000000357628","","image-keyboard-response","427","468891","0.0-6.0-0.69","","img/pink.png","32","trial","32","true","0.6,0.4","1:go_a","",""
"null","","html-keyboard-response","428","469901","0.0-6.0-1.69","","<img src=""img/pink-n.png"" border=""10"">","null","trial","32","","0.6,0.4","1:go_a","0",""
"null","","html-keyboard-response","429","470907","0.0-6.0-2.69","","<div style=""font-size:60px;"">+</div>","null","","","","","","",""
"null","","image-keyboard-response","430","472423","0.0-6.0-0.70","","img/red.png","null","trial","null","true","0.4,0.6","2:nogo_b","",""
"null","","html-keyboard-response","431","473429","0.0-6.0-1.70","","<img src=""img/red-r.png"">","null","trial","null","","0.4,0.6","2:nogo_b","1",""
"null","","html-keyboard-response","432","474436","0.0-6.0-2.70","","<div style=""font-size:60px;"">+</div>","null","","","","","","",""
"537.8999999761581","","image-keyboard-response","433","474974","0.0-6.0-0.71","","img/grey.png","32","trial","null","false","0.4,0.6","4:nogo_d","",""
"null","","html-keyboard-response","434","475985","0.0-6.0-1.71","","<img src=""img/grey-n.png"" border=""10"">","null","trial","null","","0.4,0.6","4:nogo_d","0",""
"null","","html-keyboard-response","435","476990","0.0-6.0-2.71","","<div style=""font-size:60px;"">+</div>","null","","","","","","",""
"502.30000001192093","","image-keyboard-response","436","477493","0.0-6.0-0.72","","img/grey.png","32","trial","null","false","0.4,0.6","4:nogo_d","",""
"null","","html-keyboard-response","437","478506","0.0-6.0-1.72","","<img src=""img/grey-r.png"" border=""10"">","null","trial","null","","0.4,0.6","4:nogo_d","1",""
"null","","html-keyboard-response","438","479512","0.0-6.0-2.72","","<div style=""font-size:60px;"">+</div>","null","","","","","","",""
"571.8999999761581","","image-keyboard-response","439","480084","0.0-6.0-0.73","","img/blue.png","32","trial","32","true","0.6,0.4","3:go_c","",""
"null","","html-keyboard-response","440","481088","0.0-6.0-1.73","","<img src=""img/blue-n.png"" border=""10"">","null","trial","32","","0.6,0.4","3:go_c","0",""
"null","","html-keyboard-response","441","482092","0.0-6.0-2.73","","<div style=""font-size:60px;"">+</div>","null","","","","","","",""
"null","","image-keyboard-response","442","483608","0.0-6.0-0.74","","img/pink.png","null","trial","32","false","0.6,0.4","1:go_a","",""
"null","","html-keyboard-response","443","484609","0.0-6.0-1.74","","<img src=""img/pink-n.png"">","null","trial","32","","0.6,0.4","1:go_a","0",""
"null","","html-keyboard-response","444","485620","0.0-6.0-2.74","","<div style=""font-size:60px;"">+</div>","null","","","","","","",""
"343.5","","image-keyboard-response","445","485964","0.0-6.0-0.75","","img/red.png","32","trial","null","false","0.4,0.6","2:nogo_b","",""
"null","","html-keyboard-response","446","486966","0.0-6.0-1.75","","<img src=""img/red-r.png"" border=""10"">","null","trial","null","","0.4,0.6","2:nogo_b","1",""
"null","","html-keyboard-response","447","487972","0.0-6.0-2.75","","<div style=""font-size:60px;"">+</div>","null","","","","","","",""
"null","","image-keyboard-response","448","489474","0.0-6.0-0.76","","img/red.png","null","trial","null","true","0.4,0.6","2:nogo_b","",""
"null","","html-keyboard-response","449","490482","0.0-6.0-1.76","","<img src=""img/red-r.png"">","null","trial","null","","0.4,0.6","2:nogo_b","1",""
"null","","html-keyboard-response","450","491488","0.0-6.0-2.76","","<div style=""font-size:60px;"">+</div>","null","","","","","","",""
"409.5","","image-keyboard-response","451","491898","0.0-6.0-0.77","","img/grey.png","32","trial","null","false","0.4,0.6","4:nogo_d","",""
"null","","html-keyboard-response","452","492912","0.0-6.0-1.77","","<img src=""img/grey-n.png"" border=""10"">","null","trial","null","","0.4,0.6","4:nogo_d","0",""
"null","","html-keyboard-response","453","493917","0.0-6.0-2.77","","<div style=""font-size:60px;"">+</div>","null","","","","","","",""
"315.60000002384186","","image-keyboard-response","454","494233","0.0-6.0-0.78","","img/blue.png","32","trial","32","true","0.6,0.4","3:go_c","",""
"null","","html-keyboard-response","455","495249","0.0-6.0-1.78","","<img src=""img/blue-n.png"" border=""10"">","null","trial","32","","0.6,0.4","3:go_c","0",""
"null","","html-keyboard-response","456","496255","0.0-6.0-2.78","","<div style=""font-size:60px;"">+</div>","null","","","","","","",""
"281.10000002384186","","image-keyboard-response","457","496536","0.0-6.0-0.79","","img/pink.png","32","trial","32","true","0.6,0.4","1:go_a","",""
"null","","html-keyboard-response","458","497538","0.0-6.0-1.79","","<img src=""img/pink-r.png"" border=""10"">","null","trial","32","","0.6,0.4","1:go_a","1",""
"null","","html-keyboard-response","459","498544","0.0-6.0-2.79","","<div style=""font-size:60px;"">+</div>","null","","","","","","",""
"925.6999999880791","","image-keyboard-response","460","499470","0.0-6.0-0.80","","img/pink.png","32","trial","32","true","0.6,0.4","1:go_a","",""
"null","","html-keyboard-response","461","500478","0.0-6.0-1.80","","<img src=""img/pink-r.png"" border=""10"">","null","trial","32","","0.6,0.4","1:go_a","1",""
"null","","html-keyboard-response","462","501485","0.0-6.0-2.80","","<div style=""font-size:60px;"">+</div>","null","","","","","","",""
"383.9000000357628","","image-keyboard-response","463","501869","0.0-6.0-0.81","","img/red.png","32","trial","null","false","0.4,0.6","2:nogo_b","",""
"null","","html-keyboard-response","464","502878","0.0-6.0-1.81","","<img src=""img/red-n.png"" border=""10"">","null","trial","null","","0.4,0.6","2:nogo_b","0",""
"null","","html-keyboard-response","465","503885","0.0-6.0-2.81","","<div style=""font-size:60px;"">+</div>","null","","","","","","",""
"514.6999999880791","","image-keyboard-response","466","504400","0.0-6.0-0.82","","img/grey.png","32","trial","null","false","0.4,0.6","4:nogo_d","",""
"null","","html-keyboard-response","467","505403","0.0-6.0-1.82","","<img src=""img/grey-n.png"" border=""10"">","null","trial","null","","0.4,0.6","4:nogo_d","0",""
"null","","html-keyboard-response","468","506409","0.0-6.0-2.82","","<div style=""font-size:60px;"">+</div>","null","","","","","","",""
"293.80000001192093","","image-keyboard-response","469","506703","0.0-6.0-0.83","","img/blue.png","32","trial","32","true","0.6,0.4","3:go_c","",""
"null","","html-keyboard-response","470","507709","0.0-6.0-1.83","","<img src=""img/blue-r.png"" border=""10"">","null","trial","32","","0.6,0.4","3:go_c","1",""
"null","","html-keyboard-response","471","508711","0.0-6.0-2.83","","<div style=""font-size:60px;"">+</div>","null","","","","","","",""
"640.8000000119209","","image-keyboard-response","472","509352","0.0-6.0-0.84","","img/blue.png","32","trial","32","true","0.6,0.4","3:go_c","",""
"null","","html-keyboard-response","473","510358","0.0-6.0-1.84","","<img src=""img/blue-n.png"" border=""10"">","null","trial","32","","0.6,0.4","3:go_c","0",""
"null","","html-keyboard-response","474","511363","0.0-6.0-2.84","","<div style=""font-size:60px;"">+</div>","null","","","","","","",""
"null","","image-keyboard-response","475","512878","0.0-6.0-0.85","","img/grey.png","null","trial","null","true","0.4,0.6","4:nogo_d","",""
"null","","html-keyboard-response","476","513884","0.0-6.0-1.85","","<img src=""img/grey-r.png"">","null","trial","null","","0.4,0.6","4:nogo_d","1",""
"null","","html-keyboard-response","477","514889","0.0-6.0-2.85","","<div style=""font-size:60px;"">+</div>","null","","","","","","",""
"440.0999999642372","","image-keyboard-response","478","515330","0.0-6.0-0.86","","img/red.png","32","trial","null","false","0.4,0.6","2:nogo_b","",""
"null","","html-keyboard-response","479","516345","0.0-6.0-1.86","","<img src=""img/red-r.png"" border=""10"">","null","trial","null","","0.4,0.6","2:nogo_b","1",""
"null","","html-keyboard-response","480","517351","0.0-6.0-2.86","","<div style=""font-size:60px;"">+</div>","null","","","","","","",""
"428.10000002384186","","image-keyboard-response","481","517779","0.0-6.0-0.87","","img/pink.png","32","trial","32","true","0.6,0.4","1:go_a","",""
"null","","html-keyboard-response","482","518788","0.0-6.0-1.87","","<img src=""img/pink-r.png"" border=""10"">","null","trial","32","","0.6,0.4","1:go_a","1",""
"null","","html-keyboard-response","483","519795","0.0-6.0-2.87","","<div style=""font-size:60px;"">+</div>","null","","","","","","",""
"null","","image-keyboard-response","484","521312","0.0-6.0-0.88","","img/grey.png","null","trial","null","true","0.4,0.6","4:nogo_d","",""
"null","","html-keyboard-response","485","522317","0.0-6.0-1.88","","<img src=""img/grey-n.png"">","null","trial","null","","0.4,0.6","4:nogo_d","0",""
"null","","html-keyboard-response","486","523321","0.0-6.0-2.88","","<div style=""font-size:60px;"">+</div>","null","","","","","","",""
"1199.199999988079","","image-keyboard-response","487","524521","0.0-6.0-0.89","","img/red.png","32","trial","null","false","0.4,0.6","2:nogo_b","",""
"null","","html-keyboard-response","488","525533","0.0-6.0-1.89","","<img src=""img/red-n.png"" border=""10"">","null","trial","null","","0.4,0.6","2:nogo_b","0",""
"null","","html-keyboard-response","489","526539","0.0-6.0-2.89","","<div style=""font-size:60px;"">+</div>","null","","","","","","",""
"602.4000000357628","","image-keyboard-response","490","527142","0.0-6.0-0.90","","img/blue.png","32","trial","32","true","0.6,0.4","3:go_c","",""
"null","","html-keyboard-response","491","528147","0.0-6.0-1.90","","<img src=""img/blue-r.png"" border=""10"">","null","trial","32","","0.6,0.4","3:go_c","1",""
"null","","html-keyboard-response","492","529155","0.0-6.0-2.90","","<div style=""font-size:60px;"">+</div>","null","","","","","","",""
"676.5","","image-keyboard-response","493","529832","0.0-6.0-0.91","","img/pink.png","32","trial","32","true","0.6,0.4","1:go_a","",""
"null","","html-keyboard-response","494","530842","0.0-6.0-1.91","","<img src=""img/pink-n.png"" border=""10"">","null","trial","32","","0.6,0.4","1:go_a","0",""
"null","","html-keyboard-response","495","531849","0.0-6.0-2.91","","<div style=""font-size:60px;"">+</div>","null","","","","","","",""
"952.5","","image-keyboard-response","496","532802","0.0-6.0-0.92","","img/pink.png","32","trial","32","true","0.6,0.4","1:go_a","",""
"null","","html-keyboard-response","497","533814","0.0-6.0-1.92","","<img src=""img/pink-r.png"" border=""10"">","null","trial","32","","0.6,0.4","1:go_a","1",""
"null","","html-keyboard-response","498","534821","0.0-6.0-2.92","","<div style=""font-size:60px;"">+</div>","null","","","","","","",""
"null","","image-keyboard-response","499","536322","0.0-6.0-0.93","","img/grey.png","null","trial","null","true","0.4,0.6","4:nogo_d","",""
"null","","html-keyboard-response","500","537329","0.0-6.0-1.93","","<img src=""img/grey-r.png"">","null","trial","null","","0.4,0.6","4:nogo_d","1",""
"null","","html-keyboard-response","501","538335","0.0-6.0-2.93","","<div style=""font-size:60px;"">+</div>","null","","","","","","",""
"1214.5","","image-keyboard-response","502","539550","0.0-6.0-0.94","","img/red.png","32","trial","null","false","0.4,0.6","2:nogo_b","",""
"null","","html-keyboard-response","503","540563","0.0-6.0-1.94","","<img src=""img/red-r.png"" border=""10"">","null","trial","null","","0.4,0.6","2:nogo_b","1",""
"null","","html-keyboard-response","504","541571","0.0-6.0-2.94","","<div style=""font-size:60px;"">+</div>","null","","","","","","",""
"null","","image-keyboard-response","505","543075","0.0-6.0-0.95","","img/blue.png","null","trial","32","false","0.6,0.4","3:go_c","",""
"null","","html-keyboard-response","506","544081","0.0-6.0-1.95","","<img src=""img/blue-n.png"">","null","trial","32","","0.6,0.4","3:go_c","0",""
"null","","html-keyboard-response","507","545087","0.0-6.0-2.95","","<div style=""font-size:60px;"">+</div>","null","","","","","","",""
"406.2999999523163","","image-keyboard-response","508","545494","0.0-6.0-0.96","","img/pink.png","32","trial","32","true","0.6,0.4","1:go_a","",""
"null","","html-keyboard-response","509","546511","0.0-6.0-1.96","","<img src=""img/pink-n.png"" border=""10"">","null","trial","32","","0.6,0.4","1:go_a","0",""
"null","","html-keyboard-response","510","547517","0.0-6.0-2.96","","<div style=""font-size:60px;"">+</div>","null","","","","","","",""
"624.1999999880791","","image-keyboard-response","511","548142","0.0-6.0-0.97","","img/blue.png","32","trial","32","true","0.6,0.4","3:go_c","",""
"null","","html-keyboard-response","512","549158","0.0-6.0-1.97","","<img src=""img/blue-n.png"" border=""10"">","null","trial","32","","0.6,0.4","3:go_c","0",""
"null","","html-keyboard-response","513","550162","0.0-6.0-2.97","","<div style=""font-size:60px;"">+</div>","null","","","","","","",""
"417.19999998807907","","image-keyboard-response","514","550580","0.0-6.0-0.98","","img/red.png","32","trial","null","false","0.4,0.6","2:nogo_b","",""
"null","","html-keyboard-response","515","551586","0.0-6.0-1.98","","<img src=""img/red-n.png"" border=""10"">","null","trial","null","","0.4,0.6","2:nogo_b","0",""
"null","","html-keyboard-response","516","552592","0.0-6.0-2.98","","<div style=""font-size:60px;"">+</div>","null","","","","","","",""
"704.3999999761581","","image-keyboard-response","517","553297","0.0-6.0-0.99","","img/grey.png","32","trial","null","false","0.4,0.6","4:nogo_d","",""
"null","","html-keyboard-response","518","554312","0.0-6.0-1.99","","<img src=""img/grey-n.png"" border=""10"">","null","trial","null","","0.4,0.6","4:nogo_d","0",""
"null","","html-keyboard-response","519","555317","0.0-6.0-2.99","","<div style=""font-size:60px;"">+</div>","null","","","","","","",""
"860.9000000357628","","image-keyboard-response","520","556178","0.0-6.0-0.100","","img/red.png","32","trial","null","false","0.4,0.6","2:nogo_b","",""
"null","","html-keyboard-response","521","557189","0.0-6.0-1.100","","<img src=""img/red-r.png"" border=""10"">","null","trial","null","","0.4,0.6","2:nogo_b","1",""
"null","","html-keyboard-response","522","558193","0.0-6.0-2.100","","<div style=""font-size:60px;"">+</div>","null","","","","","","",""
"969","","image-keyboard-response","523","559163","0.0-6.0-0.101","","img/grey.png","32","trial","null","false","0.4,0.6","4:nogo_d","",""
"null","","html-keyboard-response","524","560173","0.0-6.0-1.101","","<img src=""img/grey-n.png"" border=""10"">","null","trial","null","","0.4,0.6","4:nogo_d","0",""
"null","","html-keyboard-response","525","561179","0.0-6.0-2.101","","<div style=""font-size:60px;"">+</div>","null","","","","","","",""
"463","","image-keyboard-response","526","561642","0.0-6.0-0.102","","img/pink.png","32","trial","32","true","0.6,0.4","1:go_a","",""
"null","","html-keyboard-response","527","562649","0.0-6.0-1.102","","<img src=""img/pink-n.png"" border=""10"">","null","trial","32","","0.6,0.4","1:go_a","0",""
"null","","html-keyboard-response","528","563654","0.0-6.0-2.102","","<div style=""font-size:60px;"">+</div>","null","","","","","","",""
"518.6999999880791","","image-keyboard-response","529","564173","0.0-6.0-0.103","","img/blue.png","32","trial","32","true","0.6,0.4","3:go_c","",""
"null","","html-keyboard-response","530","565185","0.0-6.0-1.103","","<img src=""img/blue-n.png"" border=""10"">","null","trial","32","","0.6,0.4","3:go_c","0",""
"null","","html-keyboard-response","531","566190","0.0-6.0-2.103","","<div style=""font-size:60px;"">+</div>","null","","","","","","",""
"null","","image-keyboard-response","532","567706","0.0-6.0-0.104","","img/blue.png","null","trial","32","false","0.6,0.4","3:go_c","",""
"null","","html-keyboard-response","533","568710","0.0-6.0-1.104","","<img src=""img/blue-n.png"">","null","trial","32","","0.6,0.4","3:go_c","0",""
"null","","html-keyboard-response","534","569711","0.0-6.0-2.104","","<div style=""font-size:60px;"">+</div>","null","","","","","","",""
"684","","image-keyboard-response","535","570395","0.0-6.0-0.105","","img/red.png","32","trial","null","false","0.4,0.6","2:nogo_b","",""
"null","","html-keyboard-response","536","571402","0.0-6.0-1.105","","<img src=""img/red-r.png"" border=""10"">","null","trial","null","","0.4,0.6","2:nogo_b","1",""
"null","","html-keyboard-response","537","572408","0.0-6.0-2.105","","<div style=""font-size:60px;"">+</div>","null","","","","","","",""
"608.2999999523163","","image-keyboard-response","538","573017","0.0-6.0-0.106","","img/pink.png","32","trial","32","true","0.6,0.4","1:go_a","",""
"null","","html-keyboard-response","539","574033","0.0-6.0-1.106","","<img src=""img/pink-n.png"" border=""10"">","null","trial","32","","0.6,0.4","1:go_a","0",""
"null","","html-keyboard-response","540","575037","0.0-6.0-2.106","","<div style=""font-size:60px;"">+</div>","null","","","","","","",""
"null","","image-keyboard-response","541","576539","0.0-6.0-0.107","","img/grey.png","null","trial","null","true","0.4,0.6","4:nogo_d","",""
"null","","html-keyboard-response","542","577546","0.0-6.0-1.107","","<img src=""img/grey-n.png"">","null","trial","null","","0.4,0.6","4:nogo_d","0",""
"null","","html-keyboard-response","543","578551","0.0-6.0-2.107","","<div style=""font-size:60px;"">+</div>","null","","","","","","",""
"627.3000000119209","","image-keyboard-response","544","579179","0.0-6.0-0.108","","img/blue.png","32","trial","32","true","0.6,0.4","3:go_c","",""
"null","","html-keyboard-response","545","580191","0.0-6.0-1.108","","<img src=""img/blue-r.png"" border=""10"">","null","trial","32","","0.6,0.4","3:go_c","1",""
"null","","html-keyboard-response","546","581196","0.0-6.0-2.108","","<div style=""font-size:60px;"">+</div>","null","","","","","","",""
"null","","image-keyboard-response","547","582698","0.0-6.0-0.109","","img/grey.png","null","trial","null","true","0.4,0.6","4:nogo_d","",""
"null","","html-keyboard-response","548","583703","0.0-6.0-1.109","","<img src=""img/grey-n.png"">","null","trial","null","","0.4,0.6","4:nogo_d","0",""
"null","","html-keyboard-response","549","584710","0.0-6.0-2.109","","<div style=""font-size:60px;"">+</div>","null","","","","","","",""
"435.7999999523163","","image-keyboard-response","550","585146","0.0-6.0-0.110","","img/pink.png","32","trial","32","true","0.6,0.4","1:go_a","",""
"null","","html-keyboard-response","551","586162","0.0-6.0-1.110","","<img src=""img/pink-r.png"" border=""10"">","null","trial","32","","0.6,0.4","1:go_a","1",""
"null","","html-keyboard-response","552","587168","0.0-6.0-2.110","","<div style=""font-size:60px;"">+</div>","null","","","","","","",""
"551","","image-keyboard-response","553","587720","0.0-6.0-0.111","","img/red.png","32","trial","null","false","0.4,0.6","2:nogo_b","",""
"null","","html-keyboard-response","554","588730","0.0-6.0-1.111","","<img src=""img/red-n.png"" border=""10"">","null","trial","null","","0.4,0.6","2:nogo_b","0",""
"null","","html-keyboard-response","555","589737","0.0-6.0-2.111","","<div style=""font-size:60px;"">+</div>","null","","","","","","",""
"1050.699999988079","","image-keyboard-response","556","590788","0.0-6.0-0.112","","img/grey.png","32","trial","null","false","0.4,0.6","4:nogo_d","",""
"null","","html-keyboard-response","557","591796","0.0-6.0-1.112","","<img src=""img/grey-n.png"" border=""10"">","null","trial","null","","0.4,0.6","4:nogo_d","0",""
"null","","html-keyboard-response","558","592801","0.0-6.0-2.112","","<div style=""font-size:60px;"">+</div>","null","","","","","","",""
"null","","image-keyboard-response","559","594315","0.0-6.0-0.113","","img/blue.png","null","trial","32","false","0.6,0.4","3:go_c","",""
"null","","html-keyboard-response","560","595321","0.0-6.0-1.113","","<img src=""img/blue-n.png"">","null","trial","32","","0.6,0.4","3:go_c","0",""
"null","","html-keyboard-response","561","596328","0.0-6.0-2.113","","<div style=""font-size:60px;"">+</div>","null","","","","","","",""
"797.5","","image-keyboard-response","562","597126","0.0-6.0-0.114","","img/pink.png","32","trial","32","true","0.6,0.4","1:go_a","",""
"null","","html-keyboard-response","563","598138","0.0-6.0-1.114","","<img src=""img/pink-r.png"" border=""10"">","null","trial","32","","0.6,0.4","1:go_a","1",""
"null","","html-keyboard-response","564","599143","0.0-6.0-2.114","","<div style=""font-size:60px;"">+</div>","null","","","","","","",""
"902.3999999761581","","image-keyboard-response","565","600046","0.0-6.0-0.115","","img/red.png","32","trial","null","false","0.4,0.6","2:nogo_b","",""
"null","","html-keyboard-response","566","601048","0.0-6.0-1.115","","<img src=""img/red-n.png"" border=""10"">","null","trial","null","","0.4,0.6","2:nogo_b","0",""
"null","","html-keyboard-response","567","602054","0.0-6.0-2.115","","<div style=""font-size:60px;"">+</div>","null","","","","","","",""
"604.3000000119209","","image-keyboard-response","568","602659","0.0-6.0-0.116","","img/pink.png","32","trial","32","true","0.6,0.4","1:go_a","",""
"null","","html-keyboard-response","569","603662","0.0-6.0-1.116","","<img src=""img/pink-n.png"" border=""10"">","null","trial","32","","0.6,0.4","1:go_a","0",""
"null","","html-keyboard-response","570","604668","0.0-6.0-2.116","","<div style=""font-size:60px;"">+</div>","null","","","","","","",""
"625.8999999761581","","image-keyboard-response","571","605295","0.0-6.0-0.117","","img/red.png","32","trial","null","false","0.4,0.6","2:nogo_b","",""
"null","","html-keyboard-response","572","606309","0.0-6.0-1.117","","<img src=""img/red-n.png"" border=""10"">","null","trial","null","","0.4,0.6","2:nogo_b","0",""
"null","","html-keyboard-response","573","607314","0.0-6.0-2.117","","<div style=""font-size:60px;"">+</div>","null","","","","","","",""
"666.1999999880791","","image-keyboard-response","574","607981","0.0-6.0-0.118","","img/blue.png","32","trial","32","true","0.6,0.4","3:go_c","",""
"null","","html-keyboard-response","575","608985","0.0-6.0-1.118","","<img src=""img/blue-n.png"" border=""10"">","null","trial","32","","0.6,0.4","3:go_c","0",""
"null","","html-keyboard-response","576","609991","0.0-6.0-2.118","","<div style=""font-size:60px;"">+</div>","null","","","","","","",""
"695.3999999761581","","image-keyboard-response","577","610687","0.0-6.0-0.119","","img/grey.png","32","trial","null","false","0.4,0.6","4:nogo_d","",""
"null","","html-keyboard-response","578","611693","0.0-6.0-1.119","","<img src=""img/grey-r.png"" border=""10"">","null","trial","null","","0.4,0.6","4:nogo_d","1",""
"null","","html-keyboard-response","579","612698","0.0-6.0-2.119","","<div style=""font-size:60px;"">+</div>","null","","","","","","",""
"1752.0999999642372","","instructions","580","614450","0.0-7.0","[{""page_index"":0,""viewing_time"":1751.8999999761581}]","","","","","","","","",""
"644.1999999880791","","image-keyboard-response","581","615095","0.0-8.0-0.0","","img/blue.png","32","trial","null","false","0.4,0.6","4:nogo_d","",""
"null","","html-keyboard-response","582","616101","0.0-8.0-1.0","","<img src=""img/blue-n.png"" border=""10"">","null","trial","null","","0.4,0.6","4:nogo_d","0",""
"null","","html-keyboard-response","583","617107","0.0-8.0-2.0","","<div style=""font-size:60px;"">+</div>","null","","","","","","",""
"728.0999999642372","","image-keyboard-response","584","617836","0.0-8.0-0.1","","img/orange.png","32","trial","null","false","0.2,0.8","2:nogo_b","",""
"null","","html-keyboard-response","585","618840","0.0-8.0-1.1","","<img src=""img/orange-r.png"" border=""10"">","null","trial","null","","0.2,0.8","2:nogo_b","1",""
"null","","html-keyboard-response","586","619845","0.0-8.0-2.1","","<div style=""font-size:60px;"">+</div>","null","","","","","","",""
"485.80000001192093","","image-keyboard-response","587","620331","0.0-8.0-0.2","","img/pink.png","32","trial","32","true","0.6,0.4","3:go_c","",""
"null","","html-keyboard-response","588","621345","0.0-8.0-1.2","","<img src=""img/pink-r.png"" border=""10"">","null","trial","32","","0.6,0.4","3:go_c","1",""
"null","","html-keyboard-response","589","622352","0.0-8.0-2.2","","<div style=""font-size:60px;"">+</div>","null","","","","","","",""
"572.5","","image-keyboard-response","590","622925","0.0-8.0-0.3","","img/yellow.png","32","trial","32","true","0.8,0.2","1:go_a","",""
"null","","html-keyboard-response","591","623931","0.0-8.0-1.3","","<img src=""img/yellow-r.png"" border=""10"">","null","trial","32","","0.8,0.2","1:go_a","1",""
"null","","html-keyboard-response","592","624937","0.0-8.0-2.3","","<div style=""font-size:60px;"">+</div>","null","","","","","","",""
"null","","image-keyboard-response","593","626439","0.0-8.0-0.4","","img/blue.png","null","trial","null","true","0.4,0.6","4:nogo_d","",""
"null","","html-keyboard-response","594","627445","0.0-8.0-1.4","","<img src=""img/blue-r.png"">","null","trial","null","","0.4,0.6","4:nogo_d","1",""
"null","","html-keyboard-response","595","628451","0.0-8.0-2.4","","<div style=""font-size:60px;"">+</div>","null","","","","","","",""
"432.5","","image-keyboard-response","596","628884","0.0-8.0-0.5","","img/yellow.png","32","trial","32","true","0.8,0.2","1:go_a","",""
"null","","html-keyboard-response","597","629890","0.0-8.0-1.5","","<img src=""img/yellow-r.png"" border=""10"">","null","trial","32","","0.8,0.2","1:go_a","1",""
"null","","html-keyboard-response","598","630895","0.0-8.0-2.5","","<div style=""font-size:60px;"">+</div>","null","","","","","","",""
"564.6999999880791","","image-keyboard-response","599","631460","0.0-8.0-0.6","","img/orange.png","32","trial","null","false","0.2,0.8","2:nogo_b","",""
"null","","html-keyboard-response","600","632473","0.0-8.0-1.6","","<img src=""img/orange-r.png"" border=""10"">","null","trial","null","","0.2,0.8","2:nogo_b","1",""
"null","","html-keyboard-response","601","633479","0.0-8.0-2.6","","<div style=""font-size:60px;"">+</div>","null","","","","","","",""
"475","","image-keyboard-response","602","633954","0.0-8.0-0.7","","img/pink.png","32","trial","32","true","0.6,0.4","3:go_c","",""
"null","","html-keyboard-response","603","634963","0.0-8.0-1.7","","<img src=""img/pink-r.png"" border=""10"">","null","trial","32","","0.6,0.4","3:go_c","1",""
"null","","html-keyboard-response","604","635968","0.0-8.0-2.7","","<div style=""font-size:60px;"">+</div>","null","","","","","","",""
"null","","image-keyboard-response","605","637470","0.0-8.0-0.8","","img/yellow.png","null","trial","32","false","0.8,0.2","1:go_a","",""
"null","","html-keyboard-response","606","638476","0.0-8.0-1.8","","<img src=""img/yellow-n.png"">","null","trial","32","","0.8,0.2","1:go_a","0",""
"null","","html-keyboard-response","607","639482","0.0-8.0-2.8","","<div style=""font-size:60px;"">+</div>","null","","","","","","",""
"525.5999999642372","","image-keyboard-response","608","640008","0.0-8.0-0.9","","img/orange.png","32","trial","null","false","0.2,0.8","2:nogo_b","",""
"null","","html-keyboard-response","609","641015","0.0-8.0-1.9","","<img src=""img/orange-n.png"" border=""10"">","null","trial","null","","0.2,0.8","2:nogo_b","0",""
"null","","html-keyboard-response","610","642021","0.0-8.0-2.9","","<div style=""font-size:60px;"">+</div>","null","","","","","","",""
"null","","image-keyboard-response","611","643523","0.0-8.0-0.10","","img/blue.png","null","trial","null","true","0.4,0.6","4:nogo_d","",""
"null","","html-keyboard-response","612","644529","0.0-8.0-1.10","","<img src=""img/blue-n.png"">","null","trial","null","","0.4,0.6","4:nogo_d","0",""
"null","","html-keyboard-response","613","645533","0.0-8.0-2.10","","<div style=""font-size:60px;"">+</div>","null","","","","","","",""
"588.3999999761581","","image-keyboard-response","614","646122","0.0-8.0-0.11","","img/pink.png","32","trial","32","true","0.6,0.4","3:go_c","",""
"null","","html-keyboard-response","615","647127","0.0-8.0-1.11","","<img src=""img/pink-r.png"" border=""10"">","null","trial","32","","0.6,0.4","3:go_c","1",""
"null","","html-keyboard-response","616","648133","0.0-8.0-2.11","","<div style=""font-size:60px;"">+</div>","null","","","","","","",""
"641","","image-keyboard-response","617","648775","0.0-8.0-0.12","","img/blue.png","32","trial","null","false","0.4,0.6","4:nogo_d","",""
"null","","html-keyboard-response","618","649788","0.0-8.0-1.12","","<img src=""img/blue-n.png"" border=""10"">","null","trial","null","","0.4,0.6","4:nogo_d","0",""
"null","","html-keyboard-response","619","650794","0.0-8.0-2.12","","<div style=""font-size:60px;"">+</div>","null","","","","","","",""
"676.3999999761581","","image-keyboard-response","620","651471","0.0-8.0-0.13","","img/orange.png","32","trial","null","false","0.2,0.8","2:nogo_b","",""
"null","","html-keyboard-response","621","652480","0.0-8.0-1.13","","<img src=""img/orange-n.png"" border=""10"">","null","trial","null","","0.2,0.8","2:nogo_b","0",""
"null","","html-keyboard-response","622","653485","0.0-8.0-2.13","","<div style=""font-size:60px;"">+</div>","null","","","","","","",""
"452.80000001192093","","image-keyboard-response","623","653938","0.0-8.0-0.14","","img/yellow.png","32","trial","32","true","0.8,0.2","1:go_a","",""
"null","","html-keyboard-response","624","654940","0.0-8.0-1.14","","<img src=""img/yellow-r.png"" border=""10"">","null","trial","32","","0.8,0.2","1:go_a","1",""
"null","","html-keyboard-response","625","655946","0.0-8.0-2.14","","<div style=""font-size:60px;"">+</div>","null","","","","","","",""
"1064.4000000357628","","image-keyboard-response","626","657011","0.0-8.0-0.15","","img/pink.png","32","trial","32","true","0.6,0.4","3:go_c","",""
"null","","html-keyboard-response","627","658018","0.0-8.0-1.15","","<img src=""img/pink-n.png"" border=""10"">","null","trial","32","","0.6,0.4","3:go_c","0",""
"null","","html-keyboard-response","628","659024","0.0-8.0-2.15","","<div style=""font-size:60px;"">+</div>","null","","","","","","",""
"480.5999999642372","","image-keyboard-response","629","659505","0.0-8.0-0.16","","img/orange.png","32","trial","null","false","0.2,0.8","2:nogo_b","",""
"null","","html-keyboard-response","630","660510","0.0-8.0-1.16","","<img src=""img/orange-r.png"" border=""10"">","null","trial","null","","0.2,0.8","2:nogo_b","1",""
"null","","html-keyboard-response","631","661516","0.0-8.0-2.16","","<div style=""font-size:60px;"">+</div>","null","","","","","","",""
"621","","image-keyboard-response","632","662138","0.0-8.0-0.17","","img/pink.png","32","trial","32","true","0.6,0.4","3:go_c","",""
"null","","html-keyboard-response","633","663142","0.0-8.0-1.17","","<img src=""img/pink-r.png"" border=""10"">","null","trial","32","","0.6,0.4","3:go_c","1",""
"null","","html-keyboard-response","634","664147","0.0-8.0-2.17","","<div style=""font-size:60px;"">+</div>","null","","","","","","",""
"543.5","","image-keyboard-response","635","664691","0.0-8.0-0.18","","img/yellow.png","32","trial","32","true","0.8,0.2","1:go_a","",""
"null","","html-keyboard-response","636","665693","0.0-8.0-1.18","","<img src=""img/yellow-r.png"" border=""10"">","null","trial","32","","0.8,0.2","1:go_a","1",""
"null","","html-keyboard-response","637","666697","0.0-8.0-2.18","","<div style=""font-size:60px;"">+</div>","null","","","","","","",""
"null","","image-keyboard-response","638","668213","0.0-8.0-0.19","","img/blue.png","null","trial","null","true","0.4,0.6","4:nogo_d","",""
"null","","html-keyboard-response","639","669220","0.0-8.0-1.19","","<img src=""img/blue-r.png"">","null","trial","null","","0.4,0.6","4:nogo_d","1",""
"null","","html-keyboard-response","640","670226","0.0-8.0-2.19","","<div style=""font-size:60px;"">+</div>","null","","","","","","",""
"null","","image-keyboard-response","641","671728","0.0-8.0-0.20","","img/pink.png","null","trial","32","false","0.6,0.4","3:go_c","",""
"null","","html-keyboard-response","642","672735","0.0-8.0-1.20","","<img src=""img/pink-n.png"">","null","trial","32","","0.6,0.4","3:go_c","0",""
"null","","html-keyboard-response","643","673735","0.0-8.0-2.20","","<div style=""font-size:60px;"">+</div>","null","","","","","","",""
"503.69999998807907","","image-keyboard-response","644","674239","0.0-8.0-0.21","","img/yellow.png","32","trial","32","true","0.8,0.2","1:go_a","",""
"null","","html-keyboard-response","645","675240","0.0-8.0-1.21","","<img src=""img/yellow-r.png"" border=""10"">","null","trial","32","","0.8,0.2","1:go_a","1",""
"null","","html-keyboard-response","646","676246","0.0-8.0-2.21","","<div style=""font-size:60px;"">+</div>","null","","","","","","",""
"970","","image-keyboard-response","647","677217","0.0-8.0-0.22","","img/orange.png","32","trial","null","false","0.2,0.8","2:nogo_b","",""
"null","","html-keyboard-response","648","678226","0.0-8.0-1.22","","<img src=""img/orange-n.png"" border=""10"">","null","trial","null","","0.2,0.8","2:nogo_b","0",""
"null","","html-keyboard-response","649","679231","0.0-8.0-2.22","","<div style=""font-size:60px;"">+</div>","null","","","","","","",""
"null","","image-keyboard-response","650","680732","0.0-8.0-0.23","","img/blue.png","null","trial","null","true","0.4,0.6","4:nogo_d","",""
"null","","html-keyboard-response","651","681738","0.0-8.0-1.23","","<img src=""img/blue-n.png"">","null","trial","null","","0.4,0.6","4:nogo_d","0",""
"null","","html-keyboard-response","652","682744","0.0-8.0-2.23","","<div style=""font-size:60px;"">+</div>","null","","","","","","",""
"601.6999999880791","","image-keyboard-response","653","683346","0.0-8.0-0.24","","img/orange.png","32","trial","null","false","0.2,0.8","2:nogo_b","",""
"null","","html-keyboard-response","654","684354","0.0-8.0-1.24","","<img src=""img/orange-n.png"" border=""10"">","null","trial","null","","0.2,0.8","2:nogo_b","0",""
"null","","html-keyboard-response","655","685360","0.0-8.0-2.24","","<div style=""font-size:60px;"">+</div>","null","","","","","","",""
"557.3999999761581","","image-keyboard-response","656","685918","0.0-8.0-0.25","","img/yellow.png","32","trial","32","true","0.8,0.2","1:go_a","",""
"null","","html-keyboard-response","657","686923","0.0-8.0-1.25","","<img src=""img/yellow-r.png"" border=""10"">","null","trial","32","","0.8,0.2","1:go_a","1",""
"null","","html-keyboard-response","658","687931","0.0-8.0-2.25","","<div style=""font-size:60px;"">+</div>","null","","","","","","",""
"816.9000000357628","","image-keyboard-response","659","688748","0.0-8.0-0.26","","img/pink.png","32","trial","32","true","0.6,0.4","3:go_c","",""
"null","","html-keyboard-response","660","689755","0.0-8.0-1.26","","<img src=""img/pink-r.png"" border=""10"">","null","trial","32","","0.6,0.4","3:go_c","1",""
"null","","html-keyboard-response","661","690760","0.0-8.0-2.26","","<div style=""font-size:60px;"">+</div>","null","","","","","","",""
"1499.2999999523163","","image-keyboard-response","662","692260","0.0-8.0-0.27","","img/blue.png","32","trial","null","false","0.4,0.6","4:nogo_d","",""
"null","","html-keyboard-response","663","693268","0.0-8.0-1.27","","<img src=""img/blue-n.png"" border=""10"">","null","trial","null","","0.4,0.6","4:nogo_d","0",""
"null","","html-keyboard-response","664","694274","0.0-8.0-2.27","","<div style=""font-size:60px;"">+</div>","null","","","","","","",""
"743.5","","image-keyboard-response","665","695018","0.0-8.0-0.28","","img/orange.png","32","trial","null","false","0.2,0.8","2:nogo_b","",""
"null","","html-keyboard-response","666","696023","0.0-8.0-1.28","","<img src=""img/orange-r.png"" border=""10"">","null","trial","null","","0.2,0.8","2:nogo_b","1",""
"null","","html-keyboard-response","667","697029","0.0-8.0-2.28","","<div style=""font-size:60px;"">+</div>","null","","","","","","",""
"697.8999999761581","","image-keyboard-response","668","697727","0.0-8.0-0.29","","img/pink.png","32","trial","32","true","0.6,0.4","3:go_c","",""
"null","","html-keyboard-response","669","698729","0.0-8.0-1.29","","<img src=""img/pink-r.png"" border=""10"">","null","trial","32","","0.6,0.4","3:go_c","1",""
"null","","html-keyboard-response","670","699733","0.0-8.0-2.29","","<div style=""font-size:60px;"">+</div>","null","","","","","","",""
"null","","image-keyboard-response","671","701235","0.0-8.0-0.30","","img/blue.png","null","trial","null","true","0.4,0.6","4:nogo_d","",""
"null","","html-keyboard-response","672","702241","0.0-8.0-1.30","","<img src=""img/blue-r.png"">","null","trial","null","","0.4,0.6","4:nogo_d","1",""
"null","","html-keyboard-response","673","703246","0.0-8.0-2.30","","<div style=""font-size:60px;"">+</div>","null","","","","","","",""
"532.5999999642372","","image-keyboard-response","674","703779","0.0-8.0-0.31","","img/yellow.png","32","trial","32","true","0.8,0.2","1:go_a","",""
"null","","html-keyboard-response","675","704794","0.0-8.0-1.31","","<img src=""img/yellow-r.png"" border=""10"">","null","trial","32","","0.8,0.2","1:go_a","1",""
