"rt","url","trial_type","trial_index","time_elapsed","internal_node_id","view_history","stimulus","key_press","test_part","correct_response","correct","use_rew","which_stim","reward","responses"
"40056.63000000641","consent.html","external-html","0","40211","0.0-0.0","","","","","","","","","",""
"473612.4799998943","","instructions","1","513822","0.0-1.0","[{""page_index"":0,""viewing_time"":13948.455000063404},{""page_index"":1,""viewing_time"":39296.74999997951},{""page_index"":2,""viewing_time"":29329.595000017434},{""page_index"":3,""viewing_time"":43448.74999998137},{""page_index"":4,""viewing_time"":22961.290000006557},{""page_index"":5,""viewing_time"":20332.38499984145},{""page_index"":6,""viewing_time"":304294.5750001818}]","","","","","","","","",""
"515.5700000468642","","image-keyboard-response","2","514338","0.0-2.0-0.0","","img/test1.PNG","32","practice","32","true","","","",""
"null","","html-keyboard-response","3","515340","0.0-2.0-1.0","","<img src=""img/test1-reward.PNG"" border=""10px; grey"">","null","","","","","","",""
"null","","html-keyboard-response","4","516345","0.0-2.0-2.0","","<div style=""font-size:60px;"">+</div>","null","","","","","","",""
"null","","image-keyboard-response","5","517848","0.0-2.0-0.1","","img/test3.PNG","null","practice","null","true","","","",""
"null","","html-keyboard-response","6","518852","0.0-2.0-1.1","","<img src=""img/test3-reward.PNG"">","null","","","","","","",""
"null","","html-keyboard-response","7","519857","0.0-2.0-2.1","","<div style=""font-size:60px;"">+</div>","null","","","","","","",""
"null","","image-keyboard-response","8","521360","0.0-2.0-0.2","","img/test2.PNG","null","practice","null","true","","","",""
"null","","html-keyboard-response","9","522365","0.0-2.0-1.2","","<img src=""img/test2-reward.PNG"">","null","","","","","","",""
"null","","html-keyboard-response","10","523366","0.0-2.0-2.2","","<div style=""font-size:60px;"">+</div>","null","","","","","","",""
"null","","image-keyboard-response","11","524872","0.0-2.0-0.3","","img/test2.PNG","null","practice","null","true","","","",""
"null","","html-keyboard-response","12","525876","0.0-2.0-1.3","","<img src=""img/test2-reward.PNG"">","null","","","","","","",""
"null","","html-keyboard-response","13","526880","0.0-2.0-2.3","","<div style=""font-size:60px;"">+</div>","null","","","","","","",""
"349.7200000565499","","image-keyboard-response","14","527230","0.0-2.0-0.4","","img/test1.PNG","32","practice","32","true","","","",""
"null","","html-keyboard-response","15","528235","0.0-2.0-1.4","","<img src=""img/test1-reward.PNG"" border=""10px; grey"">","null","","","","","","",""
"null","","html-keyboard-response","16","529237","0.0-2.0-2.4","","<div style=""font-size:60px;"">+</div>","null","","","","","","",""
"null","","image-keyboard-response","17","530741","0.0-2.0-0.5","","img/test3.PNG","null","practice","null","true","","","",""
"null","","html-keyboard-response","18","531745","0.0-2.0-1.5","","<img src=""img/test3-reward.PNG"">","null","","","","","","",""
"null","","html-keyboard-response","19","532749","0.0-2.0-2.5","","<div style=""font-size:60px;"">+</div>","null","","","","","","",""
"null","","image-keyboard-response","20","534252","0.0-2.0-0.6","","img/test2.PNG","null","practice","null","true","","","",""
"null","","html-keyboard-response","21","535257","0.0-2.0-1.6","","<img src=""img/test2-reward.PNG"">","null","","","","","","",""
"null","","html-keyboard-response","22","536260","0.0-2.0-2.6","","<div style=""font-size:60px;"">+</div>","null","","","","","","",""
"null","","image-keyboard-response","23","537764","0.0-2.0-0.7","","img/test3.PNG","null","practice","null","true","","","",""
"null","","html-keyboard-response","24","538767","0.0-2.0-1.7","","<img src=""img/test3-reward.PNG"">","null","","","","","","",""
"null","","html-keyboard-response","25","539772","0.0-2.0-2.7","","<div style=""font-size:60px;"">+</div>","null","","","","","","",""
"384.43499989807606","","image-keyboard-response","26","540157","0.0-2.0-0.8","","img/test1.PNG","32","practice","32","true","","","",""
"null","","html-keyboard-response","27","541162","0.0-2.0-1.8","","<img src=""img/test1-reward.PNG"" border=""10px; grey"">","null","","","","","","",""
"null","","html-keyboard-response","28","542165","0.0-2.0-2.8","","<div style=""font-size:60px;"">+</div>","null","","","","","","",""
"578.0150000937283","","image-keyboard-response","29","542744","0.0-2.0-0.9","","img/test1.PNG","32","practice","32","true","","","",""
"null","","html-keyboard-response","30","543746","0.0-2.0-1.9","","<img src=""img/test1-reward.PNG"" border=""10px; grey"">","null","","","","","","",""
"null","","html-keyboard-response","31","544749","0.0-2.0-2.9","","<div style=""font-size:60px;"">+</div>","null","","","","","","",""
"null","","image-keyboard-response","32","546249","0.0-2.0-0.10","","img/test3.PNG","null","practice","null","true","","","",""
"null","","html-keyboard-response","33","547254","0.0-2.0-1.10","","<img src=""img/test3-reward.PNG"">","null","","","","","","",""
"null","","html-keyboard-response","34","548255","0.0-2.0-2.10","","<div style=""font-size:60px;"">+</div>","null","","","","","","",""
"null","","image-keyboard-response","35","549756","0.0-2.0-0.11","","img/test2.PNG","null","practice","null","true","","","",""
"null","","html-keyboard-response","36","550760","0.0-2.0-1.11","","<img src=""img/test2-reward.PNG"">","null","","","","","","",""
"null","","html-keyboard-response","37","551764","0.0-2.0-2.11","","<div style=""font-size:60px;"">+</div>","null","","","","","","",""
"2726.4400001149625","","instructions","38","554490","0.0-3.0","[{""page_index"":0,""viewing_time"":2726.255000103265}]","","","","","","","","",""
"null","","image-keyboard-response","39","555997","0.0-4.0-0.0","","img/grey.png","null","trial","32","false","0.8,0.2","go_a","",""
"null","","html-keyboard-response","40","557000","0.0-4.0-1.0","","<img src=""img/grey-n.png"">","null","trial","32","","0.8,0.2","go_a","0",""
"null","","html-keyboard-response","41","558002","0.0-4.0-2.0","","<div style=""font-size:60px;"">+</div>","null","","","","","","",""
"604.3850001879036","","image-keyboard-response","42","558607","0.0-4.0-0.1","","img/orange.png","32","trial","null","false","0.2,0.8","nogo_b","",""
"null","","html-keyboard-response","43","559608","0.0-4.0-1.1","","<img src=""img/orange-n.png"" border=""10"">","null","trial","null","","0.2,0.8","nogo_b","0",""
"null","","html-keyboard-response","44","560612","0.0-4.0-2.1","","<div style=""font-size:60px;"">+</div>","null","","","","","","",""
"null","","image-keyboard-response","45","562113","0.0-4.0-0.2","","img/orange.png","null","trial","null","true","0.2,0.8","nogo_b","",""
"null","","html-keyboard-response","46","563119","0.0-4.0-1.2","","<img src=""img/orange-r.png"">","null","trial","null","","0.2,0.8","nogo_b","1",""
"null","","html-keyboard-response","47","564122","0.0-4.0-2.2","","<div style=""font-size:60px;"">+</div>","null","","","","","","",""
"null","","image-keyboard-response","48","565626","0.0-4.0-0.3","","img/grey.png","null","trial","32","false","0.8,0.2","go_a","",""
"null","","html-keyboard-response","49","566631","0.0-4.0-1.3","","<img src=""img/grey-n.png"">","null","trial","32","","0.8,0.2","go_a","0",""
"null","","html-keyboard-response","50","567634","0.0-4.0-2.3","","<div style=""font-size:60px;"">+</div>","null","","","","","","",""
"433.37999982759356","","image-keyboard-response","51","568068","0.0-4.0-0.4","","img/orange.png","32","trial","null","false","0.2,0.8","nogo_b","",""
"null","","html-keyboard-response","52","569072","0.0-4.0-1.4","","<img src=""img/orange-n.png"" border=""10"">","null","trial","null","","0.2,0.8","nogo_b","0",""
"null","","html-keyboard-response","53","570075","0.0-4.0-2.4","","<div style=""font-size:60px;"">+</div>","null","","","","","","",""
"null","","image-keyboard-response","54","571578","0.0-4.0-0.5","","img/grey.png","null","trial","32","false","0.8,0.2","go_a","",""
"null","","html-keyboard-response","55","572583","0.0-4.0-1.5","","<img src=""img/grey-n.png"">","null","trial","32","","0.8,0.2","go_a","0",""
"null","","html-keyboard-response","56","573585","0.0-4.0-2.5","","<div style=""font-size:60px;"">+</div>","null","","","","","","",""
"null","","image-keyboard-response","57","575091","0.0-4.0-0.6","","img/grey.png","null","trial","32","false","0.8,0.2","go_a","",""
"null","","html-keyboard-response","58","576091","0.0-4.0-1.6","","<img src=""img/grey-n.png"">","null","trial","32","","0.8,0.2","go_a","0",""
"null","","html-keyboard-response","59","577096","0.0-4.0-2.6","","<div style=""font-size:60px;"">+</div>","null","","","","","","",""
"669.7500001173466","","image-keyboard-response","60","577766","0.0-4.0-0.7","","img/orange.png","32","trial","null","false","0.2,0.8","nogo_b","",""
"null","","html-keyboard-response","61","578772","0.0-4.0-1.7","","<img src=""img/orange-n.png"" border=""10"">","null","trial","null","","0.2,0.8","nogo_b","0",""
"null","","html-keyboard-response","62","579776","0.0-4.0-2.7","","<div style=""font-size:60px;"">+</div>","null","","","","","","",""
"1454.3850000482053","","image-keyboard-response","63","581231","0.0-4.0-0.8","","img/grey.png","32","trial","32","true","0.8,0.2","go_a","",""
"null","","html-keyboard-response","64","582236","0.0-4.0-1.8","","<img src=""img/grey-n.png"" border=""10"">","null","trial","32","","0.8,0.2","go_a","0",""
"null","","html-keyboard-response","65","583241","0.0-4.0-2.8","","<div style=""font-size:60px;"">+</div>","null","","","","","","",""
"948.4899998642504","","image-keyboard-response","66","584190","0.0-4.0-0.9","","img/orange.png","32","trial","null","false","0.2,0.8","nogo_b","",""
"null","","html-keyboard-response","67","585196","0.0-4.0-1.9","","<img src=""img/orange-n.png"" border=""10"">","null","trial","null","","0.2,0.8","nogo_b","0",""
"null","","html-keyboard-response","68","586199","0.0-4.0-2.9","","<div style=""font-size:60px;"">+</div>","null","","","","","","",""
"null","","image-keyboard-response","69","587702","0.0-4.0-0.10","","img/grey.png","null","trial","32","false","0.8,0.2","go_a","",""
"null","","html-keyboard-response","70","588707","0.0-4.0-1.10","","<img src=""img/grey-r.png"">","null","trial","32","","0.8,0.2","go_a","1",""
"null","","html-keyboard-response","71","589711","0.0-4.0-2.10","","<div style=""font-size:60px;"">+</div>","null","","","","","","",""
"711.0099999699742","","image-keyboard-response","72","590422","0.0-4.0-0.11","","img/orange.png","32","trial","null","false","0.2,0.8","nogo_b","",""
"null","","html-keyboard-response","73","591426","0.0-4.0-1.11","","<img src=""img/orange-n.png"" border=""10"">","null","trial","null","","0.2,0.8","nogo_b","0",""
"null","","html-keyboard-response","74","592429","0.0-4.0-2.11","","<div style=""font-size:60px;"">+</div>","null","","","","","","",""
"726.1950001120567","","image-keyboard-response","75","593156","0.0-4.0-0.12","","img/orange.png","32","trial","null","false","0.2,0.8","nogo_b","",""
"null","","html-keyboard-response","76","594161","0.0-4.0-1.12","","<img src=""img/orange-n.png"" border=""10"">","null","trial","null","","0.2,0.8","nogo_b","0",""
"null","","html-keyboard-response","77","595165","0.0-4.0-2.12","","<div style=""font-size:60px;"">+</div>","null","","","","","","",""
"null","","image-keyboard-response","78","596667","0.0-4.0-0.13","","img/grey.png","null","trial","32","false","0.8,0.2","go_a","",""
"null","","html-keyboard-response","79","597668","0.0-4.0-1.13","","<img src=""img/grey-n.png"">","null","trial","32","","0.8,0.2","go_a","0",""
"null","","html-keyboard-response","80","598670","0.0-4.0-2.13","","<div style=""font-size:60px;"">+</div>","null","","","","","","",""
"673.1399998534471","","image-keyboard-response","81","599344","0.0-4.0-0.14","","img/orange.png","32","trial","null","false","0.2,0.8","nogo_b","",""
"null","","html-keyboard-response","82","600349","0.0-4.0-1.14","","<img src=""img/orange-n.png"" border=""10"">","null","trial","null","","0.2,0.8","nogo_b","0",""
"null","","html-keyboard-response","83","601351","0.0-4.0-2.14","","<div style=""font-size:60px;"">+</div>","null","","","","","","",""
"null","","image-keyboard-response","84","602853","0.0-4.0-0.15","","img/grey.png","null","trial","32","false","0.8,0.2","go_a","",""
"null","","html-keyboard-response","85","603854","0.0-4.0-1.15","","<img src=""img/grey-n.png"">","null","trial","32","","0.8,0.2","go_a","0",""
"null","","html-keyboard-response","86","604858","0.0-4.0-2.15","","<div style=""font-size:60px;"">+</div>","null","","","","","","",""
"null","","image-keyboard-response","87","606363","0.0-4.0-0.16","","img/grey.png","null","trial","32","false","0.8,0.2","go_a","",""
"null","","html-keyboard-response","88","607367","0.0-4.0-1.16","","<img src=""img/grey-n.png"">","null","trial","32","","0.8,0.2","go_a","0",""
"null","","html-keyboard-response","89","608368","0.0-4.0-2.16","","<div style=""font-size:60px;"">+</div>","null","","","","","","",""
"582.9499999526888","","image-keyboard-response","90","608952","0.0-4.0-0.17","","img/orange.png","32","trial","null","false","0.2,0.8","nogo_b","",""
"null","","html-keyboard-response","91","609953","0.0-4.0-1.17","","<img src=""img/orange-n.png"" border=""10"">","null","trial","null","","0.2,0.8","nogo_b","0",""
"null","","html-keyboard-response","92","610957","0.0-4.0-2.17","","<div style=""font-size:60px;"">+</div>","null","","","","","","",""
"null","","image-keyboard-response","93","612460","0.0-4.0-0.18","","img/grey.png","null","trial","32","false","0.8,0.2","go_a","",""
"null","","html-keyboard-response","94","613465","0.0-4.0-1.18","","<img src=""img/grey-n.png"">","null","trial","32","","0.8,0.2","go_a","0",""
"null","","html-keyboard-response","95","614467","0.0-4.0-2.18","","<div style=""font-size:60px;"">+</div>","null","","","","","","",""
"817.2750000376254","","image-keyboard-response","96","615285","0.0-4.0-0.19","","img/orange.png","32","trial","null","false","0.2,0.8","nogo_b","",""
"null","","html-keyboard-response","97","616288","0.0-4.0-1.19","","<img src=""img/orange-n.png"" border=""10"">","null","trial","null","","0.2,0.8","nogo_b","0",""
"null","","html-keyboard-response","98","617292","0.0-4.0-2.19","","<div style=""font-size:60px;"">+</div>","null","","","","","","",""
"771.855000173673","","image-keyboard-response","99","618064","0.0-4.0-0.20","","img/orange.png","32","trial","null","false","0.2,0.8","nogo_b","",""
"null","","html-keyboard-response","100","619066","0.0-4.0-1.20","","<img src=""img/orange-n.png"" border=""10"">","null","trial","null","","0.2,0.8","nogo_b","0",""
"null","","html-keyboard-response","101","620072","0.0-4.0-2.20","","<div style=""font-size:60px;"">+</div>","null","","","","","","",""
"null","","image-keyboard-response","102","621573","0.0-4.0-0.21","","img/grey.png","null","trial","32","false","0.8,0.2","go_a","",""
"null","","html-keyboard-response","103","622578","0.0-4.0-1.21","","<img src=""img/grey-n.png"">","null","trial","32","","0.8,0.2","go_a","0",""
"null","","html-keyboard-response","104","623581","0.0-4.0-2.21","","<div style=""font-size:60px;"">+</div>","null","","","","","","",""
"940.2250000275671","","image-keyboard-response","105","624522","0.0-4.0-0.22","","img/orange.png","32","trial","null","false","0.2,0.8","nogo_b","",""
"null","","html-keyboard-response","106","625524","0.0-4.0-1.22","","<img src=""img/orange-n.png"" border=""10"">","null","trial","null","","0.2,0.8","nogo_b","0",""
"null","","html-keyboard-response","107","626526","0.0-4.0-2.22","","<div style=""font-size:60px;"">+</div>","null","","","","","","",""
"null","","image-keyboard-response","108","628027","0.0-4.0-0.23","","img/grey.png","null","trial","32","false","0.8,0.2","go_a","",""
"null","","html-keyboard-response","109","629030","0.0-4.0-1.23","","<img src=""img/grey-n.png"">","null","trial","32","","0.8,0.2","go_a","0",""
"null","","html-keyboard-response","110","630032","0.0-4.0-2.23","","<div style=""font-size:60px;"">+</div>","null","","","","","","",""
"799.9950000084937","","image-keyboard-response","111","630833","0.0-4.0-0.24","","img/orange.png","32","trial","null","false","0.2,0.8","nogo_b","",""
"null","","html-keyboard-response","112","631839","0.0-4.0-1.24","","<img src=""img/orange-r.png"" border=""10"">","null","trial","null","","0.2,0.8","nogo_b","1",""
"null","","html-keyboard-response","113","632842","0.0-4.0-2.24","","<div style=""font-size:60px;"">+</div>","null","","","","","","",""
"null","","image-keyboard-response","114","634344","0.0-4.0-0.25","","img/grey.png","null","trial","32","false","0.8,0.2","go_a","",""
"null","","html-keyboard-response","115","635345","0.0-4.0-1.25","","<img src=""img/grey-n.png"">","null","trial","32","","0.8,0.2","go_a","0",""
"null","","html-keyboard-response","116","636351","0.0-4.0-2.25","","<div style=""font-size:60px;"">+</div>","null","","","","","","",""
"null","","image-keyboard-response","117","637856","0.0-4.0-0.26","","img/grey.png","null","trial","32","false","0.8,0.2","go_a","",""
"null","","html-keyboard-response","118","638861","0.0-4.0-1.26","","<img src=""img/grey-n.png"">","null","trial","32","","0.8,0.2","go_a","0",""
"null","","html-keyboard-response","119","639864","0.0-4.0-2.26","","<div style=""font-size:60px;"">+</div>","null","","","","","","",""
"812.6499999780208","","image-keyboard-response","120","640677","0.0-4.0-0.27","","img/orange.png","32","trial","null","false","0.2,0.8","nogo_b","",""
"null","","html-keyboard-response","121","641680","0.0-4.0-1.27","","<img src=""img/orange-n.png"" border=""10"">","null","trial","null","","0.2,0.8","nogo_b","0",""
"null","","html-keyboard-response","122","642684","0.0-4.0-2.27","","<div style=""font-size:60px;"">+</div>","null","","","","","","",""
"647.7599998470396","","image-keyboard-response","123","643332","0.0-4.0-0.28","","img/orange.png","32","trial","null","false","0.2,0.8","nogo_b","",""
"null","","html-keyboard-response","124","644338","0.0-4.0-1.28","","<img src=""img/orange-n.png"" border=""10"">","null","trial","null","","0.2,0.8","nogo_b","0",""
"null","","html-keyboard-response","125","645341","0.0-4.0-2.28","","<div style=""font-size:60px;"">+</div>","null","","","","","","",""
"null","","image-keyboard-response","126","646843","0.0-4.0-0.29","","img/grey.png","null","trial","32","false","0.8,0.2","go_a","",""
"null","","html-keyboard-response","127","647844","0.0-4.0-1.29","","<img src=""img/grey-n.png"">","null","trial","32","","0.8,0.2","go_a","0",""
"null","","html-keyboard-response","128","648846","0.0-4.0-2.29","","<div style=""font-size:60px;"">+</div>","null","","","","","","",""
"807.8550000209361","","image-keyboard-response","129","649655","0.0-4.0-0.30","","img/orange.png","32","trial","null","false","0.2,0.8","nogo_b","",""
"null","","html-keyboard-response","130","650661","0.0-4.0-1.30","","<img src=""img/orange-n.png"" border=""10"">","null","trial","null","","0.2,0.8","nogo_b","0",""
"null","","html-keyboard-response","131","651664","0.0-4.0-2.30","","<div style=""font-size:60px;"">+</div>","null","","","","","","",""
"null","","image-keyboard-response","132","653166","0.0-4.0-0.31","","img/grey.png","null","trial","32","false","0.8,0.2","go_a","",""
"null","","html-keyboard-response","133","654172","0.0-4.0-1.31","","<img src=""img/grey-n.png"">","null","trial","32","","0.8,0.2","go_a","0",""
"null","","html-keyboard-response","134","655174","0.0-4.0-2.31","","<div style=""font-size:60px;"">+</div>","null","","","","","","",""
"null","","image-keyboard-response","135","656680","0.0-4.0-0.32","","img/grey.png","null","trial","32","false","0.8,0.2","go_a","",""
"null","","html-keyboard-response","136","657685","0.0-4.0-1.32","","<img src=""img/grey-n.png"">","null","trial","32","","0.8,0.2","go_a","0",""
"null","","html-keyboard-response","137","658689","0.0-4.0-2.32","","<div style=""font-size:60px;"">+</div>","null","","","","","","",""
"776.0199999902397","","image-keyboard-response","138","659465","0.0-4.0-0.33","","img/orange.png","32","trial","null","false","0.2,0.8","nogo_b","",""
"null","","html-keyboard-response","139","660467","0.0-4.0-1.33","","<img src=""img/orange-n.png"" border=""10"">","null","trial","null","","0.2,0.8","nogo_b","0",""
"null","","html-keyboard-response","140","661470","0.0-4.0-2.33","","<div style=""font-size:60px;"">+</div>","null","","","","","","",""
"581.3599999528378","","image-keyboard-response","141","662052","0.0-4.0-0.34","","img/orange.png","32","trial","null","false","0.2,0.8","nogo_b","",""
"null","","html-keyboard-response","142","663058","0.0-4.0-1.34","","<img src=""img/orange-n.png"" border=""10"">","null","trial","null","","0.2,0.8","nogo_b","0",""
"null","","html-keyboard-response","143","664060","0.0-4.0-2.34","","<div style=""font-size:60px;"">+</div>","null","","","","","","",""
"null","","image-keyboard-response","144","665566","0.0-4.0-0.35","","img/grey.png","null","trial","32","false","0.8,0.2","go_a","",""
"null","","html-keyboard-response","145","666567","0.0-4.0-1.35","","<img src=""img/grey-n.png"">","null","trial","32","","0.8,0.2","go_a","0",""
"null","","html-keyboard-response","146","667568","0.0-4.0-2.35","","<div style=""font-size:60px;"">+</div>","null","","","","","","",""
"null","","image-keyboard-response","147","669072","0.0-4.0-0.36","","img/grey.png","null","trial","32","false","0.8,0.2","go_a","",""
"null","","html-keyboard-response","148","670077","0.0-4.0-1.36","","<img src=""img/grey-r.png"">","null","trial","32","","0.8,0.2","go_a","1",""
"null","","html-keyboard-response","149","671080","0.0-4.0-2.36","","<div style=""font-size:60px;"">+</div>","null","","","","","","",""
"1029.5599999371916","","image-keyboard-response","150","672110","0.0-4.0-0.37","","img/orange.png","32","trial","null","false","0.2,0.8","nogo_b","",""
"null","","html-keyboard-response","151","673112","0.0-4.0-1.37","","<img src=""img/orange-r.png"" border=""10"">","null","trial","null","","0.2,0.8","nogo_b","1",""
"null","","html-keyboard-response","152","674117","0.0-4.0-2.37","","<div style=""font-size:60px;"">+</div>","null","","","","","","",""
"null","","image-keyboard-response","153","675619","0.0-4.0-0.38","","img/grey.png","null","trial","32","false","0.8,0.2","go_a","",""
"null","","html-keyboard-response","154","676625","0.0-4.0-1.38","","<img src=""img/grey-n.png"">","null","trial","32","","0.8,0.2","go_a","0",""
"null","","html-keyboard-response","155","677630","0.0-4.0-2.38","","<div style=""font-size:60px;"">+</div>","null","","","","","","",""
"null","","image-keyboard-response","156","679136","0.0-4.0-0.39","","img/orange.png","null","trial","null","true","0.2,0.8","nogo_b","",""
"null","","html-keyboard-response","157","680137","0.0-4.0-1.39","","<img src=""img/orange-r.png"">","null","trial","null","","0.2,0.8","nogo_b","1",""
"null","","html-keyboard-response","158","681140","0.0-4.0-2.39","","<div style=""font-size:60px;"">+</div>","null","","","","","","",""
"null","","image-keyboard-response","159","682646","0.0-4.0-0.40","","img/orange.png","null","trial","null","true","0.2,0.8","nogo_b","",""
"null","","html-keyboard-response","160","683652","0.0-4.0-1.40","","<img src=""img/orange-r.png"">","null","trial","null","","0.2,0.8","nogo_b","1",""
"null","","html-keyboard-response","161","684655","0.0-4.0-2.40","","<div style=""font-size:60px;"">+</div>","null","","","","","","",""
"null","","image-keyboard-response","162","686161","0.0-4.0-0.41","","img/grey.png","null","trial","32","false","0.8,0.2","go_a","",""
"null","","html-keyboard-response","163","687166","0.0-4.0-1.41","","<img src=""img/grey-n.png"">","null","trial","32","","0.8,0.2","go_a","0",""
"null","","html-keyboard-response","164","688169","0.0-4.0-2.41","","<div style=""font-size:60px;"">+</div>","null","","","","","","",""
"null","","image-keyboard-response","165","689670","0.0-4.0-0.42","","img/orange.png","null","trial","null","true","0.2,0.8","nogo_b","",""
"null","","html-keyboard-response","166","690676","0.0-4.0-1.42","","<img src=""img/orange-r.png"">","null","trial","null","","0.2,0.8","nogo_b","1",""
"null","","html-keyboard-response","167","691679","0.0-4.0-2.42","","<div style=""font-size:60px;"">+</div>","null","","","","","","",""
"1052.0300001371652","","image-keyboard-response","168","692732","0.0-4.0-0.43","","img/grey.png","32","trial","32","true","0.8,0.2","go_a","",""
"null","","html-keyboard-response","169","693736","0.0-4.0-1.43","","<img src=""img/grey-r.png"" border=""10"">","null","trial","32","","0.8,0.2","go_a","1",""
"null","","html-keyboard-response","170","694740","0.0-4.0-2.43","","<div style=""font-size:60px;"">+</div>","null","","","","","","",""
"null","","image-keyboard-response","171","696240","0.0-4.0-0.44","","img/grey.png","null","trial","32","false","0.8,0.2","go_a","",""
"null","","html-keyboard-response","172","697245","0.0-4.0-1.44","","<img src=""img/grey-n.png"">","null","trial","32","","0.8,0.2","go_a","0",""
"null","","html-keyboard-response","173","698248","0.0-4.0-2.44","","<div style=""font-size:60px;"">+</div>","null","","","","","","",""
"659.9400001578033","","image-keyboard-response","174","698908","0.0-4.0-0.45","","img/orange.png","32","trial","null","false","0.2,0.8","nogo_b","",""
"null","","html-keyboard-response","175","699911","0.0-4.0-1.45","","<img src=""img/orange-r.png"" border=""10"">","null","trial","null","","0.2,0.8","nogo_b","1",""
"null","","html-keyboard-response","176","700913","0.0-4.0-2.45","","<div style=""font-size:60px;"">+</div>","null","","","","","","",""
"671.9799998681992","","image-keyboard-response","177","701586","0.0-4.0-0.46","","img/orange.png","32","trial","null","false","0.2,0.8","nogo_b","",""
"null","","html-keyboard-response","178","702591","0.0-4.0-1.46","","<img src=""img/orange-n.png"" border=""10"">","null","trial","null","","0.2,0.8","nogo_b","0",""
"null","","html-keyboard-response","179","703595","0.0-4.0-2.46","","<div style=""font-size:60px;"">+</div>","null","","","","","","",""
"null","","image-keyboard-response","180","705100","0.0-4.0-0.47","","img/grey.png","null","trial","32","false","0.8,0.2","go_a","",""
"null","","html-keyboard-response","181","706104","0.0-4.0-1.47","","<img src=""img/grey-n.png"">","null","trial","32","","0.8,0.2","go_a","0",""
"null","","html-keyboard-response","182","707107","0.0-4.0-2.47","","<div style=""font-size:60px;"">+</div>","null","","","","","","",""
"null","","image-keyboard-response","183","708611","0.0-4.0-0.48","","img/grey.png","null","trial","32","false","0.8,0.2","go_a","",""
"null","","html-keyboard-response","184","709617","0.0-4.0-1.48","","<img src=""img/grey-n.png"">","null","trial","32","","0.8,0.2","go_a","0",""
"null","","html-keyboard-response","185","710620","0.0-4.0-2.48","","<div style=""font-size:60px;"">+</div>","null","","","","","","",""
"708.5349999833852","","image-keyboard-response","186","711329","0.0-4.0-0.49","","img/orange.png","32","trial","null","false","0.2,0.8","nogo_b","",""
"null","","html-keyboard-response","187","712332","0.0-4.0-1.49","","<img src=""img/orange-n.png"" border=""10"">","null","trial","null","","0.2,0.8","nogo_b","0",""
"null","","html-keyboard-response","188","713335","0.0-4.0-2.49","","<div style=""font-size:60px;"">+</div>","null","","","","","","",""
"null","","image-keyboard-response","189","714837","0.0-4.0-0.50","","img/grey.png","null","trial","32","false","0.8,0.2","go_a","",""
"null","","html-keyboard-response","190","715843","0.0-4.0-1.50","","<img src=""img/grey-n.png"">","null","trial","32","","0.8,0.2","go_a","0",""
"null","","html-keyboard-response","191","716846","0.0-4.0-2.50","","<div style=""font-size:60px;"">+</div>","null","","","","","","",""
"714.6250000223517","","image-keyboard-response","192","717561","0.0-4.0-0.51","","img/orange.png","32","trial","null","false","0.2,0.8","nogo_b","",""
"null","","html-keyboard-response","193","718565","0.0-4.0-1.51","","<img src=""img/orange-r.png"" border=""10"">","null","trial","null","","0.2,0.8","nogo_b","1",""
"null","","html-keyboard-response","194","719569","0.0-4.0-2.51","","<div style=""font-size:60px;"">+</div>","null","","","","","","",""
"781.6099999472499","","image-keyboard-response","195","720351","0.0-4.0-0.52","","img/grey.png","32","trial","32","true","0.8,0.2","go_a","",""
"null","","html-keyboard-response","196","721357","0.0-4.0-1.52","","<img src=""img/grey-n.png"" border=""10"">","null","trial","32","","0.8,0.2","go_a","0",""
"null","","html-keyboard-response","197","722360","0.0-4.0-2.52","","<div style=""font-size:60px;"">+</div>","null","","","","","","",""
"780.4749999195337","","image-keyboard-response","198","723141","0.0-4.0-0.53","","img/orange.png","32","trial","null","false","0.2,0.8","nogo_b","",""
"null","","html-keyboard-response","199","724146","0.0-4.0-1.53","","<img src=""img/orange-n.png"" border=""10"">","null","trial","null","","0.2,0.8","nogo_b","0",""
"null","","html-keyboard-response","200","725147","0.0-4.0-2.53","","<div style=""font-size:60px;"">+</div>","null","","","","","","",""
"null","","image-keyboard-response","201","726648","0.0-4.0-0.54","","img/grey.png","null","trial","32","false","0.8,0.2","go_a","",""
"null","","html-keyboard-response","202","727649","0.0-4.0-1.54","","<img src=""img/grey-n.png"">","null","trial","32","","0.8,0.2","go_a","0",""
"null","","html-keyboard-response","203","728653","0.0-4.0-2.54","","<div style=""font-size:60px;"">+</div>","null","","","","","","",""
"798.7949999514967","","image-keyboard-response","204","729452","0.0-4.0-0.55","","img/orange.png","32","trial","null","false","0.2,0.8","nogo_b","",""
"null","","html-keyboard-response","205","730458","0.0-4.0-1.55","","<img src=""img/orange-n.png"" border=""10"">","null","trial","null","","0.2,0.8","nogo_b","0",""
"null","","html-keyboard-response","206","731462","0.0-4.0-2.55","","<div style=""font-size:60px;"">+</div>","null","","","","","","",""
"847.9499998502433","","image-keyboard-response","207","732310","0.0-4.0-0.56","","img/orange.png","32","trial","null","false","0.2,0.8","nogo_b","",""
"null","","html-keyboard-response","208","733312","0.0-4.0-1.56","","<img src=""img/orange-n.png"" border=""10"">","null","trial","null","","0.2,0.8","nogo_b","0",""
"null","","html-keyboard-response","209","734315","0.0-4.0-2.56","","<div style=""font-size:60px;"">+</div>","null","","","","","","",""
"null","","image-keyboard-response","210","735817","0.0-4.0-0.57","","img/grey.png","null","trial","32","false","0.8,0.2","go_a","",""
"null","","html-keyboard-response","211","736822","0.0-4.0-1.57","","<img src=""img/grey-n.png"">","null","trial","32","","0.8,0.2","go_a","0",""
"null","","html-keyboard-response","212","737825","0.0-4.0-2.57","","<div style=""font-size:60px;"">+</div>","null","","","","","","",""
"817.9849998559803","","image-keyboard-response","213","738644","0.0-4.0-0.58","","img/orange.png","32","trial","null","false","0.2,0.8","nogo_b","",""
"null","","html-keyboard-response","214","739647","0.0-4.0-1.58","","<img src=""img/orange-n.png"" border=""10"">","null","trial","null","","0.2,0.8","nogo_b","0",""
"null","","html-keyboard-response","215","740648","0.0-4.0-2.58","","<div style=""font-size:60px;"">+</div>","null","","","","","","",""
"null","","image-keyboard-response","216","742152","0.0-4.0-0.59","","img/grey.png","null","trial","32","false","0.8,0.2","go_a","",""
"null","","html-keyboard-response","217","743157","0.0-4.0-1.59","","<img src=""img/grey-n.png"">","null","trial","32","","0.8,0.2","go_a","0",""
"null","","html-keyboard-response","218","744160","0.0-4.0-2.59","","<div style=""font-size:60px;"">+</div>","null","","","","","","",""
"2551.3949999585748","","instructions","219","746712","0.0-5.0","[{""page_index"":0,""viewing_time"":2551.1249999981374}]","","","","","","","","",""
"1010.0449998863041","","image-keyboard-response","220","747723","0.0-6.0-0.0","","img/green.png","32","trial","32","true","0.6,0.4","go_a","",""
"null","","html-keyboard-response","221","748727","0.0-6.0-1.0","","<img src=""img/green-n.png"" border=""10"">","null","trial","32","","0.6,0.4","go_a","0",""
"null","","html-keyboard-response","222","749729","0.0-6.0-2.0","","<div style=""font-size:60px;"">+</div>","null","","","","","","",""
"1120.4800000414252","","image-keyboard-response","223","750850","0.0-6.0-0.1","","img/purple.png","32","trial","null","false","0.4,0.6","nogo_d","",""
"null","","html-keyboard-response","224","751855","0.0-6.0-1.1","","<img src=""img/purple-r.png"" border=""10"">","null","trial","null","","0.4,0.6","nogo_d","1",""
"null","","html-keyboard-response","225","752858","0.0-6.0-2.1","","<div style=""font-size:60px;"">+</div>","null","","","","","","",""
"null","","image-keyboard-response","226","754364","0.0-6.0-0.2","","img/red.png","null","trial","null","true","0.4,0.6","nogo_b","",""
"null","","html-keyboard-response","227","755368","0.0-6.0-1.2","","<img src=""img/red-n.png"">","null","trial","null","","0.4,0.6","nogo_b","0",""
"null","","html-keyboard-response","228","756371","0.0-6.0-2.2","","<div style=""font-size:60px;"">+</div>","null","","","","","","",""
"1116.260000038892","","image-keyboard-response","229","757488","0.0-6.0-0.3","","img/yellow.png","32","trial","32","true","0.6,0.4","go_c","",""
"null","","html-keyboard-response","230","758489","0.0-6.0-1.3","","<img src=""img/yellow-r.png"" border=""10"">","null","trial","32","","0.6,0.4","go_c","1",""
"null","","html-keyboard-response","231","759495","0.0-6.0-2.3","","<div style=""font-size:60px;"">+</div>","null","","","","","","",""
"805.129999993369","","image-keyboard-response","232","760301","0.0-6.0-0.4","","img/purple.png","32","trial","null","false","0.4,0.6","nogo_d","",""
"null","","html-keyboard-response","233","761307","0.0-6.0-1.4","","<img src=""img/purple-r.png"" border=""10"">","null","trial","null","","0.4,0.6","nogo_d","1",""
"null","","html-keyboard-response","234","762310","0.0-6.0-2.4","","<div style=""font-size:60px;"">+</div>","null","","","","","","",""
"null","","image-keyboard-response","235","763816","0.0-6.0-0.5","","img/red.png","null","trial","null","true","0.4,0.6","nogo_b","",""
"null","","html-keyboard-response","236","764821","0.0-6.0-1.5","","<img src=""img/red-n.png"">","null","trial","null","","0.4,0.6","nogo_b","0",""
"null","","html-keyboard-response","237","765822","0.0-6.0-2.5","","<div style=""font-size:60px;"">+</div>","null","","","","","","",""
"711.1999997869134","","image-keyboard-response","238","766533","0.0-6.0-0.6","","img/yellow.png","32","trial","32","true","0.6,0.4","go_c","",""
"null","","html-keyboard-response","239","767539","0.0-6.0-1.6","","<img src=""img/yellow-r.png"" border=""10"">","null","trial","32","","0.6,0.4","go_c","1",""
"null","","html-keyboard-response","240","768542","0.0-6.0-2.6","","<div style=""font-size:60px;"">+</div>","null","","","","","","",""
"null","","image-keyboard-response","241","770043","0.0-6.0-0.7","","img/green.png","null","trial","32","false","0.6,0.4","go_a","",""
"null","","html-keyboard-response","242","771049","0.0-6.0-1.7","","<img src=""img/green-r.png"">","null","trial","32","","0.6,0.4","go_a","1",""
"null","","html-keyboard-response","243","772052","0.0-6.0-2.7","","<div style=""font-size:60px;"">+</div>","null","","","","","","",""
"null","","image-keyboard-response","244","773555","0.0-6.0-0.8","","img/red.png","null","trial","null","true","0.4,0.6","nogo_b","",""
"null","","html-keyboard-response","245","774560","0.0-6.0-1.8","","<img src=""img/red-n.png"">","null","trial","null","","0.4,0.6","nogo_b","0",""
"null","","html-keyboard-response","246","775564","0.0-6.0-2.8","","<div style=""font-size:60px;"">+</div>","null","","","","","","",""
"58.66499990224838","","image-keyboard-response","247","775623","0.0-6.0-0.9","","img/green.png","32","trial","32","true","0.6,0.4","go_a","",""
"null","","html-keyboard-response","248","776628","0.0-6.0-1.9","","<img src=""img/green-r.png"" border=""10"">","null","trial","32","","0.6,0.4","go_a","1",""
"null","","html-keyboard-response","249","777630","0.0-6.0-2.9","","<div style=""font-size:60px;"">+</div>","null","","","","","","",""
"null","","image-keyboard-response","250","779132","0.0-6.0-0.10","","img/purple.png","null","trial","null","true","0.4,0.6","nogo_d","",""
"null","","html-keyboard-response","251","780138","0.0-6.0-1.10","","<img src=""img/purple-r.png"">","null","trial","null","","0.4,0.6","nogo_d","1",""
"null","","html-keyboard-response","252","781141","0.0-6.0-2.10","","<div style=""font-size:60px;"">+</div>","null","","","","","","",""
"815.3350001666695","","image-keyboard-response","253","781957","0.0-6.0-0.11","","img/yellow.png","32","trial","32","true","0.6,0.4","go_c","",""
"null","","html-keyboard-response","254","782959","0.0-6.0-1.11","","<img src=""img/yellow-r.png"" border=""10"">","null","trial","32","","0.6,0.4","go_c","1",""
"null","","html-keyboard-response","255","783962","0.0-6.0-2.11","","<div style=""font-size:60px;"">+</div>","null","","","","","","",""
"null","","image-keyboard-response","256","785466","0.0-6.0-0.12","","img/purple.png","null","trial","null","true","0.4,0.6","nogo_d","",""
"null","","html-keyboard-response","257","786471","0.0-6.0-1.12","","<img src=""img/purple-r.png"">","null","trial","null","","0.4,0.6","nogo_d","1",""
"null","","html-keyboard-response","258","787474","0.0-6.0-2.12","","<div style=""font-size:60px;"">+</div>","null","","","","","","",""
"null","","image-keyboard-response","259","788978","0.0-6.0-0.13","","img/red.png","null","trial","null","true","0.4,0.6","nogo_b","",""
"null","","html-keyboard-response","260","789980","0.0-6.0-1.13","","<img src=""img/red-r.png"">","null","trial","null","","0.4,0.6","nogo_b","1",""
"null","","html-keyboard-response","261","790985","0.0-6.0-2.13","","<div style=""font-size:60px;"">+</div>","null","","","","","","",""
"725.414999993518","","image-keyboard-response","262","791711","0.0-6.0-0.14","","img/green.png","32","trial","32","true","0.6,0.4","go_a","",""
"null","","html-keyboard-response","263","792714","0.0-6.0-1.14","","<img src=""img/green-r.png"" border=""10"">","null","trial","32","","0.6,0.4","go_a","1",""
"null","","html-keyboard-response","264","793717","0.0-6.0-2.14","","<div style=""font-size:60px;"">+</div>","null","","","","","","",""
"693.4700000565499","","image-keyboard-response","265","794411","0.0-6.0-0.15","","img/yellow.png","32","trial","32","true","0.6,0.4","go_c","",""
"null","","html-keyboard-response","266","795413","0.0-6.0-1.15","","<img src=""img/yellow-r.png"" border=""10"">","null","trial","32","","0.6,0.4","go_c","1",""
"null","","html-keyboard-response","267","796415","0.0-6.0-2.15","","<div style=""font-size:60px;"">+</div>","null","","","","","","",""
"706.7200001329184","","image-keyboard-response","268","797122","0.0-6.0-0.16","","img/green.png","32","trial","32","true","0.6,0.4","go_a","",""
"null","","html-keyboard-response","269","798124","0.0-6.0-1.16","","<img src=""img/green-r.png"" border=""10"">","null","trial","32","","0.6,0.4","go_a","1",""
"null","","html-keyboard-response","270","799127","0.0-6.0-2.16","","<div style=""font-size:60px;"">+</div>","null","","","","","","",""
"750.7499998901039","","image-keyboard-response","271","799879","0.0-6.0-0.17","","img/yellow.png","32","trial","32","true","0.6,0.4","go_c","",""
"null","","html-keyboard-response","272","800881","0.0-6.0-1.17","","<img src=""img/yellow-r.png"" border=""10"">","null","trial","32","","0.6,0.4","go_c","1",""
"null","","html-keyboard-response","273","801883","0.0-6.0-2.17","","<div style=""font-size:60px;"">+</div>","null","","","","","","",""
"728.59499999322","","image-keyboard-response","274","802612","0.0-6.0-0.18","","img/red.png","32","trial","null","false","0.4,0.6","nogo_b","",""
"null","","html-keyboard-response","275","803614","0.0-6.0-1.18","","<img src=""img/red-r.png"" border=""10"">","null","trial","null","","0.4,0.6","nogo_b","1",""
"null","","html-keyboard-response","276","804617","0.0-6.0-2.18","","<div style=""font-size:60px;"">+</div>","null","","","","","","",""
"683.6600000970066","","image-keyboard-response","277","805301","0.0-6.0-0.19","","img/purple.png","32","trial","null","false","0.4,0.6","nogo_d","",""
"null","","html-keyboard-response","278","806307","0.0-6.0-1.19","","<img src=""img/purple-r.png"" border=""10"">","null","trial","null","","0.4,0.6","nogo_d","1",""
"null","","html-keyboard-response","279","807310","0.0-6.0-2.19","","<div style=""font-size:60px;"">+</div>","null","","","","","","",""
"668.5299999080598","","image-keyboard-response","280","807979","0.0-6.0-0.20","","img/green.png","32","trial","32","true","0.6,0.4","go_a","",""
"null","","html-keyboard-response","281","808982","0.0-6.0-1.20","","<img src=""img/green-r.png"" border=""10"">","null","trial","32","","0.6,0.4","go_a","1",""
"null","","html-keyboard-response","282","809985","0.0-6.0-2.20","","<div style=""font-size:60px;"">+</div>","null","","","","","","",""
"670.7150000147521","","image-keyboard-response","283","810656","0.0-6.0-0.21","","img/red.png","32","trial","null","false","0.4,0.6","nogo_b","",""
"null","","html-keyboard-response","284","811659","0.0-6.0-1.21","","<img src=""img/red-r.png"" border=""10"">","null","trial","null","","0.4,0.6","nogo_b","1",""
"null","","html-keyboard-response","285","812663","0.0-6.0-2.21","","<div style=""font-size:60px;"">+</div>","null","","","","","","",""
"648.0000000447035","","image-keyboard-response","286","813311","0.0-6.0-0.22","","img/purple.png","32","trial","null","false","0.4,0.6","nogo_d","",""
"null","","html-keyboard-response","287","814313","0.0-6.0-1.22","","<img src=""img/purple-r.png"" border=""10"">","null","trial","null","","0.4,0.6","nogo_d","1",""
"null","","html-keyboard-response","288","815317","0.0-6.0-2.22","","<div style=""font-size:60px;"">+</div>","null","","","","","","",""
"761.9549999944866","","image-keyboard-response","289","816079","0.0-6.0-0.23","","img/yellow.png","32","trial","32","true","0.6,0.4","go_c","",""
"null","","html-keyboard-response","290","817081","0.0-6.0-1.23","","<img src=""img/yellow-n.png"" border=""10"">","null","trial","32","","0.6,0.4","go_c","0",""
"null","","html-keyboard-response","291","818087","0.0-6.0-2.23","","<div style=""font-size:60px;"">+</div>","null","","","","","","",""
"657.8199998475611","","image-keyboard-response","292","818745","0.0-6.0-0.24","","img/purple.png","32","trial","null","false","0.4,0.6","nogo_d","",""
"null","","html-keyboard-response","293","819747","0.0-6.0-1.24","","<img src=""img/purple-r.png"" border=""10"">","null","trial","null","","0.4,0.6","nogo_d","1",""
"null","","html-keyboard-response","294","820751","0.0-6.0-2.24","","<div style=""font-size:60px;"">+</div>","null","","","","","","",""
"null","","image-keyboard-response","295","822255","0.0-6.0-0.25","","img/yellow.png","null","trial","32","false","0.6,0.4","go_c","",""
"null","","html-keyboard-response","296","823260","0.0-6.0-1.25","","<img src=""img/yellow-r.png"">","null","trial","32","","0.6,0.4","go_c","1",""
"null","","html-keyboard-response","297","824264","0.0-6.0-2.25","","<div style=""font-size:60px;"">+</div>","null","","","","","","",""
"781.0599999502301","","image-keyboard-response","298","825045","0.0-6.0-0.26","","img/green.png","32","trial","32","true","0.6,0.4","go_a","",""
"null","","html-keyboard-response","299","826047","0.0-6.0-1.26","","<img src=""img/green-n.png"" border=""10"">","null","trial","32","","0.6,0.4","go_a","0",""
"null","","html-keyboard-response","300","827051","0.0-6.0-2.26","","<div style=""font-size:60px;"">+</div>","null","","","","","","",""
"728.0500000342727","","image-keyboard-response","301","827779","0.0-6.0-0.27","","img/red.png","32","trial","null","false","0.4,0.6","nogo_b","",""
"null","","html-keyboard-response","302","828785","0.0-6.0-1.27","","<img src=""img/red-n.png"" border=""10"">","null","trial","null","","0.4,0.6","nogo_b","0",""
"null","","html-keyboard-response","303","829789","0.0-6.0-2.27","","<div style=""font-size:60px;"">+</div>","null","","","","","","",""
"null","","image-keyboard-response","304","831290","0.0-6.0-0.28","","img/green.png","null","trial","32","false","0.6,0.4","go_a","",""
"null","","html-keyboard-response","305","832296","0.0-6.0-1.28","","<img src=""img/green-r.png"">","null","trial","32","","0.6,0.4","go_a","1",""
"null","","html-keyboard-response","306","833296","0.0-6.0-2.28","","<div style=""font-size:60px;"">+</div>","null","","","","","","",""
"771.0500000976026","","image-keyboard-response","307","834068","0.0-6.0-0.29","","img/yellow.png","32","trial","32","true","0.6,0.4","go_c","",""
"null","","html-keyboard-response","308","835073","0.0-6.0-1.29","","<img src=""img/yellow-r.png"" border=""10"">","null","trial","32","","0.6,0.4","go_c","1",""
"null","","html-keyboard-response","309","836076","0.0-6.0-2.29","","<div style=""font-size:60px;"">+</div>","null","","","","","","",""
"657.4999999720603","","image-keyboard-response","310","836734","0.0-6.0-0.30","","img/red.png","32","trial","null","false","0.4,0.6","nogo_b","",""
"null","","html-keyboard-response","311","837736","0.0-6.0-1.30","","<img src=""img/red-r.png"" border=""10"">","null","trial","null","","0.4,0.6","nogo_b","1",""
"null","","html-keyboard-response","312","838740","0.0-6.0-2.30","","<div style=""font-size:60px;"">+</div>","null","","","","","","",""
"615.4549999628216","","image-keyboard-response","313","839356","0.0-6.0-0.31","","img/purple.png","32","trial","null","false","0.4,0.6","nogo_d","",""
"null","","html-keyboard-response","314","840359","0.0-6.0-1.31","","<img src=""img/purple-r.png"" border=""10"">","null","trial","null","","0.4,0.6","nogo_d","1",""
"null","","html-keyboard-response","315","841363","0.0-6.0-2.31","","<div style=""font-size:60px;"">+</div>","null","","","","","","",""
"591.9699999503791","","image-keyboard-response","316","841955","0.0-6.0-0.32","","img/yellow.png","32","trial","32","true","0.6,0.4","go_c","",""
"null","","html-keyboard-response","317","842960","0.0-6.0-1.32","","<img src=""img/yellow-n.png"" border=""10"">","null","trial","32","","0.6,0.4","go_c","0",""
"null","","html-keyboard-response","318","843963","0.0-6.0-2.32","","<div style=""font-size:60px;"">+</div>","null","","","","","","",""
"949.640000006184","","image-keyboard-response","319","844913","0.0-6.0-0.33","","img/green.png","32","trial","32","true","0.6,0.4","go_a","",""
"null","","html-keyboard-response","320","845915","0.0-6.0-1.33","","<img src=""img/green-n.png"" border=""10"">","null","trial","32","","0.6,0.4","go_a","0",""
"null","","html-keyboard-response","321","846918","0.0-6.0-2.33","","<div style=""font-size:60px;"">+</div>","null","","","","","","",""
"null","","image-keyboard-response","322","848424","0.0-6.0-0.34","","img/red.png","null","trial","null","true","0.4,0.6","nogo_b","",""
"null","","html-keyboard-response","323","849428","0.0-6.0-1.34","","<img src=""img/red-r.png"">","null","trial","null","","0.4,0.6","nogo_b","1",""
"null","","html-keyboard-response","324","850431","0.0-6.0-2.34","","<div style=""font-size:60px;"">+</div>","null","","","","","","",""
"612.9799999762326","","image-keyboard-response","325","851045","0.0-6.0-0.35","","img/purple.png","32","trial","null","false","0.4,0.6","nogo_d","",""
"null","","html-keyboard-response","326","852050","0.0-6.0-1.35","","<img src=""img/purple-r.png"" border=""10"">","null","trial","null","","0.4,0.6","nogo_d","1",""
"null","","html-keyboard-response","327","853053","0.0-6.0-2.35","","<div style=""font-size:60px;"">+</div>","null","","","","","","",""
"null","","image-keyboard-response","328","854559","0.0-6.0-0.36","","img/yellow.png","null","trial","32","false","0.6,0.4","go_c","",""
"null","","html-keyboard-response","329","855564","0.0-6.0-1.36","","<img src=""img/yellow-n.png"">","null","trial","32","","0.6,0.4","go_c","0",""
"null","","html-keyboard-response","330","856568","0.0-6.0-2.36","","<div style=""font-size:60px;"">+</div>","null","","","","","","",""
"844.1800000146031","","image-keyboard-response","331","857412","0.0-6.0-0.37","","img/red.png","32","trial","null","false","0.4,0.6","nogo_b","",""
"null","","html-keyboard-response","332","858413","0.0-6.0-1.37","","<img src=""img/red-r.png"" border=""10"">","null","trial","null","","0.4,0.6","nogo_b","1",""
"null","","html-keyboard-response","333","859417","0.0-6.0-2.37","","<div style=""font-size:60px;"">+</div>","null","","","","","","",""
"773.9299999084324","","image-keyboard-response","334","860191","0.0-6.0-0.38","","img/purple.png","32","trial","null","false","0.4,0.6","nogo_d","",""
"null","","html-keyboard-response","335","861192","0.0-6.0-1.38","","<img src=""img/purple-n.png"" border=""10"">","null","trial","null","","0.4,0.6","nogo_d","0",""
"null","","html-keyboard-response","336","862196","0.0-6.0-2.38","","<div style=""font-size:60px;"">+</div>","null","","","","","","",""
"841.370000038296","","image-keyboard-response","337","863038","0.0-6.0-0.39","","img/green.png","32","trial","32","true","0.6,0.4","go_a","",""
"null","","html-keyboard-response","338","864040","0.0-6.0-1.39","","<img src=""img/green-n.png"" border=""10"">","null","trial","32","","0.6,0.4","go_a","0",""
"null","","html-keyboard-response","339","865043","0.0-6.0-2.39","","<div style=""font-size:60px;"">+</div>","null","","","","","","",""
"null","","image-keyboard-response","340","866547","0.0-6.0-0.40","","img/yellow.png","null","trial","32","false","0.6,0.4","go_c","",""
"null","","html-keyboard-response","341","867553","0.0-6.0-1.40","","<img src=""img/yellow-n.png"">","null","trial","32","","0.6,0.4","go_c","0",""
"null","","html-keyboard-response","342","868556","0.0-6.0-2.40","","<div style=""font-size:60px;"">+</div>","null","","","","","","",""
"null","","image-keyboard-response","343","870057","0.0-6.0-0.41","","img/purple.png","null","trial","null","true","0.4,0.6","nogo_d","",""
"null","","html-keyboard-response","344","871062","0.0-6.0-1.41","","<img src=""img/purple-r.png"">","null","trial","null","","0.4,0.6","nogo_d","1",""
"null","","html-keyboard-response","345","872065","0.0-6.0-2.41","","<div style=""font-size:60px;"">+</div>","null","","","","","","",""
"782.0749999955297","","image-keyboard-response","346","872848","0.0-6.0-0.42","","img/green.png","32","trial","32","true","0.6,0.4","go_a","",""
"null","","html-keyboard-response","347","873852","0.0-6.0-1.42","","<img src=""img/green-r.png"" border=""10"">","null","trial","32","","0.6,0.4","go_a","1",""
"null","","html-keyboard-response","348","874855","0.0-6.0-2.42","","<div style=""font-size:60px;"">+</div>","null","","","","","","",""
"1468.055000063032","","image-keyboard-response","349","876324","0.0-6.0-0.43","","img/red.png","32","trial","null","false","0.4,0.6","nogo_b","",""
"null","","html-keyboard-response","350","877326","0.0-6.0-1.43","","<img src=""img/red-r.png"" border=""10"">","null","trial","null","","0.4,0.6","nogo_b","1",""
"null","","html-keyboard-response","351","878330","0.0-6.0-2.43","","<div style=""font-size:60px;"">+</div>","null","","","","","","",""
"783.7800001725554","","image-keyboard-response","352","879114","0.0-6.0-0.44","","img/red.png","32","trial","null","false","0.4,0.6","nogo_b","",""
"null","","html-keyboard-response","353","880116","0.0-6.0-1.44","","<img src=""img/red-n.png"" border=""10"">","null","trial","null","","0.4,0.6","nogo_b","0",""
"null","","html-keyboard-response","354","881121","0.0-6.0-2.44","","<div style=""font-size:60px;"">+</div>","null","","","","","","",""
"null","","image-keyboard-response","355","882627","0.0-6.0-0.45","","img/yellow.png","null","trial","32","false","0.6,0.4","go_c","",""
"null","","html-keyboard-response","356","883629","0.0-6.0-1.45","","<img src=""img/yellow-n.png"">","null","trial","32","","0.6,0.4","go_c","0",""
"null","","html-keyboard-response","357","884633","0.0-6.0-2.45","","<div style=""font-size:60px;"">+</div>","null","","","","","","",""
"724.6199999935925","","image-keyboard-response","358","885358","0.0-6.0-0.46","","img/green.png","32","trial","32","true","0.6,0.4","go_a","",""
"null","","html-keyboard-response","359","886362","0.0-6.0-1.46","","<img src=""img/green-n.png"" border=""10"">","null","trial","32","","0.6,0.4","go_a","0",""
"null","","html-keyboard-response","360","887365","0.0-6.0-2.46","","<div style=""font-size:60px;"">+</div>","null","","","","","","",""
"602.3399999830872","","image-keyboard-response","361","887968","0.0-6.0-0.47","","img/purple.png","32","trial","null","false","0.4,0.6","nogo_d","",""
"null","","html-keyboard-response","362","888971","0.0-6.0-1.47","","<img src=""img/purple-n.png"" border=""10"">","null","trial","null","","0.4,0.6","nogo_d","0",""
"null","","html-keyboard-response","363","889974","0.0-6.0-2.47","","<div style=""font-size:60px;"">+</div>","null","","","","","","",""
"null","","image-keyboard-response","364","891479","0.0-6.0-0.48","","img/yellow.png","null","trial","32","false","0.6,0.4","go_c","",""
"null","","html-keyboard-response","365","892484","0.0-6.0-1.48","","<img src=""img/yellow-n.png"">","null","trial","32","","0.6,0.4","go_c","0",""
"null","","html-keyboard-response","366","893487","0.0-6.0-2.48","","<div style=""font-size:60px;"">+</div>","null","","","","","","",""
"null","","image-keyboard-response","367","894988","0.0-6.0-0.49","","img/green.png","null","trial","32","false","0.6,0.4","go_a","",""
"null","","html-keyboard-response","368","895993","0.0-6.0-1.49","","<img src=""img/green-n.png"">","null","trial","32","","0.6,0.4","go_a","0",""
"null","","html-keyboard-response","369","896997","0.0-6.0-2.49","","<div style=""font-size:60px;"">+</div>","null","","","","","","",""
"758.254999993369","","image-keyboard-response","370","897756","0.0-6.0-0.50","","img/red.png","32","trial","null","false","0.4,0.6","nogo_b","",""
"null","","html-keyboard-response","371","898759","0.0-6.0-1.50","","<img src=""img/red-r.png"" border=""10"">","null","trial","null","","0.4,0.6","nogo_b","1",""
"null","","html-keyboard-response","372","899761","0.0-6.0-2.50","","<div style=""font-size:60px;"">+</div>","null","","","","","","",""
"783.6899999529123","","image-keyboard-response","373","900546","0.0-6.0-0.51","","img/purple.png","32","trial","null","false","0.4,0.6","nogo_d","",""
"null","","html-keyboard-response","374","901547","0.0-6.0-1.51","","<img src=""img/purple-n.png"" border=""10"">","null","trial","null","","0.4,0.6","nogo_d","0",""
"null","","html-keyboard-response","375","902549","0.0-6.0-2.51","","<div style=""font-size:60px;"">+</div>","null","","","","","","",""
"819.3449999671429","","image-keyboard-response","376","903369","0.0-6.0-0.52","","img/red.png","32","trial","null","false","0.4,0.6","nogo_b","",""
"null","","html-keyboard-response","377","904371","0.0-6.0-1.52","","<img src=""img/red-n.png"" border=""10"">","null","trial","null","","0.4,0.6","nogo_b","0",""
"null","","html-keyboard-response","378","905375","0.0-6.0-2.52","","<div style=""font-size:60px;"">+</div>","null","","","","","","",""
"null","","image-keyboard-response","379","906876","0.0-6.0-0.53","","img/purple.png","null","trial","null","true","0.4,0.6","nogo_d","",""
"null","","html-keyboard-response","380","907883","0.0-6.0-1.53","","<img src=""img/purple-n.png"">","null","trial","null","","0.4,0.6","nogo_d","0",""
"null","","html-keyboard-response","381","908886","0.0-6.0-2.53","","<div style=""font-size:60px;"">+</div>","null","","","","","","",""
"null","","image-keyboard-response","382","910392","0.0-6.0-0.54","","img/yellow.png","null","trial","32","false","0.6,0.4","go_c","",""
"null","","html-keyboard-response","383","911397","0.0-6.0-1.54","","<img src=""img/yellow-n.png"">","null","trial","32","","0.6,0.4","go_c","0",""
"null","","html-keyboard-response","384","912400","0.0-6.0-2.54","","<div style=""font-size:60px;"">+</div>","null","","","","","","",""
"null","","image-keyboard-response","385","913901","0.0-6.0-0.55","","img/green.png","null","trial","32","false","0.6,0.4","go_a","",""
"null","","html-keyboard-response","386","914905","0.0-6.0-1.55","","<img src=""img/green-r.png"">","null","trial","32","","0.6,0.4","go_a","1",""
"null","","html-keyboard-response","387","915905","0.0-6.0-2.55","","<div style=""font-size:60px;"">+</div>","null","","","","","","",""
"637.760000070557","","image-keyboard-response","388","916544","0.0-6.0-0.56","","img/green.png","32","trial","32","true","0.6,0.4","go_a","",""
"null","","html-keyboard-response","389","917550","0.0-6.0-1.56","","<img src=""img/green-r.png"" border=""10"">","null","trial","32","","0.6,0.4","go_a","1",""
"null","","html-keyboard-response","390","918553","0.0-6.0-2.56","","<div style=""font-size:60px;"">+</div>","null","","","","","","",""
"null","","image-keyboard-response","391","920056","0.0-6.0-0.57","","img/purple.png","null","trial","null","true","0.4,0.6","nogo_d","",""
"null","","html-keyboard-response","392","921059","0.0-6.0-1.57","","<img src=""img/purple-r.png"">","null","trial","null","","0.4,0.6","nogo_d","1",""
"null","","html-keyboard-response","393","922064","0.0-6.0-2.57","","<div style=""font-size:60px;"">+</div>","null","","","","","","",""
"null","","image-keyboard-response","394","923566","0.0-6.0-0.58","","img/yellow.png","null","trial","32","false","0.6,0.4","go_c","",""
"null","","html-keyboard-response","395","924568","0.0-6.0-1.58","","<img src=""img/yellow-r.png"">","null","trial","32","","0.6,0.4","go_c","1",""
"null","","html-keyboard-response","396","925569","0.0-6.0-2.58","","<div style=""font-size:60px;"">+</div>","null","","","","","","",""
"603.6050000693649","","image-keyboard-response","397","926174","0.0-6.0-0.59","","img/red.png","32","trial","null","false","0.4,0.6","nogo_b","",""
"null","","html-keyboard-response","398","927175","0.0-6.0-1.59","","<img src=""img/red-n.png"" border=""10"">","null","trial","null","","0.4,0.6","nogo_b","0",""
"null","","html-keyboard-response","399","928179","0.0-6.0-2.59","","<div style=""font-size:60px;"">+</div>","null","","","","","","",""
"413.23500010184944","","image-keyboard-response","400","928593","0.0-6.0-0.60","","img/green.png","32","trial","32","true","0.6,0.4","go_a","",""
"null","","html-keyboard-response","401","929595","0.0-6.0-1.60","","<img src=""img/green-n.png"" border=""10"">","null","trial","32","","0.6,0.4","go_a","0",""
"null","","html-keyboard-response","402","930598","0.0-6.0-2.60","","<div style=""font-size:60px;"">+</div>","null","","","","","","",""
"728.0349999200553","","image-keyboard-response","403","931326","0.0-6.0-0.61","","img/yellow.png","32","trial","32","true","0.6,0.4","go_c","",""
"null","","html-keyboard-response","404","932329","0.0-6.0-1.61","","<img src=""img/yellow-r.png"" border=""10"">","null","trial","32","","0.6,0.4","go_c","1",""
"null","","html-keyboard-response","405","933332","0.0-6.0-2.61","","<div style=""font-size:60px;"">+</div>","null","","","","","","",""
"739.0749999321997","","image-keyboard-response","406","934071","0.0-6.0-0.62","","img/red.png","32","trial","null","false","0.4,0.6","nogo_b","",""
"null","","html-keyboard-response","407","935077","0.0-6.0-1.62","","<img src=""img/red-n.png"" border=""10"">","null","trial","null","","0.4,0.6","nogo_b","0",""
"null","","html-keyboard-response","408","936082","0.0-6.0-2.62","","<div style=""font-size:60px;"">+</div>","null","","","","","","",""
"564.9550000671297","","image-keyboard-response","409","936647","0.0-6.0-0.63","","img/purple.png","32","trial","null","false","0.4,0.6","nogo_d","",""
"null","","html-keyboard-response","410","937653","0.0-6.0-1.63","","<img src=""img/purple-n.png"" border=""10"">","null","trial","null","","0.4,0.6","nogo_d","0",""
"null","","html-keyboard-response","411","938657","0.0-6.0-2.63","","<div style=""font-size:60px;"">+</div>","null","","","","","","",""
"656.8100000731647","","image-keyboard-response","412","939314","0.0-6.0-0.64","","img/red.png","32","trial","null","false","0.4,0.6","nogo_b","",""
"null","","html-keyboard-response","413","940316","0.0-6.0-1.64","","<img src=""img/red-n.png"" border=""10"">","null","trial","null","","0.4,0.6","nogo_b","0",""
"null","","html-keyboard-response","414","941320","0.0-6.0-2.64","","<div style=""font-size:60px;"">+</div>","null","","","","","","",""
"null","","image-keyboard-response","415","942826","0.0-6.0-0.65","","img/purple.png","null","trial","null","true","0.4,0.6","nogo_d","",""
"null","","html-keyboard-response","416","943831","0.0-6.0-1.65","","<img src=""img/purple-n.png"">","null","trial","null","","0.4,0.6","nogo_d","0",""
"null","","html-keyboard-response","417","944834","0.0-6.0-2.65","","<div style=""font-size:60px;"">+</div>","null","","","","","","",""
"null","","image-keyboard-response","418","946336","0.0-6.0-0.66","","img/yellow.png","null","trial","32","false","0.6,0.4","go_c","",""
"null","","html-keyboard-response","419","947341","0.0-6.0-1.66","","<img src=""img/yellow-r.png"">","null","trial","32","","0.6,0.4","go_c","1",""
"null","","html-keyboard-response","420","948344","0.0-6.0-2.66","","<div style=""font-size:60px;"">+</div>","null","","","","","","",""
"1026.7700001131743","","image-keyboard-response","421","949372","0.0-6.0-0.67","","img/green.png","32","trial","32","true","0.6,0.4","go_a","",""
"null","","html-keyboard-response","422","950376","0.0-6.0-1.67","","<img src=""img/green-n.png"" border=""10"">","null","trial","32","","0.6,0.4","go_a","0",""
"null","","html-keyboard-response","423","951379","0.0-6.0-2.67","","<div style=""font-size:60px;"">+</div>","null","","","","","","",""
"838.2999999448657","","image-keyboard-response","424","952218","0.0-6.0-0.68","","img/red.png","32","trial","null","false","0.4,0.6","nogo_b","",""
"null","","html-keyboard-response","425","953219","0.0-6.0-1.68","","<img src=""img/red-n.png"" border=""10"">","null","trial","null","","0.4,0.6","nogo_b","0",""
"null","","html-keyboard-response","426","954223","0.0-6.0-2.68","","<div style=""font-size:60px;"">+</div>","null","","","","","","",""
"null","","image-keyboard-response","427","955729","0.0-6.0-0.69","","img/yellow.png","null","trial","32","false","0.6,0.4","go_c","",""
"null","","html-keyboard-response","428","956734","0.0-6.0-1.69","","<img src=""img/yellow-n.png"">","null","trial","32","","0.6,0.4","go_c","0",""
"null","","html-keyboard-response","429","957738","0.0-6.0-2.69","","<div style=""font-size:60px;"">+</div>","null","","","","","","",""
"null","","image-keyboard-response","430","959238","0.0-6.0-0.70","","img/purple.png","null","trial","null","true","0.4,0.6","nogo_d","",""
"null","","html-keyboard-response","431","960242","0.0-6.0-1.70","","<img src=""img/purple-r.png"">","null","trial","null","","0.4,0.6","nogo_d","1",""
"null","","html-keyboard-response","432","961245","0.0-6.0-2.70","","<div style=""font-size:60px;"">+</div>","null","","","","","","",""
"737.5100001227111","","image-keyboard-response","433","961983","0.0-6.0-0.71","","img/green.png","32","trial","32","true","0.6,0.4","go_a","",""
"null","","html-keyboard-response","434","962985","0.0-6.0-1.71","","<img src=""img/green-r.png"" border=""10"">","null","trial","32","","0.6,0.4","go_a","1",""
"null","","html-keyboard-response","435","963986","0.0-6.0-2.71","","<div style=""font-size:60px;"">+</div>","null","","","","","","",""
"null","","image-keyboard-response","436","965487","0.0-6.0-0.72","","img/yellow.png","null","trial","32","false","0.6,0.4","go_c","",""
"null","","html-keyboard-response","437","966493","0.0-6.0-1.72","","<img src=""img/yellow-r.png"">","null","trial","32","","0.6,0.4","go_c","1",""
"null","","html-keyboard-response","438","967496","0.0-6.0-2.72","","<div style=""font-size:60px;"">+</div>","null","","","","","","",""
"854.1250000707805","","image-keyboard-response","439","968351","0.0-6.0-0.73","","img/green.png","32","trial","32","true","0.6,0.4","go_a","",""
"null","","html-keyboard-response","440","969356","0.0-6.0-1.73","","<img src=""img/green-r.png"" border=""10"">","null","trial","32","","0.6,0.4","go_a","1",""
"null","","html-keyboard-response","441","970359","0.0-6.0-2.73","","<div style=""font-size:60px;"">+</div>","null","","","","","","",""
"747.5600000470877","","image-keyboard-response","442","971107","0.0-6.0-0.74","","img/purple.png","32","trial","null","false","0.4,0.6","nogo_d","",""
"null","","html-keyboard-response","443","972112","0.0-6.0-1.74","","<img src=""img/purple-n.png"" border=""10"">","null","trial","null","","0.4,0.6","nogo_d","0",""
"null","","html-keyboard-response","444","973115","0.0-6.0-2.74","","<div style=""font-size:60px;"">+</div>","null","","","","","","",""
"646.1150001268834","","image-keyboard-response","445","973762","0.0-6.0-0.75","","img/red.png","32","trial","null","false","0.4,0.6","nogo_b","",""
"null","","html-keyboard-response","446","974766","0.0-6.0-1.75","","<img src=""img/red-n.png"" border=""10"">","null","trial","null","","0.4,0.6","nogo_b","0",""
"null","","html-keyboard-response","447","975769","0.0-6.0-2.75","","<div style=""font-size:60px;"">+</div>","null","","","","","","",""
"null","","image-keyboard-response","448","977275","0.0-6.0-0.76","","img/purple.png","null","trial","null","true","0.4,0.6","nogo_d","",""
"null","","html-keyboard-response","449","978280","0.0-6.0-1.76","","<img src=""img/purple-r.png"">","null","trial","null","","0.4,0.6","nogo_d","1",""
"null","","html-keyboard-response","450","979283","0.0-6.0-2.76","","<div style=""font-size:60px;"">+</div>","null","","","","","","",""
"710.8000000007451","","image-keyboard-response","451","979995","0.0-6.0-0.77","","img/green.png","32","trial","32","true","0.6,0.4","go_a","",""
"null","","html-keyboard-response","452","981001","0.0-6.0-1.77","","<img src=""img/green-r.png"" border=""10"">","null","trial","32","","0.6,0.4","go_a","1",""
"null","","html-keyboard-response","453","982004","0.0-6.0-2.77","","<div style=""font-size:60px;"">+</div>","null","","","","","","",""
"510.2099999785423","","image-keyboard-response","454","982515","0.0-6.0-0.78","","img/yellow.png","32","trial","32","true","0.6,0.4","go_c","",""
"null","","html-keyboard-response","455","983518","0.0-6.0-1.78","","<img src=""img/yellow-n.png"" border=""10"">","null","trial","32","","0.6,0.4","go_c","0",""
"null","","html-keyboard-response","456","984523","0.0-6.0-2.78","","<div style=""font-size:60px;"">+</div>","null","","","","","","",""
"646.0600001737475","","image-keyboard-response","457","985170","0.0-6.0-0.79","","img/red.png","32","trial","null","false","0.4,0.6","nogo_b","",""
"null","","html-keyboard-response","458","986172","0.0-6.0-1.79","","<img src=""img/red-n.png"" border=""10"">","null","trial","null","","0.4,0.6","nogo_b","0",""
"null","","html-keyboard-response","459","987173","0.0-6.0-2.79","","<div style=""font-size:60px;"">+</div>","null","","","","","","",""
"830.9949999675155","","image-keyboard-response","460","988005","0.0-6.0-0.80","","img/yellow.png","32","trial","32","true","0.6,0.4","go_c","",""
"null","","html-keyboard-response","461","989006","0.0-6.0-1.80","","<img src=""img/yellow-n.png"" border=""10"">","null","trial","32","","0.6,0.4","go_c","0",""
"null","","html-keyboard-response","462","990009","0.0-6.0-2.80","","<div style=""font-size:60px;"">+</div>","null","","","","","","",""
"1347.6700000464916","","image-keyboard-response","463","991357","0.0-6.0-0.81","","img/purple.png","32","trial","null","false","0.4,0.6","nogo_d","",""
"null","","html-keyboard-response","464","992359","0.0-6.0-1.81","","<img src=""img/purple-r.png"" border=""10"">","null","trial","null","","0.4,0.6","nogo_d","1",""
"null","","html-keyboard-response","465","993359","0.0-6.0-2.81","","<div style=""font-size:60px;"">+</div>","null","","","","","","",""
"null","","image-keyboard-response","466","994863","0.0-6.0-0.82","","img/red.png","null","trial","null","true","0.4,0.6","nogo_b","",""
"null","","html-keyboard-response","467","995864","0.0-6.0-1.82","","<img src=""img/red-n.png"">","null","trial","null","","0.4,0.6","nogo_b","0",""
"null","","html-keyboard-response","468","996866","0.0-6.0-2.82","","<div style=""font-size:60px;"">+</div>","null","","","","","","",""
"null","","image-keyboard-response","469","998368","0.0-6.0-0.83","","img/green.png","null","trial","32","false","0.6,0.4","go_a","",""
"null","","html-keyboard-response","470","999373","0.0-6.0-1.83","","<img src=""img/green-n.png"">","null","trial","32","","0.6,0.4","go_a","0",""
"null","","html-keyboard-response","471","1000373","0.0-6.0-2.83","","<div style=""font-size:60px;"">+</div>","null","","","","","","",""
"null","","image-keyboard-response","472","1001875","0.0-6.0-0.84","","img/yellow.png","null","trial","32","false","0.6,0.4","go_c","",""
"null","","html-keyboard-response","473","1002881","0.0-6.0-1.84","","<img src=""img/yellow-n.png"">","null","trial","32","","0.6,0.4","go_c","0",""
"null","","html-keyboard-response","474","1003882","0.0-6.0-2.84","","<div style=""font-size:60px;"">+</div>","null","","","","","","",""
"862.8199999220669","","image-keyboard-response","475","1004745","0.0-6.0-0.85","","img/purple.png","32","trial","null","false","0.4,0.6","nogo_d","",""
"null","","html-keyboard-response","476","1005747","0.0-6.0-1.85","","<img src=""img/purple-n.png"" border=""10"">","null","trial","null","","0.4,0.6","nogo_d","0",""
"null","","html-keyboard-response","477","1006751","0.0-6.0-2.85","","<div style=""font-size:60px;"">+</div>","null","","","","","","",""
"581.4249999821186","","image-keyboard-response","478","1007333","0.0-6.0-0.86","","img/green.png","32","trial","32","true","0.6,0.4","go_a","",""
"null","","html-keyboard-response","479","1008335","0.0-6.0-1.86","","<img src=""img/green-n.png"" border=""10"">","null","trial","32","","0.6,0.4","go_a","0",""
"null","","html-keyboard-response","480","1009338","0.0-6.0-2.86","","<div style=""font-size:60px;"">+</div>","null","","","","","","",""
"null","","image-keyboard-response","481","1010844","0.0-6.0-0.87","","img/red.png","null","trial","null","true","0.4,0.6","nogo_b","",""
"null","","html-keyboard-response","482","1011849","0.0-6.0-1.87","","<img src=""img/red-n.png"">","null","trial","null","","0.4,0.6","nogo_b","0",""
"null","","html-keyboard-response","483","1012853","0.0-6.0-2.87","","<div style=""font-size:60px;"">+</div>","null","","","","","","",""
"null","","image-keyboard-response","484","1014354","0.0-6.0-0.88","","img/purple.png","null","trial","null","true","0.4,0.6","nogo_d","",""
"null","","html-keyboard-response","485","1015359","0.0-6.0-1.88","","<img src=""img/purple-r.png"">","null","trial","null","","0.4,0.6","nogo_d","1",""
"null","","html-keyboard-response","486","1016362","0.0-6.0-2.88","","<div style=""font-size:60px;"">+</div>","null","","","","","","",""
"null","","image-keyboard-response","487","1017866","0.0-6.0-0.89","","img/red.png","null","trial","null","true","0.4,0.6","nogo_b","",""
"null","","html-keyboard-response","488","1018869","0.0-6.0-1.89","","<img src=""img/red-r.png"">","null","trial","null","","0.4,0.6","nogo_b","1",""
"null","","html-keyboard-response","489","1019872","0.0-6.0-2.89","","<div style=""font-size:60px;"">+</div>","null","","","","","","",""
"881.8900000769645","","image-keyboard-response","490","1020754","0.0-6.0-0.90","","img/yellow.png","32","trial","32","true","0.6,0.4","go_c","",""
"null","","html-keyboard-response","491","1021760","0.0-6.0-1.90","","<img src=""img/yellow-r.png"" border=""10"">","null","trial","32","","0.6,0.4","go_c","1",""
"null","","html-keyboard-response","492","1022764","0.0-6.0-2.90","","<div style=""font-size:60px;"">+</div>","null","","","","","","",""
"734.8700000438839","","image-keyboard-response","493","1023499","0.0-6.0-0.91","","img/green.png","32","trial","32","true","0.6,0.4","go_a","",""
"null","","html-keyboard-response","494","1024504","0.0-6.0-1.91","","<img src=""img/green-n.png"" border=""10"">","null","trial","32","","0.6,0.4","go_a","0",""
"null","","html-keyboard-response","495","1025505","0.0-6.0-2.91","","<div style=""font-size:60px;"">+</div>","null","","","","","","",""
"660.0049999542534","","image-keyboard-response","496","1026165","0.0-6.0-0.92","","img/green.png","32","trial","32","true","0.6,0.4","go_a","",""
"null","","html-keyboard-response","497","1027166","0.0-6.0-1.92","","<img src=""img/green-n.png"" border=""10"">","null","trial","32","","0.6,0.4","go_a","0",""
"null","","html-keyboard-response","498","1028170","0.0-6.0-2.92","","<div style=""font-size:60px;"">+</div>","null","","","","","","",""
"null","","image-keyboard-response","499","1029675","0.0-6.0-0.93","","img/red.png","null","trial","null","true","0.4,0.6","nogo_b","",""
"null","","html-keyboard-response","500","1030680","0.0-6.0-1.93","","<img src=""img/red-r.png"">","null","trial","null","","0.4,0.6","nogo_b","1",""
"null","","html-keyboard-response","501","1031683","0.0-6.0-2.93","","<div style=""font-size:60px;"">+</div>","null","","","","","","",""
"747.92500003241","","image-keyboard-response","502","1032432","0.0-6.0-0.94","","img/yellow.png","32","trial","32","true","0.6,0.4","go_c","",""
"null","","html-keyboard-response","503","1033438","0.0-6.0-1.94","","<img src=""img/yellow-r.png"" border=""10"">","null","trial","32","","0.6,0.4","go_c","1",""
"null","","html-keyboard-response","504","1034441","0.0-6.0-2.94","","<div style=""font-size:60px;"">+</div>","null","","","","","","",""
"null","","image-keyboard-response","505","1035946","0.0-6.0-0.95","","img/purple.png","null","trial","null","true","0.4,0.6","nogo_d","",""
"null","","html-keyboard-response","506","1036952","0.0-6.0-1.95","","<img src=""img/purple-n.png"">","null","trial","null","","0.4,0.6","nogo_d","0",""
"null","","html-keyboard-response","507","1037957","0.0-6.0-2.95","","<div style=""font-size:60px;"">+</div>","null","","","","","","",""
"null","","image-keyboard-response","508","1039459","0.0-6.0-0.96","","img/purple.png","null","trial","null","true","0.4,0.6","nogo_d","",""
"null","","html-keyboard-response","509","1040464","0.0-6.0-1.96","","<img src=""img/purple-r.png"">","null","trial","null","","0.4,0.6","nogo_d","1",""
"null","","html-keyboard-response","510","1041466","0.0-6.0-2.96","","<div style=""font-size:60px;"">+</div>","null","","","","","","",""
"888.6500000953674","","image-keyboard-response","511","1042355","0.0-6.0-0.97","","img/red.png","32","trial","null","false","0.4,0.6","nogo_b","",""
"null","","html-keyboard-response","512","1043360","0.0-6.0-1.97","","<img src=""img/red-n.png"" border=""10"">","null","trial","null","","0.4,0.6","nogo_b","0",""
"null","","html-keyboard-response","513","1044363","0.0-6.0-2.97","","<div style=""font-size:60px;"">+</div>","null","","","","","","",""
"1073.945000069216","","image-keyboard-response","514","1045437","0.0-6.0-0.98","","img/yellow.png","32","trial","32","true","0.6,0.4","go_c","",""
"null","","html-keyboard-response","515","1046438","0.0-6.0-1.98","","<img src=""img/yellow-r.png"" border=""10"">","null","trial","32","","0.6,0.4","go_c","1",""
"null","","html-keyboard-response","516","1047441","0.0-6.0-2.98","","<div style=""font-size:60px;"">+</div>","null","","","","","","",""
"583.0149999819696","","image-keyboard-response","517","1048025","0.0-6.0-0.99","","img/green.png","32","trial","32","true","0.6,0.4","go_a","",""
"null","","html-keyboard-response","518","1049030","0.0-6.0-1.99","","<img src=""img/green-r.png"" border=""10"">","null","trial","32","","0.6,0.4","go_a","1",""
"null","","html-keyboard-response","519","1050033","0.0-6.0-2.99","","<div style=""font-size:60px;"">+</div>","null","","","","","","",""
"770.1499999966472","","image-keyboard-response","520","1050803","0.0-6.0-0.100","","img/purple.png","32","trial","null","false","0.4,0.6","nogo_d","",""
"null","","html-keyboard-response","521","1051805","0.0-6.0-1.100","","<img src=""img/purple-n.png"" border=""10"">","null","trial","null","","0.4,0.6","nogo_d","0",""
"null","","html-keyboard-response","522","1052809","0.0-6.0-2.100","","<div style=""font-size:60px;"">+</div>","null","","","","","","",""
"null","","image-keyboard-response","523","1054310","0.0-6.0-0.101","","img/green.png","null","trial","32","false","0.6,0.4","go_a","",""
"null","","html-keyboard-response","524","1055311","0.0-6.0-1.101","","<img src=""img/green-n.png"">","null","trial","32","","0.6,0.4","go_a","0",""
"null","","html-keyboard-response","525","1056316","0.0-6.0-2.101","","<div style=""font-size:60px;"">+</div>","null","","","","","","",""
"528.1249999534339","","image-keyboard-response","526","1056845","0.0-6.0-0.102","","img/red.png","32","trial","null","false","0.4,0.6","nogo_b","",""
"null","","html-keyboard-response","527","1057849","0.0-6.0-1.102","","<img src=""img/red-n.png"" border=""10"">","null","trial","null","","0.4,0.6","nogo_b","0",""
"null","","html-keyboard-response","528","1058854","0.0-6.0-2.102","","<div style=""font-size:60px;"">+</div>","null","","","","","","",""
"893.3699999470264","","image-keyboard-response","529","1059747","0.0-6.0-0.103","","img/yellow.png","32","trial","32","true","0.6,0.4","go_c","",""
"null","","html-keyboard-response","530","1060753","0.0-6.0-1.103","","<img src=""img/yellow-n.png"" border=""10"">","null","trial","32","","0.6,0.4","go_c","0",""
"null","","html-keyboard-response","531","1061756","0.0-6.0-2.103","","<div style=""font-size:60px;"">+</div>","null","","","","","","",""
"1106.6600000485778","","image-keyboard-response","532","1062864","0.0-6.0-0.104","","img/yellow.png","32","trial","32","true","0.6,0.4","go_c","",""
"null","","html-keyboard-response","533","1063868","0.0-6.0-1.104","","<img src=""img/yellow-r.png"" border=""10"">","null","trial","32","","0.6,0.4","go_c","1",""
"null","","html-keyboard-response","534","1064870","0.0-6.0-2.104","","<div style=""font-size:60px;"">+</div>","null","","","","","","",""
"null","","image-keyboard-response","535","1066376","0.0-6.0-0.105","","img/green.png","null","trial","32","false","0.6,0.4","go_a","",""
"null","","html-keyboard-response","536","1067381","0.0-6.0-1.105","","<img src=""img/green-r.png"">","null","trial","32","","0.6,0.4","go_a","1",""
"null","","html-keyboard-response","537","1068386","0.0-6.0-2.105","","<div style=""font-size:60px;"">+</div>","null","","","","","","",""
"698.934999993071","","image-keyboard-response","538","1069085","0.0-6.0-0.106","","img/purple.png","32","trial","null","false","0.4,0.6","nogo_d","",""
"null","","html-keyboard-response","539","1070088","0.0-6.0-1.106","","<img src=""img/purple-r.png"" border=""10"">","null","trial","null","","0.4,0.6","nogo_d","1",""
"null","","html-keyboard-response","540","1071088","0.0-6.0-2.106","","<div style=""font-size:60px;"">+</div>","null","","","","","","",""
"685.2099997922778","","image-keyboard-response","541","1071774","0.0-6.0-0.107","","img/red.png","32","trial","null","false","0.4,0.6","nogo_b","",""
"null","","html-keyboard-response","542","1072778","0.0-6.0-1.107","","<img src=""img/red-n.png"" border=""10"">","null","trial","null","","0.4,0.6","nogo_b","0",""
"null","","html-keyboard-response","543","1073781","0.0-6.0-2.107","","<div style=""font-size:60px;"">+</div>","null","","","","","","",""
"714.8750000633299","","image-keyboard-response","544","1074496","0.0-6.0-0.108","","img/purple.png","32","trial","null","false","0.4,0.6","nogo_d","",""
"null","","html-keyboard-response","545","1075498","0.0-6.0-1.108","","<img src=""img/purple-n.png"" border=""10"">","null","trial","null","","0.4,0.6","nogo_d","0",""
"null","","html-keyboard-response","546","1076502","0.0-6.0-2.108","","<div style=""font-size:60px;"">+</div>","null","","","","","","",""
"null","","image-keyboard-response","547","1078008","0.0-6.0-0.109","","img/green.png","null","trial","32","false","0.6,0.4","go_a","",""
"null","","html-keyboard-response","548","1079013","0.0-6.0-1.109","","<img src=""img/green-n.png"">","null","trial","32","","0.6,0.4","go_a","0",""
"null","","html-keyboard-response","549","1080016","0.0-6.0-2.109","","<div style=""font-size:60px;"">+</div>","null","","","","","","",""
"566.4150000084192","","image-keyboard-response","550","1080583","0.0-6.0-0.110","","img/yellow.png","32","trial","32","true","0.6,0.4","go_c","",""
"null","","html-keyboard-response","551","1081589","0.0-6.0-1.110","","<img src=""img/yellow-n.png"" border=""10"">","null","trial","32","","0.6,0.4","go_c","0",""
"null","","html-keyboard-response","552","1082592","0.0-6.0-2.110","","<div style=""font-size:60px;"">+</div>","null","","","","","","",""
"null","","image-keyboard-response","553","1084098","0.0-6.0-0.111","","img/red.png","null","trial","null","true","0.4,0.6","nogo_b","",""
"null","","html-keyboard-response","554","1085103","0.0-6.0-1.111","","<img src=""img/red-n.png"">","null","trial","null","","0.4,0.6","nogo_b","0",""
"null","","html-keyboard-response","555","1086107","0.0-6.0-2.111","","<div style=""font-size:60px;"">+</div>","null","","","","","","",""
"865.7200001180172","","image-keyboard-response","556","1086973","0.0-6.0-0.112","","img/purple.png","32","trial","null","false","0.4,0.6","nogo_d","",""
"null","","html-keyboard-response","557","1087975","0.0-6.0-1.112","","<img src=""img/purple-r.png"" border=""10"">","null","trial","null","","0.4,0.6","nogo_d","1",""
"null","","html-keyboard-response","558","1088978","0.0-6.0-2.112","","<div style=""font-size:60px;"">+</div>","null","","","","","","",""
"null","","image-keyboard-response","559","1090481","0.0-6.0-0.113","","img/red.png","null","trial","null","true","0.4,0.6","nogo_b","",""
"null","","html-keyboard-response","560","1091486","0.0-6.0-1.113","","<img src=""img/red-n.png"">","null","trial","null","","0.4,0.6","nogo_b","0",""
"null","","html-keyboard-response","561","1092487","0.0-6.0-2.113","","<div style=""font-size:60px;"">+</div>","null","","","","","","",""
"null","","image-keyboard-response","562","1093992","0.0-6.0-0.114","","img/yellow.png","null","trial","32","false","0.6,0.4","go_c","",""
"null","","html-keyboard-response","563","1094998","0.0-6.0-1.114","","<img src=""img/yellow-n.png"">","null","trial","32","","0.6,0.4","go_c","0",""
"null","","html-keyboard-response","564","1096001","0.0-6.0-2.114","","<div style=""font-size:60px;"">+</div>","null","","","","","","",""
"793.0650000926107","","image-keyboard-response","565","1096795","0.0-6.0-0.115","","img/green.png","32","trial","32","true","0.6,0.4","go_a","",""
"null","","html-keyboard-response","566","1097800","0.0-6.0-1.115","","<img src=""img/green-r.png"" border=""10"">","null","trial","32","","0.6,0.4","go_a","1",""
"null","","html-keyboard-response","567","1098803","0.0-6.0-2.115","","<div style=""font-size:60px;"">+</div>","null","","","","","","",""
"null","","image-keyboard-response","568","1100305","0.0-6.0-0.116","","img/green.png","null","trial","32","false","0.6,0.4","go_a","",""
"null","","html-keyboard-response","569","1101310","0.0-6.0-1.116","","<img src=""img/green-n.png"">","null","trial","32","","0.6,0.4","go_a","0",""
"null","","html-keyboard-response","570","1102310","0.0-6.0-2.116","","<div style=""font-size:60px;"">+</div>","null","","","","","","",""
"693.2999999262393","","image-keyboard-response","571","1103004","0.0-6.0-0.117","","img/red.png","32","trial","null","false","0.4,0.6","nogo_b","",""
"null","","html-keyboard-response","572","1104008","0.0-6.0-1.117","","<img src=""img/red-n.png"" border=""10"">","null","trial","null","","0.4,0.6","nogo_b","0",""
"null","","html-keyboard-response","573","1105013","0.0-6.0-2.117","","<div style=""font-size:60px;"">+</div>","null","","","","","","",""
"712.5550000928342","","image-keyboard-response","574","1105726","0.0-6.0-0.118","","img/purple.png","32","trial","null","false","0.4,0.6","nogo_d","",""
"null","","html-keyboard-response","575","1106730","0.0-6.0-1.118","","<img src=""img/purple-r.png"" border=""10"">","null","trial","null","","0.4,0.6","nogo_d","1",""
"null","","html-keyboard-response","576","1107733","0.0-6.0-2.118","","<div style=""font-size:60px;"">+</div>","null","","","","","","",""
"null","","image-keyboard-response","577","1109236","0.0-6.0-0.119","","img/yellow.png","null","trial","32","false","0.6,0.4","go_c","",""
"null","","html-keyboard-response","578","1110241","0.0-6.0-1.119","","<img src=""img/yellow-r.png"">","null","trial","32","","0.6,0.4","go_c","1",""
"null","","html-keyboard-response","579","1111244","0.0-6.0-2.119","","<div style=""font-size:60px;"">+</div>","null","","","","","","",""
"1806.2649997882545","","instructions","580","1113051","0.0-7.0","[{""page_index"":0,""viewing_time"":1806.089999852702}]","","","","","","","","",""
"1460.4650000110269","","image-keyboard-response","581","1114512","0.0-8.0-0.0","","img/blue.png","32","trial","32","true","0.8,0.2","go_c","",""
"null","","html-keyboard-response","582","1115518","0.0-8.0-1.0","","<img src=""img/blue-n.png"" border=""10"">","null","trial","32","","0.8,0.2","go_c","0",""
"null","","html-keyboard-response","583","1116520","0.0-8.0-2.0","","<div style=""font-size:60px;"">+</div>","null","","","","","","",""
"949.9699999578297","","image-keyboard-response","584","1117471","0.0-8.0-0.1","","img/pink.png","32","trial","32","true","0.8,0.2","go_a","",""
"null","","html-keyboard-response","585","1118473","0.0-8.0-1.1","","<img src=""img/pink-n.png"" border=""10"">","null","trial","32","","0.8,0.2","go_a","0",""
"null","","html-keyboard-response","586","1119477","0.0-8.0-2.1","","<div style=""font-size:60px;"">+</div>","null","","","","","","",""
"918.1150000076741","","image-keyboard-response","587","1120395","0.0-8.0-0.2","","img/red.png","32","trial","null","false","0.2,0.8","nogo_d","",""
"null","","html-keyboard-response","588","1121398","0.0-8.0-1.2","","<img src=""img/red-r.png"" border=""10"">","null","trial","null","","0.2,0.8","nogo_d","1",""
"null","","html-keyboard-response","589","1122401","0.0-8.0-2.2","","<div style=""font-size:60px;"">+</div>","null","","","","","","",""
"974.7599998954684","","image-keyboard-response","590","1123377","0.0-8.0-0.3","","img/yellow.png","32","trial","null","false","0.2,0.8","nogo_b","",""
"null","","html-keyboard-response","591","1124379","0.0-8.0-1.3","","<img src=""img/yellow-r.png"" border=""10"">","null","trial","null","","0.2,0.8","nogo_b","1",""
"null","","html-keyboard-response","592","1125384","0.0-8.0-2.3","","<div style=""font-size:60px;"">+</div>","null","","","","","","",""
"759.7550000064075","","image-keyboard-response","593","1126144","0.0-8.0-0.4","","img/red.png","32","trial","null","false","0.2,0.8","nogo_d","",""
"null","","html-keyboard-response","594","1127145","0.0-8.0-1.4","","<img src=""img/red-n.png"" border=""10"">","null","trial","null","","0.2,0.8","nogo_d","0",""
"null","","html-keyboard-response","595","1128150","0.0-8.0-2.4","","<div style=""font-size:60px;"">+</div>","null","","","","","","",""
"1312.0450000278652","","image-keyboard-response","596","1129463","0.0-8.0-0.5","","img/pink.png","32","trial","32","true","0.8,0.2","go_a","",""
"null","","html-keyboard-response","597","1130464","0.0-8.0-1.5","","<img src=""img/pink-r.png"" border=""10"">","null","trial","32","","0.8,0.2","go_a","1",""
"null","","html-keyboard-response","598","1131469","0.0-8.0-2.5","","<div style=""font-size:60px;"">+</div>","null","","","","","","",""
"861.9600001256913","","image-keyboard-response","599","1132332","0.0-8.0-0.6","","img/blue.png","32","trial","32","true","0.8,0.2","go_c","",""
"null","","html-keyboard-response","600","1133335","0.0-8.0-1.6","","<img src=""img/blue-n.png"" border=""10"">","null","trial","32","","0.8,0.2","go_c","0",""
"null","","html-keyboard-response","601","1134339","0.0-8.0-2.6","","<div style=""font-size:60px;"">+</div>","null","","","","","","",""
"null","","image-keyboard-response","602","1135844","0.0-8.0-0.7","","img/yellow.png","null","trial","null","true","0.2,0.8","nogo_b","",""
"null","","html-keyboard-response","603","1136849","0.0-8.0-1.7","","<img src=""img/yellow-r.png"">","null","trial","null","","0.2,0.8","nogo_b","1",""
"null","","html-keyboard-response","604","1137852","0.0-8.0-2.7","","<div style=""font-size:60px;"">+</div>","null","","","","","","",""
"835.4849999304861","","image-keyboard-response","605","1138688","0.0-8.0-0.8","","img/pink.png","32","trial","32","true","0.8,0.2","go_a","",""
"null","","html-keyboard-response","606","1139692","0.0-8.0-1.8","","<img src=""img/pink-n.png"" border=""10"">","null","trial","32","","0.8,0.2","go_a","0",""
"null","","html-keyboard-response","607","1140695","0.0-8.0-2.8","","<div style=""font-size:60px;"">+</div>","null","","","","","","",""
"691.9650000054389","","image-keyboard-response","608","1141388","0.0-8.0-0.9","","img/blue.png","32","trial","32","true","0.8,0.2","go_c","",""
"null","","html-keyboard-response","609","1142391","0.0-8.0-1.9","","<img src=""img/blue-n.png"" border=""10"">","null","trial","32","","0.8,0.2","go_c","0",""
"null","","html-keyboard-response","610","1143393","0.0-8.0-2.9","","<div style=""font-size:60px;"">+</div>","null","","","","","","",""
"660.39999993518","","image-keyboard-response","611","1144054","0.0-8.0-0.10","","img/red.png","32","trial","null","false","0.2,0.8","nogo_d","",""
"null","","html-keyboard-response","612","1145056","0.0-8.0-1.10","","<img src=""img/red-n.png"" border=""10"">","null","trial","null","","0.2,0.8","nogo_d","0",""
"null","","html-keyboard-response","613","1146061","0.0-8.0-2.10","","<div style=""font-size:60px;"">+</div>","null","","","","","","",""
"703.5300000570714","","image-keyboard-response","614","1146765","0.0-8.0-0.11","","img/yellow.png","32","trial","null","false","0.2,0.8","nogo_b","",""
"null","","html-keyboard-response","615","1147771","0.0-8.0-1.11","","<img src=""img/yellow-n.png"" border=""10"">","null","trial","null","","0.2,0.8","nogo_b","0",""
"null","","html-keyboard-response","616","1148774","0.0-8.0-2.11","","<div style=""font-size:60px;"">+</div>","null","","","","","","",""
"null","","image-keyboard-response","617","1150280","0.0-8.0-0.12","","img/red.png","null","trial","null","true","0.2,0.8","nogo_d","",""
"null","","html-keyboard-response","618","1151285","0.0-8.0-1.12","","<img src=""img/red-n.png"">","null","trial","null","","0.2,0.8","nogo_d","0",""
"null","","html-keyboard-response","619","1152288","0.0-8.0-2.12","","<div style=""font-size:60px;"">+</div>","null","","","","","","",""
"665.5000001192093","","image-keyboard-response","620","1152954","0.0-8.0-0.13","","img/yellow.png","32","trial","null","false","0.2,0.8","nogo_b","",""
"null","","html-keyboard-response","621","1153960","0.0-8.0-1.13","","<img src=""img/yellow-r.png"" border=""10"">","null","trial","null","","0.2,0.8","nogo_b","1",""
"null","","html-keyboard-response","622","1154961","0.0-8.0-2.13","","<div style=""font-size:60px;"">+</div>","null","","","","","","",""
"804.0199999231845","","image-keyboard-response","623","1155765","0.0-8.0-0.14","","img/blue.png","32","trial","32","true","0.8,0.2","go_c","",""
"null","","html-keyboard-response","624","1156771","0.0-8.0-1.14","","<img src=""img/blue-r.png"" border=""10"">","null","trial","32","","0.8,0.2","go_c","1",""
"null","","html-keyboard-response","625","1157774","0.0-8.0-2.14","","<div style=""font-size:60px;"">+</div>","null","","","","","","",""
"634.6449998673052","","image-keyboard-response","626","1158409","0.0-8.0-0.15","","img/pink.png","32","trial","32","true","0.8,0.2","go_a","",""
"null","","html-keyboard-response","627","1159413","0.0-8.0-1.15","","<img src=""img/pink-r.png"" border=""10"">","null","trial","32","","0.8,0.2","go_a","1",""
"null","","html-keyboard-response","628","1160416","0.0-8.0-2.15","","<div style=""font-size:60px;"">+</div>","null","","","","","","",""
"null","","image-keyboard-response","629","1161918","0.0-8.0-0.16","","img/blue.png","null","trial","32","false","0.8,0.2","go_c","",""
"null","","html-keyboard-response","630","1162923","0.0-8.0-1.16","","<img src=""img/blue-n.png"">","null","trial","32","","0.8,0.2","go_c","0",""
"null","","html-keyboard-response","631","1163926","0.0-8.0-2.16","","<div style=""font-size:60px;"">+</div>","null","","","","","","",""
"null","","image-keyboard-response","632","1165429","0.0-8.0-0.17","","img/yellow.png","null","trial","null","true","0.2,0.8","nogo_b","",""
"null","","html-keyboard-response","633","1166434","0.0-8.0-1.17","","<img src=""img/yellow-n.png"">","null","trial","null","","0.2,0.8","nogo_b","0",""
"null","","html-keyboard-response","634","1167437","0.0-8.0-2.17","","<div style=""font-size:60px;"">+</div>","null","","","","","","",""
"null","","image-keyboard-response","635","1168943","0.0-8.0-0.18","","img/red.png","null","trial","null","true","0.2,0.8","nogo_d","",""
"null","","html-keyboard-response","636","1169948","0.0-8.0-1.18","","<img src=""img/red-r.png"">","null","trial","null","","0.2,0.8","nogo_d","1",""
"null","","html-keyboard-response","637","1170952","0.0-8.0-2.18","","<div style=""font-size:60px;"">+</div>","null","","","","","","",""
"766.425000037998","","image-keyboard-response","638","1171719","0.0-8.0-0.19","","img/pink.png","32","trial","32","true","0.8,0.2","go_a","",""
"null","","html-keyboard-response","639","1172724","0.0-8.0-1.19","","<img src=""img/pink-r.png"" border=""10"">","null","trial","32","","0.8,0.2","go_a","1",""
"null","","html-keyboard-response","640","1173729","0.0-8.0-2.19","","<div style=""font-size:60px;"">+</div>","null","","","","","","",""
"644.2199999000877","","image-keyboard-response","641","1174373","0.0-8.0-0.20","","img/yellow.png","32","trial","null","false","0.2,0.8","nogo_b","",""
"null","","html-keyboard-response","642","1175379","0.0-8.0-1.20","","<img src=""img/yellow-n.png"" border=""10"">","null","trial","null","","0.2,0.8","nogo_b","0",""
"null","","html-keyboard-response","643","1176383","0.0-8.0-2.20","","<div style=""font-size:60px;"">+</div>","null","","","","","","",""
"null","","image-keyboard-response","644","1177888","0.0-8.0-0.21","","img/pink.png","null","trial","32","false","0.8,0.2","go_a","",""
"null","","html-keyboard-response","645","1178894","0.0-8.0-1.21","","<img src=""img/pink-n.png"">","null","trial","32","","0.8,0.2","go_a","0",""
"null","","html-keyboard-response","646","1179897","0.0-8.0-2.21","","<div style=""font-size:60px;"">+</div>","null","","","","","","",""
"798.2999999076128","","image-keyboard-response","647","1180696","0.0-8.0-0.22","","img/blue.png","32","trial","32","true","0.8,0.2","go_c","",""
"null","","html-keyboard-response","648","1181702","0.0-8.0-1.22","","<img src=""img/blue-n.png"" border=""10"">","null","trial","32","","0.8,0.2","go_c","0",""
"null","","html-keyboard-response","649","1182706","0.0-8.0-2.22","","<div style=""font-size:60px;"">+</div>","null","","","","","","",""
"937.6550000160933","","image-keyboard-response","650","1183644","0.0-8.0-0.23","","img/red.png","32","trial","null","false","0.2,0.8","nogo_d","",""
"null","","html-keyboard-response","651","1184649","0.0-8.0-1.23","","<img src=""img/red-n.png"" border=""10"">","null","trial","null","","0.2,0.8","nogo_d","0",""
"null","","html-keyboard-response","652","1185653","0.0-8.0-2.23","","<div style=""font-size:60px;"">+</div>","null","","","","","","",""
"1354.2400000151247","","image-keyboard-response","653","1187007","0.0-8.0-0.24","","img/pink.png","32","trial","32","true","0.8,0.2","go_a","",""
"null","","html-keyboard-response","654","1188013","0.0-8.0-1.24","","<img src=""img/pink-r.png"" border=""10"">","null","trial","32","","0.8,0.2","go_a","1",""
"null","","html-keyboard-response","655","1189016","0.0-8.0-2.24","","<div style=""font-size:60px;"">+</div>","null","","","","","","",""
"668.3300000149757","","image-keyboard-response","656","1189685","0.0-8.0-0.25","","img/red.png","32","trial","null","false","0.2,0.8","nogo_d","",""
"null","","html-keyboard-response","657","1190686","0.0-8.0-1.25","","<img src=""img/red-n.png"" border=""10"">","null","trial","null","","0.2,0.8","nogo_d","0",""
"null","","html-keyboard-response","658","1191691","0.0-8.0-2.25","","<div style=""font-size:60px;"">+</div>","null","","","","","","",""
"null","","image-keyboard-response","659","1193197","0.0-8.0-0.26","","img/blue.png","null","trial","32","false","0.8,0.2","go_c","",""
"null","","html-keyboard-response","660","1194200","0.0-8.0-1.26","","<img src=""img/blue-n.png"">","null","trial","32","","0.8,0.2","go_c","0",""
"null","","html-keyboard-response","661","1195204","0.0-8.0-2.26","","<div style=""font-size:60px;"">+</div>","null","","","","","","",""
"972.3899997770786","","image-keyboard-response","662","1196176","0.0-8.0-0.27","","img/yellow.png","32","trial","null","false","0.2,0.8","nogo_b","",""
"null","","html-keyboard-response","663","1197179","0.0-8.0-1.27","","<img src=""img/yellow-n.png"" border=""10"">","null","trial","null","","0.2,0.8","nogo_b","0",""
"null","","html-keyboard-response","664","1198185","0.0-8.0-2.27","","<div style=""font-size:60px;"">+</div>","null","","","","","","",""
"792.3749999608845","","image-keyboard-response","665","1198978","0.0-8.0-0.28","","img/blue.png","32","trial","32","true","0.8,0.2","go_c","",""
"null","","html-keyboard-response","666","1199984","0.0-8.0-1.28","","<img src=""img/blue-n.png"" border=""10"">","null","trial","32","","0.8,0.2","go_c","0",""
"null","","html-keyboard-response","667","1200986","0.0-8.0-2.28","","<div style=""font-size:60px;"">+</div>","null","","","","","","",""
"null","","image-keyboard-response","668","1202492","0.0-8.0-0.29","","img/yellow.png","null","trial","null","true","0.2,0.8","nogo_b","",""
"null","","html-keyboard-response","669","1203496","0.0-8.0-1.29","","<img src=""img/yellow-r.png"">","null","trial","null","","0.2,0.8","nogo_b","1",""
"null","","html-keyboard-response","670","1204500","0.0-8.0-2.29","","<div style=""font-size:60px;"">+</div>","null","","","","","","",""
"743.9850000664592","","image-keyboard-response","671","1205244","0.0-8.0-0.30","","img/red.png","32","trial","null","false","0.2,0.8","nogo_d","",""
"null","","html-keyboard-response","672","1206245","0.0-8.0-1.30","","<img src=""img/red-n.png"" border=""10"">","null","trial","null","","0.2,0.8","nogo_d","0",""
"null","","html-keyboard-response","673","1207249","0.0-8.0-2.30","","<div style=""font-size:60px;"">+</div>","null","","","","","","",""
"1493.3299999684095","","image-keyboard-response","674","1208743","0.0-8.0-0.31","","img/pink.png","32","trial","32","true","0.8,0.2","go_a","",""
"null","","html-keyboard-response","675","1209744","0.0-8.0-1.31","","<img src=""img/pink-r.png"" border=""10"">","null","trial","32","","0.8,0.2","go_a","1",""
"null","","html-keyboard-response","676","1210749","0.0-8.0-2.31","","<div style=""font-size:60px;"">+</div>","null","","","","","","",""
"null","","image-keyboard-response","677","1212253","0.0-8.0-0.32","","img/blue.png","null","trial","32","false","0.8,0.2","go_c","",""
"null","","html-keyboard-response","678","1213256","0.0-8.0-1.32","","<img src=""img/blue-n.png"">","null","trial","32","","0.8,0.2","go_c","0",""
"null","","html-keyboard-response","679","1214259","0.0-8.0-2.32","","<div style=""font-size:60px;"">+</div>","null","","","","","","",""
"817.2450000420213","","image-keyboard-response","680","1215077","0.0-8.0-0.33","","img/yellow.png","32","trial","null","false","0.2,0.8","nogo_b","",""
"null","","html-keyboard-response","681","1216078","0.0-8.0-1.33","","<img src=""img/yellow-r.png"" border=""10"">","null","trial","null","","0.2,0.8","nogo_b","1",""
