"rt","url","trial_type","trial_index","time_elapsed","internal_node_id","view_history","stimulus","key_press","test_part","correct_response","correct","use_rew","which_stim","reward","responses"
"21450.275000184774","consent.html","external-html","0","21711","0.0-0.0","","","","","","","","","",""
"9751.900000032037","","instructions","1","31464","0.0-1.0","[{""page_index"":0,""viewing_time"":1695.8950003609061},{""page_index"":1,""viewing_time"":1406.4249997027218},{""page_index"":2,""viewing_time"":1226.4200001955032},{""page_index"":3,""viewing_time"":1113.3300000801682},{""page_index"":4,""viewing_time"":1114.1599998809397},{""page_index"":5,""viewing_time"":1124.735000077635},{""page_index"":6,""viewing_time"":2070.254999678582}]","","","","","","","","",""
"null","","image-keyboard-response","2","32967","0.0-2.0-0.0","","img/test2.PNG","null","practice","null","true","","","",""
"null","","html-keyboard-response","3","33968","0.0-2.0-1.0","","<img src=""img/test2-reward.PNG"">","null","","","","","","",""
"null","","html-keyboard-response","4","34972","0.0-2.0-2.0","","<div style=""font-size:60px;"">+</div>","null","","","","","","",""
"928.1299998983741","","image-keyboard-response","5","35900","0.0-2.0-0.1","","img/test3.PNG","32","practice","null","false","","","",""
"null","","html-keyboard-response","6","36901","0.0-2.0-1.1","","<img src=""img/test3-neutral.PNG"" border=""10px; grey"">","null","","","","","","",""
"null","","html-keyboard-response","7","37902","0.0-2.0-2.1","","<div style=""font-size:60px;"">+</div>","null","","","","","","",""
"495.68499997258186","","image-keyboard-response","8","38398","0.0-2.0-0.2","","img/test1.PNG","32","practice","32","true","","","",""
"null","","html-keyboard-response","9","39399","0.0-2.0-1.2","","<img src=""img/test1-reward.PNG"" border=""10px; grey"">","null","","","","","","",""
"null","","html-keyboard-response","10","40402","0.0-2.0-2.2","","<div style=""font-size:60px;"">+</div>","null","","","","","","",""
"null","","image-keyboard-response","11","41905","0.0-2.0-0.3","","img/test3.PNG","null","practice","null","true","","","",""
"null","","html-keyboard-response","12","42909","0.0-2.0-1.3","","<img src=""img/test3-reward.PNG"">","null","","","","","","",""
"null","","html-keyboard-response","13","43911","0.0-2.0-2.3","","<div style=""font-size:60px;"">+</div>","null","","","","","","",""
"null","","image-keyboard-response","14","45417","0.0-2.0-0.4","","img/test2.PNG","null","practice","null","true","","","",""
"null","","html-keyboard-response","15","46421","0.0-2.0-1.4","","<img src=""img/test2-reward.PNG"">","null","","","","","","",""
"null","","html-keyboard-response","16","47424","0.0-2.0-2.4","","<div style=""font-size:60px;"">+</div>","null","","","","","","",""
"412.33500000089407","","image-keyboard-response","17","47837","0.0-2.0-0.5","","img/test1.PNG","32","practice","32","true","","","",""
"null","","html-keyboard-response","18","48838","0.0-2.0-1.5","","<img src=""img/test1-reward.PNG"" border=""10px; grey"">","null","","","","","","",""
"null","","html-keyboard-response","19","49840","0.0-2.0-2.5","","<div style=""font-size:60px;"">+</div>","null","","","","","","",""
"null","","image-keyboard-response","20","51343","0.0-2.0-0.6","","img/test2.PNG","null","practice","null","true","","","",""
"null","","html-keyboard-response","21","52347","0.0-2.0-1.6","","<img src=""img/test2-reward.PNG"">","null","","","","","","",""
"null","","html-keyboard-response","22","53350","0.0-2.0-2.6","","<div style=""font-size:60px;"">+</div>","null","","","","","","",""
"550.2999997697771","","image-keyboard-response","23","53901","0.0-2.0-0.7","","img/test3.PNG","32","practice","null","false","","","",""
"null","","html-keyboard-response","24","54902","0.0-2.0-1.7","","<img src=""img/test3-neutral.PNG"" border=""10px; grey"">","null","","","","","","",""
"null","","html-keyboard-response","25","55905","0.0-2.0-2.7","","<div style=""font-size:60px;"">+</div>","null","","","","","","",""
"739.6100000478327","","image-keyboard-response","26","56646","0.0-2.0-0.8","","img/test1.PNG","32","practice","32","true","","","",""
"null","","html-keyboard-response","27","57646","0.0-2.0-1.8","","<img src=""img/test1-reward.PNG"" border=""10px; grey"">","null","","","","","","",""
"null","","html-keyboard-response","28","58648","0.0-2.0-2.8","","<div style=""font-size:60px;"">+</div>","null","","","","","","",""
"null","","image-keyboard-response","29","60149","0.0-2.0-0.9","","img/test2.PNG","null","practice","null","true","","","",""
"null","","html-keyboard-response","30","61153","0.0-2.0-1.9","","<img src=""img/test2-reward.PNG"">","null","","","","","","",""
"null","","html-keyboard-response","31","62157","0.0-2.0-2.9","","<div style=""font-size:60px;"">+</div>","null","","","","","","",""
"484.88999996334314","","image-keyboard-response","32","62642","0.0-2.0-0.10","","img/test1.PNG","32","practice","32","true","","","",""
"null","","html-keyboard-response","33","63644","0.0-2.0-1.10","","<img src=""img/test1-reward.PNG"" border=""10px; grey"">","null","","","","","","",""
"null","","html-keyboard-response","34","64645","0.0-2.0-2.10","","<div style=""font-size:60px;"">+</div>","null","","","","","","",""
"628.8649998605251","","image-keyboard-response","35","65275","0.0-2.0-0.11","","img/test3.PNG","32","practice","null","false","","","",""
"null","","html-keyboard-response","36","66276","0.0-2.0-1.11","","<img src=""img/test3-neutral.PNG"" border=""10px; grey"">","null","","","","","","",""
"null","","html-keyboard-response","37","67279","0.0-2.0-2.11","","<div style=""font-size:60px;"">+</div>","null","","","","","","",""
"2119.090000167489","","instructions","38","69399","0.0-3.0","[{""page_index"":0,""viewing_time"":2118.914999999106}]","","","","","","","","",""
"null","","image-keyboard-response","39","70900","0.0-4.0-0.0","","img/grey.png","null","trial","null","true","0.2,0.8","2:nogo_b","",""
"null","","html-keyboard-response","40","71906","0.0-4.0-1.0","","<img src=""img/grey-r.png"">","null","trial","null","","0.2,0.8","2:nogo_b","1",""
"null","","html-keyboard-response","41","72908","0.0-4.0-2.0","","<div style=""font-size:60px;"">+</div>","null","","","","","","",""
"781.8999998271465","","image-keyboard-response","42","73690","0.0-4.0-0.1","","img/green.png","32","trial","32","true","0.8,0.2","1:go_a","",""
"null","","html-keyboard-response","43","74691","0.0-4.0-1.1","","<img src=""img/green-r.png"" border=""10"">","null","trial","32","","0.8,0.2","1:go_a","1",""
"null","","html-keyboard-response","44","75694","0.0-4.0-2.1","","<div style=""font-size:60px;"">+</div>","null","","","","","","",""
"null","","image-keyboard-response","45","77200","0.0-4.0-0.2","","img/grey.png","null","trial","null","true","0.2,0.8","2:nogo_b","",""
"null","","html-keyboard-response","46","78202","0.0-4.0-1.2","","<img src=""img/grey-n.png"">","null","trial","null","","0.2,0.8","2:nogo_b","0",""
"null","","html-keyboard-response","47","79202","0.0-4.0-2.2","","<div style=""font-size:60px;"">+</div>","null","","","","","","",""
"596.0800000466406","","image-keyboard-response","48","79799","0.0-4.0-0.3","","img/green.png","32","trial","32","true","0.8,0.2","1:go_a","",""
"null","","html-keyboard-response","49","80800","0.0-4.0-1.3","","<img src=""img/green-r.png"" border=""10"">","null","trial","32","","0.8,0.2","1:go_a","1",""
"null","","html-keyboard-response","50","81803","0.0-4.0-2.3","","<div style=""font-size:60px;"">+</div>","null","","","","","","",""
"null","","image-keyboard-response","51","83309","0.0-4.0-0.4","","img/grey.png","null","trial","null","true","0.2,0.8","2:nogo_b","",""
"null","","html-keyboard-response","52","84310","0.0-4.0-1.4","","<img src=""img/grey-r.png"">","null","trial","null","","0.2,0.8","2:nogo_b","1",""
"null","","html-keyboard-response","53","85316","0.0-4.0-2.4","","<div style=""font-size:60px;"">+</div>","null","","","","","","",""
"613.9299999922514","","image-keyboard-response","54","85930","0.0-4.0-0.5","","img/green.png","32","trial","32","true","0.8,0.2","1:go_a","",""
"null","","html-keyboard-response","55","86936","0.0-4.0-1.5","","<img src=""img/green-r.png"" border=""10"">","null","trial","32","","0.8,0.2","1:go_a","1",""
"null","","html-keyboard-response","56","87939","0.0-4.0-2.5","","<div style=""font-size:60px;"">+</div>","null","","","","","","",""
"780.3099998272955","","image-keyboard-response","57","88720","0.0-4.0-0.6","","img/green.png","32","trial","32","true","0.8,0.2","1:go_a","",""
"null","","html-keyboard-response","58","89723","0.0-4.0-1.6","","<img src=""img/green-r.png"" border=""10"">","null","trial","32","","0.8,0.2","1:go_a","1",""
"null","","html-keyboard-response","59","90726","0.0-4.0-2.6","","<div style=""font-size:60px;"">+</div>","null","","","","","","",""
"null","","image-keyboard-response","60","92229","0.0-4.0-0.7","","img/grey.png","null","trial","null","true","0.2,0.8","2:nogo_b","",""
"null","","html-keyboard-response","61","93233","0.0-4.0-1.7","","<img src=""img/grey-n.png"">","null","trial","null","","0.2,0.8","2:nogo_b","0",""
"null","","html-keyboard-response","62","94236","0.0-4.0-2.7","","<div style=""font-size:60px;"">+</div>","null","","","","","","",""
"null","","image-keyboard-response","63","95740","0.0-4.0-0.8","","img/grey.png","null","trial","null","true","0.2,0.8","2:nogo_b","",""
"null","","html-keyboard-response","64","96742","0.0-4.0-1.8","","<img src=""img/grey-r.png"">","null","trial","null","","0.2,0.8","2:nogo_b","1",""
"null","","html-keyboard-response","65","97745","0.0-4.0-2.8","","<div style=""font-size:60px;"">+</div>","null","","","","","","",""
"717.5800004042685","","image-keyboard-response","66","98463","0.0-4.0-0.9","","img/green.png","32","trial","32","true","0.8,0.2","1:go_a","",""
"null","","html-keyboard-response","67","99466","0.0-4.0-1.9","","<img src=""img/green-r.png"" border=""10"">","null","trial","32","","0.8,0.2","1:go_a","1",""
"null","","html-keyboard-response","68","100470","0.0-4.0-2.9","","<div style=""font-size:60px;"">+</div>","null","","","","","","",""
"917.6799999549985","","image-keyboard-response","69","101388","0.0-4.0-0.10","","img/green.png","32","trial","32","true","0.8,0.2","1:go_a","",""
"null","","html-keyboard-response","70","102391","0.0-4.0-1.10","","<img src=""img/green-r.png"" border=""10"">","null","trial","32","","0.8,0.2","1:go_a","1",""
"null","","html-keyboard-response","71","103394","0.0-4.0-2.10","","<div style=""font-size:60px;"">+</div>","null","","","","","","",""
"null","","image-keyboard-response","72","104899","0.0-4.0-0.11","","img/grey.png","null","trial","null","true","0.2,0.8","2:nogo_b","",""
"null","","html-keyboard-response","73","105904","0.0-4.0-1.11","","<img src=""img/grey-r.png"">","null","trial","null","","0.2,0.8","2:nogo_b","1",""
"null","","html-keyboard-response","74","106906","0.0-4.0-2.11","","<div style=""font-size:60px;"">+</div>","null","","","","","","",""
"null","","image-keyboard-response","75","108407","0.0-4.0-0.12","","img/grey.png","null","trial","null","true","0.2,0.8","2:nogo_b","",""
"null","","html-keyboard-response","76","109408","0.0-4.0-1.12","","<img src=""img/grey-r.png"">","null","trial","null","","0.2,0.8","2:nogo_b","1",""
"null","","html-keyboard-response","77","110411","0.0-4.0-2.12","","<div style=""font-size:60px;"">+</div>","null","","","","","","",""
"685.4150001890957","","image-keyboard-response","78","111097","0.0-4.0-0.13","","img/green.png","32","trial","32","true","0.8,0.2","1:go_a","",""
"null","","html-keyboard-response","79","112100","0.0-4.0-1.13","","<img src=""img/green-r.png"" border=""10"">","null","trial","32","","0.8,0.2","1:go_a","1",""
"null","","html-keyboard-response","80","113103","0.0-4.0-2.13","","<div style=""font-size:60px;"">+</div>","null","","","","","","",""
"985.6400000862777","","image-keyboard-response","81","114089","0.0-4.0-0.14","","img/grey.png","32","trial","null","false","0.2,0.8","2:nogo_b","",""
"null","","html-keyboard-response","82","115092","0.0-4.0-1.14","","<img src=""img/grey-r.png"" border=""10"">","null","trial","null","","0.2,0.8","2:nogo_b","1",""
"null","","html-keyboard-response","83","116097","0.0-4.0-2.14","","<div style=""font-size:60px;"">+</div>","null","","","","","","",""
"748.1849999167025","","image-keyboard-response","84","116845","0.0-4.0-0.15","","img/green.png","32","trial","32","true","0.8,0.2","1:go_a","",""
"null","","html-keyboard-response","85","117851","0.0-4.0-1.15","","<img src=""img/green-r.png"" border=""10"">","null","trial","32","","0.8,0.2","1:go_a","1",""
"null","","html-keyboard-response","86","118855","0.0-4.0-2.15","","<div style=""font-size:60px;"">+</div>","null","","","","","","",""
"950.565000064671","","image-keyboard-response","87","119806","0.0-4.0-0.16","","img/grey.png","32","trial","null","false","0.2,0.8","2:nogo_b","",""
"null","","html-keyboard-response","88","120808","0.0-4.0-1.16","","<img src=""img/grey-n.png"" border=""10"">","null","trial","null","","0.2,0.8","2:nogo_b","0",""
"null","","html-keyboard-response","89","121813","0.0-4.0-2.16","","<div style=""font-size:60px;"">+</div>","null","","","","","","",""
"825.9299998171628","","image-keyboard-response","90","122639","0.0-4.0-0.17","","img/green.png","32","trial","32","true","0.8,0.2","1:go_a","",""
"null","","html-keyboard-response","91","123643","0.0-4.0-1.17","","<img src=""img/green-r.png"" border=""10"">","null","trial","32","","0.8,0.2","1:go_a","1",""
"null","","html-keyboard-response","92","124647","0.0-4.0-2.17","","<div style=""font-size:60px;"">+</div>","null","","","","","","",""
"748.6950000748038","","image-keyboard-response","93","125396","0.0-4.0-0.18","","img/green.png","32","trial","32","true","0.8,0.2","1:go_a","",""
"null","","html-keyboard-response","94","126401","0.0-4.0-1.18","","<img src=""img/green-r.png"" border=""10"">","null","trial","32","","0.8,0.2","1:go_a","1",""
"null","","html-keyboard-response","95","127404","0.0-4.0-2.18","","<div style=""font-size:60px;"">+</div>","null","","","","","","",""
"null","","image-keyboard-response","96","128908","0.0-4.0-0.19","","img/grey.png","null","trial","null","true","0.2,0.8","2:nogo_b","",""
"null","","html-keyboard-response","97","129910","0.0-4.0-1.19","","<img src=""img/grey-r.png"">","null","trial","null","","0.2,0.8","2:nogo_b","1",""
"null","","html-keyboard-response","98","130913","0.0-4.0-2.19","","<div style=""font-size:60px;"">+</div>","null","","","","","","",""
"973.4600000083447","","image-keyboard-response","99","131887","0.0-4.0-0.20","","img/grey.png","32","trial","null","false","0.2,0.8","2:nogo_b","",""
"null","","html-keyboard-response","100","132893","0.0-4.0-1.20","","<img src=""img/grey-r.png"" border=""10"">","null","trial","null","","0.2,0.8","2:nogo_b","1",""
"null","","html-keyboard-response","101","133899","0.0-4.0-2.20","","<div style=""font-size:60px;"">+</div>","null","","","","","","",""
"766.7550002224743","","image-keyboard-response","102","134666","0.0-4.0-0.21","","img/green.png","32","trial","32","true","0.8,0.2","1:go_a","",""
"null","","html-keyboard-response","103","135669","0.0-4.0-1.21","","<img src=""img/green-r.png"" border=""10"">","null","trial","32","","0.8,0.2","1:go_a","1",""
"null","","html-keyboard-response","104","136672","0.0-4.0-2.21","","<div style=""font-size:60px;"">+</div>","null","","","","","","",""
"895.835000090301","","image-keyboard-response","105","137568","0.0-4.0-0.22","","img/grey.png","32","trial","null","false","0.2,0.8","2:nogo_b","",""
"null","","html-keyboard-response","106","138573","0.0-4.0-1.22","","<img src=""img/grey-r.png"" border=""10"">","null","trial","null","","0.2,0.8","2:nogo_b","1",""
"null","","html-keyboard-response","107","139577","0.0-4.0-2.22","","<div style=""font-size:60px;"">+</div>","null","","","","","","",""
"736.3599999807775","","image-keyboard-response","108","140314","0.0-4.0-0.23","","img/green.png","32","trial","32","true","0.8,0.2","1:go_a","",""
"null","","html-keyboard-response","109","141316","0.0-4.0-1.23","","<img src=""img/green-r.png"" border=""10"">","null","trial","32","","0.8,0.2","1:go_a","1",""
"null","","html-keyboard-response","110","142320","0.0-4.0-2.23","","<div style=""font-size:60px;"">+</div>","null","","","","","","",""
"749.3250002153218","","image-keyboard-response","111","143070","0.0-4.0-0.24","","img/green.png","32","trial","32","true","0.8,0.2","1:go_a","",""
"null","","html-keyboard-response","112","144071","0.0-4.0-1.24","","<img src=""img/green-r.png"" border=""10"">","null","trial","32","","0.8,0.2","1:go_a","1",""
"null","","html-keyboard-response","113","145072","0.0-4.0-2.24","","<div style=""font-size:60px;"">+</div>","null","","","","","","",""
"877.0500002428889","","image-keyboard-response","114","145950","0.0-4.0-0.25","","img/grey.png","32","trial","null","false","0.2,0.8","2:nogo_b","",""
"null","","html-keyboard-response","115","146952","0.0-4.0-1.25","","<img src=""img/grey-n.png"" border=""10"">","null","trial","null","","0.2,0.8","2:nogo_b","0",""
"null","","html-keyboard-response","116","147955","0.0-4.0-2.25","","<div style=""font-size:60px;"">+</div>","null","","","","","","",""
"null","","image-keyboard-response","117","149459","0.0-4.0-0.26","","img/grey.png","null","trial","null","true","0.2,0.8","2:nogo_b","",""
"null","","html-keyboard-response","118","150464","0.0-4.0-1.26","","<img src=""img/grey-r.png"">","null","trial","null","","0.2,0.8","2:nogo_b","1",""
"null","","html-keyboard-response","119","151467","0.0-4.0-2.26","","<div style=""font-size:60px;"">+</div>","null","","","","","","",""
"807.3199996724725","","image-keyboard-response","120","152274","0.0-4.0-0.27","","img/green.png","32","trial","32","true","0.8,0.2","1:go_a","",""
"null","","html-keyboard-response","121","153276","0.0-4.0-1.27","","<img src=""img/green-r.png"" border=""10"">","null","trial","32","","0.8,0.2","1:go_a","1",""
"null","","html-keyboard-response","122","154281","0.0-4.0-2.27","","<div style=""font-size:60px;"">+</div>","null","","","","","","",""
"null","","image-keyboard-response","123","155782","0.0-4.0-0.28","","img/grey.png","null","trial","null","true","0.2,0.8","2:nogo_b","",""
"null","","html-keyboard-response","124","156787","0.0-4.0-1.28","","<img src=""img/grey-r.png"">","null","trial","null","","0.2,0.8","2:nogo_b","1",""
"null","","html-keyboard-response","125","157790","0.0-4.0-2.28","","<div style=""font-size:60px;"">+</div>","null","","","","","","",""
"759.3350000679493","","image-keyboard-response","126","158550","0.0-4.0-0.29","","img/green.png","32","trial","32","true","0.8,0.2","1:go_a","",""
"null","","html-keyboard-response","127","159553","0.0-4.0-1.29","","<img src=""img/green-r.png"" border=""10"">","null","trial","32","","0.8,0.2","1:go_a","1",""
"null","","html-keyboard-response","128","160556","0.0-4.0-2.29","","<div style=""font-size:60px;"">+</div>","null","","","","","","",""
"805.9249999932945","","image-keyboard-response","129","161363","0.0-4.0-0.30","","img/green.png","32","trial","32","true","0.8,0.2","1:go_a","",""
"null","","html-keyboard-response","130","162369","0.0-4.0-1.30","","<img src=""img/green-r.png"" border=""10"">","null","trial","32","","0.8,0.2","1:go_a","1",""
"null","","html-keyboard-response","131","163372","0.0-4.0-2.30","","<div style=""font-size:60px;"">+</div>","null","","","","","","",""
"802.8299999423325","","image-keyboard-response","132","164175","0.0-4.0-0.31","","img/grey.png","32","trial","null","false","0.2,0.8","2:nogo_b","",""
"null","","html-keyboard-response","133","165180","0.0-4.0-1.31","","<img src=""img/grey-n.png"" border=""10"">","null","trial","null","","0.2,0.8","2:nogo_b","0",""
"null","","html-keyboard-response","134","166183","0.0-4.0-2.31","","<div style=""font-size:60px;"">+</div>","null","","","","","","",""
"692.0199999585748","","image-keyboard-response","135","166875","0.0-4.0-0.32","","img/grey.png","32","trial","null","false","0.2,0.8","2:nogo_b","",""
"null","","html-keyboard-response","136","167877","0.0-4.0-1.32","","<img src=""img/grey-n.png"" border=""10"">","null","trial","null","","0.2,0.8","2:nogo_b","0",""
"null","","html-keyboard-response","137","168879","0.0-4.0-2.32","","<div style=""font-size:60px;"">+</div>","null","","","","","","",""
"729.239999782294","","image-keyboard-response","138","169609","0.0-4.0-0.33","","img/green.png","32","trial","32","true","0.8,0.2","1:go_a","",""
"null","","html-keyboard-response","139","170610","0.0-4.0-1.33","","<img src=""img/green-r.png"" border=""10"">","null","trial","32","","0.8,0.2","1:go_a","1",""
"null","","html-keyboard-response","140","171613","0.0-4.0-2.33","","<div style=""font-size:60px;"">+</div>","null","","","","","","",""
"null","","image-keyboard-response","141","173115","0.0-4.0-0.34","","img/grey.png","null","trial","null","true","0.2,0.8","2:nogo_b","",""
"null","","html-keyboard-response","142","174120","0.0-4.0-1.34","","<img src=""img/grey-r.png"">","null","trial","null","","0.2,0.8","2:nogo_b","1",""
"null","","html-keyboard-response","143","175123","0.0-4.0-2.34","","<div style=""font-size:60px;"">+</div>","null","","","","","","",""
"707.0700000040233","","image-keyboard-response","144","175830","0.0-4.0-0.35","","img/green.png","32","trial","32","true","0.8,0.2","1:go_a","",""
"null","","html-keyboard-response","145","176835","0.0-4.0-1.35","","<img src=""img/green-r.png"" border=""10"">","null","trial","32","","0.8,0.2","1:go_a","1",""
"null","","html-keyboard-response","146","177841","0.0-4.0-2.35","","<div style=""font-size:60px;"">+</div>","null","","","","","","",""
"790.4799999669194","","image-keyboard-response","147","178632","0.0-4.0-0.36","","img/green.png","32","trial","32","true","0.8,0.2","1:go_a","",""
"null","","html-keyboard-response","148","179633","0.0-4.0-1.36","","<img src=""img/green-n.png"" border=""10"">","null","trial","32","","0.8,0.2","1:go_a","0",""
"null","","html-keyboard-response","149","180636","0.0-4.0-2.36","","<div style=""font-size:60px;"">+</div>","null","","","","","","",""
"1347.9399997740984","","image-keyboard-response","150","181984","0.0-4.0-0.37","","img/grey.png","32","trial","null","false","0.2,0.8","2:nogo_b","",""
"null","","html-keyboard-response","151","182986","0.0-4.0-1.37","","<img src=""img/grey-n.png"" border=""10"">","null","trial","null","","0.2,0.8","2:nogo_b","0",""
"null","","html-keyboard-response","152","183990","0.0-4.0-2.37","","<div style=""font-size:60px;"">+</div>","null","","","","","","",""
"738.8450000435114","","image-keyboard-response","153","184729","0.0-4.0-0.38","","img/green.png","32","trial","32","true","0.8,0.2","1:go_a","",""
"null","","html-keyboard-response","154","185732","0.0-4.0-1.38","","<img src=""img/green-r.png"" border=""10"">","null","trial","32","","0.8,0.2","1:go_a","1",""
"null","","html-keyboard-response","155","186734","0.0-4.0-2.38","","<div style=""font-size:60px;"">+</div>","null","","","","","","",""
"null","","image-keyboard-response","156","188235","0.0-4.0-0.39","","img/grey.png","null","trial","null","true","0.2,0.8","2:nogo_b","",""
"null","","html-keyboard-response","157","189240","0.0-4.0-1.39","","<img src=""img/grey-n.png"">","null","trial","null","","0.2,0.8","2:nogo_b","0",""
"null","","html-keyboard-response","158","190244","0.0-4.0-2.39","","<div style=""font-size:60px;"">+</div>","null","","","","","","",""
"987.3950001783669","","image-keyboard-response","159","191232","0.0-4.0-0.40","","img/grey.png","32","trial","null","false","0.2,0.8","2:nogo_b","",""
"null","","html-keyboard-response","160","192236","0.0-4.0-1.40","","<img src=""img/grey-n.png"" border=""10"">","null","trial","null","","0.2,0.8","2:nogo_b","0",""
"null","","html-keyboard-response","161","193241","0.0-4.0-2.40","","<div style=""font-size:60px;"">+</div>","null","","","","","","",""
"792.1449998393655","","image-keyboard-response","162","194033","0.0-4.0-0.41","","img/green.png","32","trial","32","true","0.8,0.2","1:go_a","",""
"null","","html-keyboard-response","163","195035","0.0-4.0-1.41","","<img src=""img/green-r.png"" border=""10"">","null","trial","32","","0.8,0.2","1:go_a","1",""
"null","","html-keyboard-response","164","196037","0.0-4.0-2.41","","<div style=""font-size:60px;"">+</div>","null","","","","","","",""
"1235.7149999588728","","image-keyboard-response","165","197273","0.0-4.0-0.42","","img/green.png","32","trial","32","true","0.8,0.2","1:go_a","",""
"null","","html-keyboard-response","166","198277","0.0-4.0-1.42","","<img src=""img/green-r.png"" border=""10"">","null","trial","32","","0.8,0.2","1:go_a","1",""
"null","","html-keyboard-response","167","199280","0.0-4.0-2.42","","<div style=""font-size:60px;"">+</div>","null","","","","","","",""
"null","","image-keyboard-response","168","200783","0.0-4.0-0.43","","img/grey.png","null","trial","null","true","0.2,0.8","2:nogo_b","",""
"null","","html-keyboard-response","169","201788","0.0-4.0-1.43","","<img src=""img/grey-n.png"">","null","trial","null","","0.2,0.8","2:nogo_b","0",""
"null","","html-keyboard-response","170","202791","0.0-4.0-2.43","","<div style=""font-size:60px;"">+</div>","null","","","","","","",""
"928.055000025779","","image-keyboard-response","171","203719","0.0-4.0-0.44","","img/grey.png","32","trial","null","false","0.2,0.8","2:nogo_b","",""
"null","","html-keyboard-response","172","204720","0.0-4.0-1.44","","<img src=""img/grey-r.png"" border=""10"">","null","trial","null","","0.2,0.8","2:nogo_b","1",""
"null","","html-keyboard-response","173","205723","0.0-4.0-2.44","","<div style=""font-size:60px;"">+</div>","null","","","","","","",""
"719.1499997861683","","image-keyboard-response","174","206442","0.0-4.0-0.45","","img/green.png","32","trial","32","true","0.8,0.2","1:go_a","",""
"null","","html-keyboard-response","175","207446","0.0-4.0-1.45","","<img src=""img/green-r.png"" border=""10"">","null","trial","32","","0.8,0.2","1:go_a","1",""
"null","","html-keyboard-response","176","208448","0.0-4.0-2.45","","<div style=""font-size:60px;"">+</div>","null","","","","","","",""
"750.1249997876585","","image-keyboard-response","177","209199","0.0-4.0-0.46","","img/green.png","32","trial","32","true","0.8,0.2","1:go_a","",""
"null","","html-keyboard-response","178","210200","0.0-4.0-1.46","","<img src=""img/green-r.png"" border=""10"">","null","trial","32","","0.8,0.2","1:go_a","1",""
"null","","html-keyboard-response","179","211201","0.0-4.0-2.46","","<div style=""font-size:60px;"">+</div>","null","","","","","","",""
"null","","image-keyboard-response","180","212707","0.0-4.0-0.47","","img/grey.png","null","trial","null","true","0.2,0.8","2:nogo_b","",""
"null","","html-keyboard-response","181","213710","0.0-4.0-1.47","","<img src=""img/grey-r.png"">","null","trial","null","","0.2,0.8","2:nogo_b","1",""
"null","","html-keyboard-response","182","214712","0.0-4.0-2.47","","<div style=""font-size:60px;"">+</div>","null","","","","","","",""
"1067.3250001855195","","image-keyboard-response","183","215780","0.0-4.0-0.48","","img/grey.png","32","trial","null","false","0.2,0.8","2:nogo_b","",""
"null","","html-keyboard-response","184","216782","0.0-4.0-1.48","","<img src=""img/grey-n.png"" border=""10"">","null","trial","null","","0.2,0.8","2:nogo_b","0",""
"null","","html-keyboard-response","185","217788","0.0-4.0-2.48","","<div style=""font-size:60px;"">+</div>","null","","","","","","",""
"793.4549995698035","","image-keyboard-response","186","218581","0.0-4.0-0.49","","img/green.png","32","trial","32","true","0.8,0.2","1:go_a","",""
"null","","html-keyboard-response","187","219582","0.0-4.0-1.49","","<img src=""img/green-r.png"" border=""10"">","null","trial","32","","0.8,0.2","1:go_a","1",""
"null","","html-keyboard-response","188","220583","0.0-4.0-2.49","","<div style=""font-size:60px;"">+</div>","null","","","","","","",""
"null","","image-keyboard-response","189","222085","0.0-4.0-0.50","","img/grey.png","null","trial","null","true","0.2,0.8","2:nogo_b","",""
"null","","html-keyboard-response","190","223090","0.0-4.0-1.50","","<img src=""img/grey-r.png"">","null","trial","null","","0.2,0.8","2:nogo_b","1",""
"null","","html-keyboard-response","191","224095","0.0-4.0-2.50","","<div style=""font-size:60px;"">+</div>","null","","","","","","",""
"696.1199999786913","","image-keyboard-response","192","224791","0.0-4.0-0.51","","img/green.png","32","trial","32","true","0.8,0.2","1:go_a","",""
"null","","html-keyboard-response","193","225794","0.0-4.0-1.51","","<img src=""img/green-r.png"" border=""10"">","null","trial","32","","0.8,0.2","1:go_a","1",""
"null","","html-keyboard-response","194","226797","0.0-4.0-2.51","","<div style=""font-size:60px;"">+</div>","null","","","","","","",""
"919.1250000149012","","image-keyboard-response","195","227716","0.0-4.0-0.52","","img/grey.png","32","trial","null","false","0.2,0.8","2:nogo_b","",""
"null","","html-keyboard-response","196","228718","0.0-4.0-1.52","","<img src=""img/grey-n.png"" border=""10"">","null","trial","null","","0.2,0.8","2:nogo_b","0",""
"null","","html-keyboard-response","197","229718","0.0-4.0-2.52","","<div style=""font-size:60px;"">+</div>","null","","","","","","",""
"529.3749999254942","","image-keyboard-response","198","230248","0.0-4.0-0.53","","img/green.png","32","trial","32","true","0.8,0.2","1:go_a","",""
"null","","html-keyboard-response","199","231251","0.0-4.0-1.53","","<img src=""img/green-r.png"" border=""10"">","null","trial","32","","0.8,0.2","1:go_a","1",""
"null","","html-keyboard-response","200","232252","0.0-4.0-2.53","","<div style=""font-size:60px;"">+</div>","null","","","","","","",""
"953.8900000043213","","image-keyboard-response","201","233206","0.0-4.0-0.54","","img/grey.png","32","trial","null","false","0.2,0.8","2:nogo_b","",""
"null","","html-keyboard-response","202","234212","0.0-4.0-1.54","","<img src=""img/grey-n.png"" border=""10"">","null","trial","null","","0.2,0.8","2:nogo_b","0",""
"null","","html-keyboard-response","203","235214","0.0-4.0-2.54","","<div style=""font-size:60px;"">+</div>","null","","","","","","",""
"984.6250000409782","","image-keyboard-response","204","236199","0.0-4.0-0.55","","img/green.png","32","trial","32","true","0.8,0.2","1:go_a","",""
"null","","html-keyboard-response","205","237203","0.0-4.0-1.55","","<img src=""img/green-r.png"" border=""10"">","null","trial","32","","0.8,0.2","1:go_a","1",""
"null","","html-keyboard-response","206","238208","0.0-4.0-2.55","","<div style=""font-size:60px;"">+</div>","null","","","","","","",""
"848.0299999937415","","image-keyboard-response","207","239056","0.0-4.0-0.56","","img/green.png","32","trial","32","true","0.8,0.2","1:go_a","",""
"null","","html-keyboard-response","208","240062","0.0-4.0-1.56","","<img src=""img/green-r.png"" border=""10"">","null","trial","32","","0.8,0.2","1:go_a","1",""
"null","","html-keyboard-response","209","241065","0.0-4.0-2.56","","<div style=""font-size:60px;"">+</div>","null","","","","","","",""
"null","","image-keyboard-response","210","242566","0.0-4.0-0.57","","img/grey.png","null","trial","null","true","0.2,0.8","2:nogo_b","",""
"null","","html-keyboard-response","211","243569","0.0-4.0-1.57","","<img src=""img/grey-r.png"">","null","trial","null","","0.2,0.8","2:nogo_b","1",""
"null","","html-keyboard-response","212","244572","0.0-4.0-2.57","","<div style=""font-size:60px;"">+</div>","null","","","","","","",""
"717.185000423342","","image-keyboard-response","213","245289","0.0-4.0-0.58","","img/green.png","32","trial","32","true","0.8,0.2","1:go_a","",""
"null","","html-keyboard-response","214","246294","0.0-4.0-1.58","","<img src=""img/green-r.png"" border=""10"">","null","trial","32","","0.8,0.2","1:go_a","1",""
"null","","html-keyboard-response","215","247298","0.0-4.0-2.58","","<div style=""font-size:60px;"">+</div>","null","","","","","","",""
"769.94499983266","","image-keyboard-response","216","248068","0.0-4.0-0.59","","img/grey.png","32","trial","null","false","0.2,0.8","2:nogo_b","",""
"null","","html-keyboard-response","217","249069","0.0-4.0-1.59","","<img src=""img/grey-n.png"" border=""10"">","null","trial","null","","0.2,0.8","2:nogo_b","0",""
"null","","html-keyboard-response","218","250074","0.0-4.0-2.59","","<div style=""font-size:60px;"">+</div>","null","","","","","","",""
"4233.1799999810755","","instructions","219","254308","0.0-5.0","[{""page_index"":0,""viewing_time"":4232.940000016242}]","","","","","","","","",""
"790.9850003197789","","image-keyboard-response","220","255100","0.0-6.0-0.0","","img/red.png","32","trial","null","false","0.2,0.8","2:nogo_b","",""
"null","","html-keyboard-response","221","256102","0.0-6.0-1.0","","<img src=""img/red-n.png"" border=""10"">","null","trial","null","","0.2,0.8","2:nogo_b","0",""
"null","","html-keyboard-response","222","257107","0.0-6.0-2.0","","<div style=""font-size:60px;"">+</div>","null","","","","","","",""
"725.730000063777","","image-keyboard-response","223","257833","0.0-6.0-0.1","","img/pink.png","32","trial","32","true","0.8,0.2","3:go_c","",""
"null","","html-keyboard-response","224","258835","0.0-6.0-1.1","","<img src=""img/pink-n.png"" border=""10"">","null","trial","32","","0.8,0.2","3:go_c","0",""
"null","","html-keyboard-response","225","259836","0.0-6.0-2.1","","<div style=""font-size:60px;"">+</div>","null","","","","","","",""
"618.2899996638298","","image-keyboard-response","226","260455","0.0-6.0-0.2","","img/green.png","32","trial","null","false","0.2,0.8","4:nogo_d","",""
"null","","html-keyboard-response","227","261457","0.0-6.0-1.2","","<img src=""img/green-n.png"" border=""10"">","null","trial","null","","0.2,0.8","4:nogo_d","0",""
"null","","html-keyboard-response","228","262460","0.0-6.0-2.2","","<div style=""font-size:60px;"">+</div>","null","","","","","","",""
"829.1700002737343","","image-keyboard-response","229","263290","0.0-6.0-0.3","","img/grey.png","32","trial","32","true","0.8,0.2","1:go_a","",""
"null","","html-keyboard-response","230","264296","0.0-6.0-1.3","","<img src=""img/grey-r.png"" border=""10"">","null","trial","32","","0.8,0.2","1:go_a","1",""
"null","","html-keyboard-response","231","265298","0.0-6.0-2.3","","<div style=""font-size:60px;"">+</div>","null","","","","","","",""
"null","","image-keyboard-response","232","266800","0.0-6.0-0.4","","img/red.png","null","trial","null","true","0.2,0.8","2:nogo_b","",""
"null","","html-keyboard-response","233","267804","0.0-6.0-1.4","","<img src=""img/red-r.png"">","null","trial","null","","0.2,0.8","2:nogo_b","1",""
"null","","html-keyboard-response","234","268805","0.0-6.0-2.4","","<div style=""font-size:60px;"">+</div>","null","","","","","","",""
"660.3100001811981","","image-keyboard-response","235","269466","0.0-6.0-0.5","","img/pink.png","32","trial","32","true","0.8,0.2","3:go_c","",""
"null","","html-keyboard-response","236","270469","0.0-6.0-1.5","","<img src=""img/pink-r.png"" border=""10"">","null","trial","32","","0.8,0.2","3:go_c","1",""
"null","","html-keyboard-response","237","271472","0.0-6.0-2.5","","<div style=""font-size:60px;"">+</div>","null","","","","","","",""
"659.9299996159971","","image-keyboard-response","238","272132","0.0-6.0-0.6","","img/green.png","32","trial","null","false","0.2,0.8","4:nogo_d","",""
"null","","html-keyboard-response","239","273133","0.0-6.0-1.6","","<img src=""img/green-n.png"" border=""10"">","null","trial","null","","0.2,0.8","4:nogo_d","0",""
"null","","html-keyboard-response","240","274136","0.0-6.0-2.6","","<div style=""font-size:60px;"">+</div>","null","","","","","","",""
"null","","image-keyboard-response","241","275640","0.0-6.0-0.7","","img/grey.png","null","trial","32","false","0.8,0.2","1:go_a","",""
"null","","html-keyboard-response","242","276644","0.0-6.0-1.7","","<img src=""img/grey-n.png"">","null","trial","32","","0.8,0.2","1:go_a","0",""
"null","","html-keyboard-response","243","277647","0.0-6.0-2.7","","<div style=""font-size:60px;"">+</div>","null","","","","","","",""
"739.7449999116361","","image-keyboard-response","244","278388","0.0-6.0-0.8","","img/red.png","32","trial","null","false","0.2,0.8","2:nogo_b","",""
"null","","html-keyboard-response","245","279391","0.0-6.0-1.8","","<img src=""img/red-n.png"" border=""10"">","null","trial","null","","0.2,0.8","2:nogo_b","0",""
"null","","html-keyboard-response","246","280393","0.0-6.0-2.8","","<div style=""font-size:60px;"">+</div>","null","","","","","","",""
"998.0599996633828","","image-keyboard-response","247","281391","0.0-6.0-0.9","","img/pink.png","32","trial","32","true","0.8,0.2","3:go_c","",""
"null","","html-keyboard-response","248","282397","0.0-6.0-1.9","","<img src=""img/pink-r.png"" border=""10"">","null","trial","32","","0.8,0.2","3:go_c","1",""
"null","","html-keyboard-response","249","283401","0.0-6.0-2.9","","<div style=""font-size:60px;"">+</div>","null","","","","","","",""
"735.3300000540912","","image-keyboard-response","250","284136","0.0-6.0-0.10","","img/green.png","32","trial","null","false","0.2,0.8","4:nogo_d","",""
"null","","html-keyboard-response","251","285142","0.0-6.0-1.10","","<img src=""img/green-n.png"" border=""10"">","null","trial","null","","0.2,0.8","4:nogo_d","0",""
"null","","html-keyboard-response","252","286145","0.0-6.0-2.10","","<div style=""font-size:60px;"">+</div>","null","","","","","","",""
"null","","image-keyboard-response","253","287648","0.0-6.0-0.11","","img/grey.png","null","trial","32","false","0.8,0.2","1:go_a","",""
"null","","html-keyboard-response","254","288652","0.0-6.0-1.11","","<img src=""img/grey-r.png"">","null","trial","32","","0.8,0.2","1:go_a","1",""
"null","","html-keyboard-response","255","289656","0.0-6.0-2.11","","<div style=""font-size:60px;"">+</div>","null","","","","","","",""
"null","","image-keyboard-response","256","291160","0.0-6.0-0.12","","img/red.png","null","trial","null","true","0.2,0.8","2:nogo_b","",""
"null","","html-keyboard-response","257","292165","0.0-6.0-1.12","","<img src=""img/red-r.png"">","null","trial","null","","0.2,0.8","2:nogo_b","1",""
"null","","html-keyboard-response","258","293168","0.0-6.0-2.12","","<div style=""font-size:60px;"">+</div>","null","","","","","","",""
"935.8450002036989","","image-keyboard-response","259","294104","0.0-6.0-0.13","","img/grey.png","32","trial","32","true","0.8,0.2","1:go_a","",""
"null","","html-keyboard-response","260","295108","0.0-6.0-1.13","","<img src=""img/grey-r.png"" border=""10"">","null","trial","32","","0.8,0.2","1:go_a","1",""
"null","","html-keyboard-response","261","296113","0.0-6.0-2.13","","<div style=""font-size:60px;"">+</div>","null","","","","","","",""
"758.0099999904633","","image-keyboard-response","262","296871","0.0-6.0-0.14","","img/green.png","32","trial","null","false","0.2,0.8","4:nogo_d","",""
"null","","html-keyboard-response","263","297876","0.0-6.0-1.14","","<img src=""img/green-r.png"" border=""10"">","null","trial","null","","0.2,0.8","4:nogo_d","1",""
"null","","html-keyboard-response","264","298879","0.0-6.0-2.14","","<div style=""font-size:60px;"">+</div>","null","","","","","","",""
"827.335000038147","","image-keyboard-response","265","299707","0.0-6.0-0.15","","img/pink.png","32","trial","32","true","0.8,0.2","3:go_c","",""
"null","","html-keyboard-response","266","300712","0.0-6.0-1.15","","<img src=""img/pink-n.png"" border=""10"">","null","trial","32","","0.8,0.2","3:go_c","0",""
"null","","html-keyboard-response","267","301716","0.0-6.0-2.15","","<div style=""font-size:60px;"">+</div>","null","","","","","","",""
"948.8099999725819","","image-keyboard-response","268","302665","0.0-6.0-0.16","","img/red.png","32","trial","null","false","0.2,0.8","2:nogo_b","",""
"null","","html-keyboard-response","269","303668","0.0-6.0-1.16","","<img src=""img/red-n.png"" border=""10"">","null","trial","null","","0.2,0.8","2:nogo_b","0",""
"null","","html-keyboard-response","270","304669","0.0-6.0-2.16","","<div style=""font-size:60px;"">+</div>","null","","","","","","",""
"1011.2749999389052","","image-keyboard-response","271","305680","0.0-6.0-0.17","","img/pink.png","32","trial","32","true","0.8,0.2","3:go_c","",""
"null","","html-keyboard-response","272","306685","0.0-6.0-1.17","","<img src=""img/pink-r.png"" border=""10"">","null","trial","32","","0.8,0.2","3:go_c","1",""
"null","","html-keyboard-response","273","307688","0.0-6.0-2.17","","<div style=""font-size:60px;"">+</div>","null","","","","","","",""
"871.6649999842048","","image-keyboard-response","274","308561","0.0-6.0-0.18","","img/grey.png","32","trial","32","true","0.8,0.2","1:go_a","",""
"null","","html-keyboard-response","275","309565","0.0-6.0-1.18","","<img src=""img/grey-r.png"" border=""10"">","null","trial","32","","0.8,0.2","1:go_a","1",""
"null","","html-keyboard-response","276","310568","0.0-6.0-2.18","","<div style=""font-size:60px;"">+</div>","null","","","","","","",""
"781.9250002503395","","image-keyboard-response","277","311350","0.0-6.0-0.19","","img/green.png","32","trial","null","false","0.2,0.8","4:nogo_d","",""
"null","","html-keyboard-response","278","312356","0.0-6.0-1.19","","<img src=""img/green-r.png"" border=""10"">","null","trial","null","","0.2,0.8","4:nogo_d","1",""
"null","","html-keyboard-response","279","313359","0.0-6.0-2.19","","<div style=""font-size:60px;"">+</div>","null","","","","","","",""
"null","","image-keyboard-response","280","314861","0.0-6.0-0.20","","img/green.png","null","trial","null","true","0.2,0.8","4:nogo_d","",""
"null","","html-keyboard-response","281","315862","0.0-6.0-1.20","","<img src=""img/green-r.png"">","null","trial","null","","0.2,0.8","4:nogo_d","1",""
"null","","html-keyboard-response","282","316864","0.0-6.0-2.20","","<div style=""font-size:60px;"">+</div>","null","","","","","","",""
"843.2050002738833","","image-keyboard-response","283","317707","0.0-6.0-0.21","","img/pink.png","32","trial","32","true","0.8,0.2","3:go_c","",""
"null","","html-keyboard-response","284","318710","0.0-6.0-1.21","","<img src=""img/pink-r.png"" border=""10"">","null","trial","32","","0.8,0.2","3:go_c","1",""
"null","","html-keyboard-response","285","319714","0.0-6.0-2.21","","<div style=""font-size:60px;"">+</div>","null","","","","","","",""
"838.5649998672307","","image-keyboard-response","286","320553","0.0-6.0-0.22","","img/red.png","32","trial","null","false","0.2,0.8","2:nogo_b","",""
"null","","html-keyboard-response","287","321557","0.0-6.0-1.22","","<img src=""img/red-r.png"" border=""10"">","null","trial","null","","0.2,0.8","2:nogo_b","1",""
"null","","html-keyboard-response","288","322560","0.0-6.0-2.22","","<div style=""font-size:60px;"">+</div>","null","","","","","","",""
"null","","image-keyboard-response","289","324064","0.0-6.0-0.23","","img/grey.png","null","trial","32","false","0.8,0.2","1:go_a","",""
"null","","html-keyboard-response","290","325070","0.0-6.0-1.23","","<img src=""img/grey-n.png"">","null","trial","32","","0.8,0.2","1:go_a","0",""
"null","","html-keyboard-response","291","326073","0.0-6.0-2.23","","<div style=""font-size:60px;"">+</div>","null","","","","","","",""
"745.8949997089803","","image-keyboard-response","292","326819","0.0-6.0-0.24","","img/red.png","32","trial","null","false","0.2,0.8","2:nogo_b","",""
"null","","html-keyboard-response","293","327824","0.0-6.0-1.24","","<img src=""img/red-r.png"" border=""10"">","null","trial","null","","0.2,0.8","2:nogo_b","1",""
"null","","html-keyboard-response","294","328825","0.0-6.0-2.24","","<div style=""font-size:60px;"">+</div>","null","","","","","","",""
"null","","image-keyboard-response","295","330328","0.0-6.0-0.25","","img/grey.png","null","trial","32","false","0.8,0.2","1:go_a","",""
"null","","html-keyboard-response","296","331333","0.0-6.0-1.25","","<img src=""img/grey-n.png"">","null","trial","32","","0.8,0.2","1:go_a","0",""
"null","","html-keyboard-response","297","332336","0.0-6.0-2.25","","<div style=""font-size:60px;"">+</div>","null","","","","","","",""
"772.4500000476837","","image-keyboard-response","298","333109","0.0-6.0-0.26","","img/pink.png","32","trial","32","true","0.8,0.2","3:go_c","",""
"null","","html-keyboard-response","299","334114","0.0-6.0-1.26","","<img src=""img/pink-r.png"" border=""10"">","null","trial","32","","0.8,0.2","3:go_c","1",""
"null","","html-keyboard-response","300","335120","0.0-6.0-2.26","","<div style=""font-size:60px;"">+</div>","null","","","","","","",""
"744.2499999888241","","image-keyboard-response","301","335865","0.0-6.0-0.27","","img/green.png","32","trial","null","false","0.2,0.8","4:nogo_d","",""
"null","","html-keyboard-response","302","336866","0.0-6.0-1.27","","<img src=""img/green-n.png"" border=""10"">","null","trial","null","","0.2,0.8","4:nogo_d","0",""
"null","","html-keyboard-response","303","337869","0.0-6.0-2.27","","<div style=""font-size:60px;"">+</div>","null","","","","","","",""
"965.1799998246133","","image-keyboard-response","304","338835","0.0-6.0-0.28","","img/green.png","32","trial","null","false","0.2,0.8","4:nogo_d","",""
"null","","html-keyboard-response","305","339839","0.0-6.0-1.28","","<img src=""img/green-n.png"" border=""10"">","null","trial","null","","0.2,0.8","4:nogo_d","0",""
"null","","html-keyboard-response","306","340842","0.0-6.0-2.28","","<div style=""font-size:60px;"">+</div>","null","","","","","","",""
"null","","image-keyboard-response","307","342345","0.0-6.0-0.29","","img/grey.png","null","trial","32","false","0.8,0.2","1:go_a","",""
"null","","html-keyboard-response","308","343350","0.0-6.0-1.29","","<img src=""img/grey-n.png"">","null","trial","32","","0.8,0.2","1:go_a","0",""
"null","","html-keyboard-response","309","344352","0.0-6.0-2.29","","<div style=""font-size:60px;"">+</div>","null","","","","","","",""
"838.4849997237325","","image-keyboard-response","310","345191","0.0-6.0-0.30","","img/pink.png","32","trial","32","true","0.8,0.2","3:go_c","",""
"null","","html-keyboard-response","311","346197","0.0-6.0-1.30","","<img src=""img/pink-r.png"" border=""10"">","null","trial","32","","0.8,0.2","3:go_c","1",""
"null","","html-keyboard-response","312","347197","0.0-6.0-2.30","","<div style=""font-size:60px;"">+</div>","null","","","","","","",""
"794.6399999782443","","image-keyboard-response","313","347993","0.0-6.0-0.31","","img/red.png","32","trial","null","false","0.2,0.8","2:nogo_b","",""
"null","","html-keyboard-response","314","348995","0.0-6.0-1.31","","<img src=""img/red-n.png"" border=""10"">","null","trial","null","","0.2,0.8","2:nogo_b","0",""
"null","","html-keyboard-response","315","350000","0.0-6.0-2.31","","<div style=""font-size:60px;"">+</div>","null","","","","","","",""
"635.7350000180304","","image-keyboard-response","316","350636","0.0-6.0-0.32","","img/green.png","32","trial","null","false","0.2,0.8","4:nogo_d","",""
"null","","html-keyboard-response","317","351642","0.0-6.0-1.32","","<img src=""img/green-n.png"" border=""10"">","null","trial","null","","0.2,0.8","4:nogo_d","0",""
"null","","html-keyboard-response","318","352645","0.0-6.0-2.32","","<div style=""font-size:60px;"">+</div>","null","","","","","","",""
"769.9799998663366","","image-keyboard-response","319","353415","0.0-6.0-0.33","","img/grey.png","32","trial","32","true","0.8,0.2","1:go_a","",""
"null","","html-keyboard-response","320","354416","0.0-6.0-1.33","","<img src=""img/grey-r.png"" border=""10"">","null","trial","32","","0.8,0.2","1:go_a","1",""
"null","","html-keyboard-response","321","355419","0.0-6.0-2.33","","<div style=""font-size:60px;"">+</div>","null","","","","","","",""
"673.285000026226","","image-keyboard-response","322","356093","0.0-6.0-0.34","","img/red.png","32","trial","null","false","0.2,0.8","2:nogo_b","",""
"null","","html-keyboard-response","323","357099","0.0-6.0-1.34","","<img src=""img/red-r.png"" border=""10"">","null","trial","null","","0.2,0.8","2:nogo_b","1",""
"null","","html-keyboard-response","324","358104","0.0-6.0-2.34","","<div style=""font-size:60px;"">+</div>","null","","","","","","",""
"833.9100000448525","","image-keyboard-response","325","358939","0.0-6.0-0.35","","img/pink.png","32","trial","32","true","0.8,0.2","3:go_c","",""
"null","","html-keyboard-response","326","359943","0.0-6.0-1.35","","<img src=""img/pink-r.png"" border=""10"">","null","trial","32","","0.8,0.2","3:go_c","1",""
"null","","html-keyboard-response","327","360944","0.0-6.0-2.35","","<div style=""font-size:60px;"">+</div>","null","","","","","","",""
"1459.204999729991","","image-keyboard-response","328","362404","0.0-6.0-0.36","","img/grey.png","32","trial","32","true","0.8,0.2","1:go_a","",""
"null","","html-keyboard-response","329","363409","0.0-6.0-1.36","","<img src=""img/grey-r.png"" border=""10"">","null","trial","32","","0.8,0.2","1:go_a","1",""
"null","","html-keyboard-response","330","364411","0.0-6.0-2.36","","<div style=""font-size:60px;"">+</div>","null","","","","","","",""
"703.5850002430379","","image-keyboard-response","331","365115","0.0-6.0-0.37","","img/green.png","32","trial","null","false","0.2,0.8","4:nogo_d","",""
"null","","html-keyboard-response","332","366121","0.0-6.0-1.37","","<img src=""img/green-n.png"" border=""10"">","null","trial","null","","0.2,0.8","4:nogo_d","0",""
"null","","html-keyboard-response","333","367126","0.0-6.0-2.37","","<div style=""font-size:60px;"">+</div>","null","","","","","","",""
"723.0299999937415","","image-keyboard-response","334","367849","0.0-6.0-0.38","","img/pink.png","32","trial","32","true","0.8,0.2","3:go_c","",""
"null","","html-keyboard-response","335","368852","0.0-6.0-1.38","","<img src=""img/pink-r.png"" border=""10"">","null","trial","32","","0.8,0.2","3:go_c","1",""
"null","","html-keyboard-response","336","369857","0.0-6.0-2.38","","<div style=""font-size:60px;"">+</div>","null","","","","","","",""
"826.7850000411272","","image-keyboard-response","337","370684","0.0-6.0-0.39","","img/red.png","32","trial","null","false","0.2,0.8","2:nogo_b","",""
"null","","html-keyboard-response","338","371690","0.0-6.0-1.39","","<img src=""img/red-n.png"" border=""10"">","null","trial","null","","0.2,0.8","2:nogo_b","0",""
"null","","html-keyboard-response","339","372693","0.0-6.0-2.39","","<div style=""font-size:60px;"">+</div>","null","","","","","","",""
"768.8000001944602","","image-keyboard-response","340","373463","0.0-6.0-0.40","","img/red.png","32","trial","null","false","0.2,0.8","2:nogo_b","",""
"null","","html-keyboard-response","341","374465","0.0-6.0-1.40","","<img src=""img/red-n.png"" border=""10"">","null","trial","null","","0.2,0.8","2:nogo_b","0",""
"null","","html-keyboard-response","342","375466","0.0-6.0-2.40","","<div style=""font-size:60px;"">+</div>","null","","","","","","",""
"null","","image-keyboard-response","343","376968","0.0-6.0-0.41","","img/pink.png","null","trial","32","false","0.8,0.2","3:go_c","",""
"null","","html-keyboard-response","344","377968","0.0-6.0-1.41","","<img src=""img/pink-n.png"">","null","trial","32","","0.8,0.2","3:go_c","0",""
"null","","html-keyboard-response","345","378969","0.0-6.0-2.41","","<div style=""font-size:60px;"">+</div>","null","","","","","","",""
"null","","image-keyboard-response","346","380474","0.0-6.0-0.42","","img/grey.png","null","trial","32","false","0.8,0.2","1:go_a","",""
"null","","html-keyboard-response","347","381475","0.0-6.0-1.42","","<img src=""img/grey-n.png"">","null","trial","32","","0.8,0.2","1:go_a","0",""
"null","","html-keyboard-response","348","382476","0.0-6.0-2.42","","<div style=""font-size:60px;"">+</div>","null","","","","","","",""
"740.4600000008941","","image-keyboard-response","349","383217","0.0-6.0-0.43","","img/green.png","32","trial","null","false","0.2,0.8","4:nogo_d","",""
"null","","html-keyboard-response","350","384223","0.0-6.0-1.43","","<img src=""img/green-n.png"" border=""10"">","null","trial","null","","0.2,0.8","4:nogo_d","0",""
"null","","html-keyboard-response","351","385226","0.0-6.0-2.43","","<div style=""font-size:60px;"">+</div>","null","","","","","","",""
"null","","image-keyboard-response","352","386732","0.0-6.0-0.44","","img/grey.png","null","trial","32","false","0.8,0.2","1:go_a","",""
"null","","html-keyboard-response","353","387737","0.0-6.0-1.44","","<img src=""img/grey-n.png"">","null","trial","32","","0.8,0.2","1:go_a","0",""
"null","","html-keyboard-response","354","388740","0.0-6.0-2.44","","<div style=""font-size:60px;"">+</div>","null","","","","","","",""
"843.9799998886883","","image-keyboard-response","355","389585","0.0-6.0-0.45","","img/pink.png","32","trial","32","true","0.8,0.2","3:go_c","",""
"null","","html-keyboard-response","356","390587","0.0-6.0-1.45","","<img src=""img/pink-r.png"" border=""10"">","null","trial","32","","0.8,0.2","3:go_c","1",""
"null","","html-keyboard-response","357","391591","0.0-6.0-2.45","","<div style=""font-size:60px;"">+</div>","null","","","","","","",""
"761.0649997368455","","image-keyboard-response","358","392352","0.0-6.0-0.46","","img/green.png","32","trial","null","false","0.2,0.8","4:nogo_d","",""
"null","","html-keyboard-response","359","393357","0.0-6.0-1.46","","<img src=""img/green-n.png"" border=""10"">","null","trial","null","","0.2,0.8","4:nogo_d","0",""
"null","","html-keyboard-response","360","394357","0.0-6.0-2.46","","<div style=""font-size:60px;"">+</div>","null","","","","","","",""
"480.46999983489513","","image-keyboard-response","361","394838","0.0-6.0-0.47","","img/red.png","32","trial","null","false","0.2,0.8","2:nogo_b","",""
"null","","html-keyboard-response","362","395840","0.0-6.0-1.47","","<img src=""img/red-n.png"" border=""10"">","null","trial","null","","0.2,0.8","2:nogo_b","0",""
"null","","html-keyboard-response","363","396842","0.0-6.0-2.47","","<div style=""font-size:60px;"">+</div>","null","","","","","","",""
"639.3050001934171","","image-keyboard-response","364","397482","0.0-6.0-0.48","","img/grey.png","32","trial","32","true","0.8,0.2","1:go_a","",""
"null","","html-keyboard-response","365","398486","0.0-6.0-1.48","","<img src=""img/grey-n.png"" border=""10"">","null","trial","32","","0.8,0.2","1:go_a","0",""
"null","","html-keyboard-response","366","399488","0.0-6.0-2.48","","<div style=""font-size:60px;"">+</div>","null","","","","","","",""
"null","","image-keyboard-response","367","400994","0.0-6.0-0.49","","img/red.png","null","trial","null","true","0.2,0.8","2:nogo_b","",""
"null","","html-keyboard-response","368","401996","0.0-6.0-1.49","","<img src=""img/red-r.png"">","null","trial","null","","0.2,0.8","2:nogo_b","1",""
"null","","html-keyboard-response","369","403000","0.0-6.0-2.49","","<div style=""font-size:60px;"">+</div>","null","","","","","","",""
"691.5600001811981","","image-keyboard-response","370","403692","0.0-6.0-0.50","","img/pink.png","32","trial","32","true","0.8,0.2","3:go_c","",""
"null","","html-keyboard-response","371","404698","0.0-6.0-1.50","","<img src=""img/pink-n.png"" border=""10"">","null","trial","32","","0.8,0.2","3:go_c","0",""
"null","","html-keyboard-response","372","405699","0.0-6.0-2.50","","<div style=""font-size:60px;"">+</div>","null","","","","","","",""
"703.7700000219047","","image-keyboard-response","373","406404","0.0-6.0-0.51","","img/green.png","32","trial","null","false","0.2,0.8","4:nogo_d","",""
"null","","html-keyboard-response","374","407405","0.0-6.0-1.51","","<img src=""img/green-n.png"" border=""10"">","null","trial","null","","0.2,0.8","4:nogo_d","0",""
"null","","html-keyboard-response","375","408408","0.0-6.0-2.51","","<div style=""font-size:60px;"">+</div>","null","","","","","","",""
"null","","image-keyboard-response","376","409914","0.0-6.0-0.52","","img/grey.png","null","trial","32","false","0.8,0.2","1:go_a","",""
"null","","html-keyboard-response","377","410918","0.0-6.0-1.52","","<img src=""img/grey-r.png"">","null","trial","32","","0.8,0.2","1:go_a","1",""
"null","","html-keyboard-response","378","411919","0.0-6.0-2.52","","<div style=""font-size:60px;"">+</div>","null","","","","","","",""
"761.6099999286234","","image-keyboard-response","379","412681","0.0-6.0-0.53","","img/red.png","32","trial","null","false","0.2,0.8","2:nogo_b","",""
"null","","html-keyboard-response","380","413684","0.0-6.0-1.53","","<img src=""img/red-n.png"" border=""10"">","null","trial","null","","0.2,0.8","2:nogo_b","0",""
"null","","html-keyboard-response","381","414687","0.0-6.0-2.53","","<div style=""font-size:60px;"">+</div>","null","","","","","","",""
"603.3199997618794","","image-keyboard-response","382","415291","0.0-6.0-0.54","","img/green.png","32","trial","null","false","0.2,0.8","4:nogo_d","",""
"null","","html-keyboard-response","383","416295","0.0-6.0-1.54","","<img src=""img/green-n.png"" border=""10"">","null","trial","null","","0.2,0.8","4:nogo_d","0",""
"null","","html-keyboard-response","384","417296","0.0-6.0-2.54","","<div style=""font-size:60px;"">+</div>","null","","","","","","",""
"717.1549997292459","","image-keyboard-response","385","418014","0.0-6.0-0.55","","img/pink.png","32","trial","32","true","0.8,0.2","3:go_c","",""
"null","","html-keyboard-response","386","419015","0.0-6.0-1.55","","<img src=""img/pink-n.png"" border=""10"">","null","trial","32","","0.8,0.2","3:go_c","0",""
"null","","html-keyboard-response","387","420021","0.0-6.0-2.55","","<div style=""font-size:60px;"">+</div>","null","","","","","","",""
"1390.2349998243153","","image-keyboard-response","388","421411","0.0-6.0-0.56","","img/red.png","32","trial","null","false","0.2,0.8","2:nogo_b","",""
"null","","html-keyboard-response","389","422413","0.0-6.0-1.56","","<img src=""img/red-n.png"" border=""10"">","null","trial","null","","0.2,0.8","2:nogo_b","0",""
"null","","html-keyboard-response","390","423414","0.0-6.0-2.56","","<div style=""font-size:60px;"">+</div>","null","","","","","","",""
"null","","image-keyboard-response","391","424916","0.0-6.0-0.57","","img/green.png","null","trial","null","true","0.2,0.8","4:nogo_d","",""
"null","","html-keyboard-response","392","425921","0.0-6.0-1.57","","<img src=""img/green-n.png"">","null","trial","null","","0.2,0.8","4:nogo_d","0",""
"null","","html-keyboard-response","393","426924","0.0-6.0-2.57","","<div style=""font-size:60px;"">+</div>","null","","","","","","",""
"null","","image-keyboard-response","394","428428","0.0-6.0-0.58","","img/grey.png","null","trial","32","false","0.8,0.2","1:go_a","",""
"null","","html-keyboard-response","395","429432","0.0-6.0-1.58","","<img src=""img/grey-n.png"">","null","trial","32","","0.8,0.2","1:go_a","0",""
"null","","html-keyboard-response","396","430435","0.0-6.0-2.58","","<div style=""font-size:60px;"">+</div>","null","","","","","","",""
"999.5599999092519","","image-keyboard-response","397","431436","0.0-6.0-0.59","","img/pink.png","32","trial","32","true","0.8,0.2","3:go_c","",""
"null","","html-keyboard-response","398","432440","0.0-6.0-1.59","","<img src=""img/pink-r.png"" border=""10"">","null","trial","32","","0.8,0.2","3:go_c","1",""
"null","","html-keyboard-response","399","433443","0.0-6.0-2.59","","<div style=""font-size:60px;"">+</div>","null","","","","","","",""
"792.4700002186","","image-keyboard-response","400","434236","0.0-6.0-0.60","","img/grey.png","32","trial","32","true","0.8,0.2","1:go_a","",""
"null","","html-keyboard-response","401","435239","0.0-6.0-1.60","","<img src=""img/grey-r.png"" border=""10"">","null","trial","32","","0.8,0.2","1:go_a","1",""
"null","","html-keyboard-response","402","436242","0.0-6.0-2.60","","<div style=""font-size:60px;"">+</div>","null","","","","","","",""
"885.3799998760223","","image-keyboard-response","403","437128","0.0-6.0-0.61","","img/pink.png","32","trial","32","true","0.8,0.2","3:go_c","",""
"null","","html-keyboard-response","404","438130","0.0-6.0-1.61","","<img src=""img/pink-r.png"" border=""10"">","null","trial","32","","0.8,0.2","3:go_c","1",""
"null","","html-keyboard-response","405","439133","0.0-6.0-2.61","","<div style=""font-size:60px;"">+</div>","null","","","","","","",""
"694.6849999949336","","image-keyboard-response","406","439828","0.0-6.0-0.62","","img/green.png","32","trial","null","false","0.2,0.8","4:nogo_d","",""
"null","","html-keyboard-response","407","440834","0.0-6.0-1.62","","<img src=""img/green-n.png"" border=""10"">","null","trial","null","","0.2,0.8","4:nogo_d","0",""
"null","","html-keyboard-response","408","441837","0.0-6.0-2.62","","<div style=""font-size:60px;"">+</div>","null","","","","","","",""
"null","","image-keyboard-response","409","443342","0.0-6.0-0.63","","img/red.png","null","trial","null","true","0.2,0.8","2:nogo_b","",""
"null","","html-keyboard-response","410","444347","0.0-6.0-1.63","","<img src=""img/red-r.png"">","null","trial","null","","0.2,0.8","2:nogo_b","1",""
"null","","html-keyboard-response","411","445352","0.0-6.0-2.63","","<div style=""font-size:60px;"">+</div>","null","","","","","","",""
"910.8699997887015","","image-keyboard-response","412","446263","0.0-6.0-0.64","","img/pink.png","32","trial","32","true","0.8,0.2","3:go_c","",""
"null","","html-keyboard-response","413","447264","0.0-6.0-1.64","","<img src=""img/pink-r.png"" border=""10"">","null","trial","32","","0.8,0.2","3:go_c","1",""
"null","","html-keyboard-response","414","448266","0.0-6.0-2.64","","<div style=""font-size:60px;"">+</div>","null","","","","","","",""
"1225.5599997006357","","image-keyboard-response","415","449492","0.0-6.0-0.65","","img/red.png","32","trial","null","false","0.2,0.8","2:nogo_b","",""
"null","","html-keyboard-response","416","450493","0.0-6.0-1.65","","<img src=""img/red-n.png"" border=""10"">","null","trial","null","","0.2,0.8","2:nogo_b","0",""
"null","","html-keyboard-response","417","451499","0.0-6.0-2.65","","<div style=""font-size:60px;"">+</div>","null","","","","","","",""
"null","","image-keyboard-response","418","453002","0.0-6.0-0.66","","img/green.png","null","trial","null","true","0.2,0.8","4:nogo_d","",""
"null","","html-keyboard-response","419","454003","0.0-6.0-1.66","","<img src=""img/green-r.png"">","null","trial","null","","0.2,0.8","4:nogo_d","1",""
"null","","html-keyboard-response","420","455003","0.0-6.0-2.66","","<div style=""font-size:60px;"">+</div>","null","","","","","","",""
"777.1899998188019","","image-keyboard-response","421","455781","0.0-6.0-0.67","","img/grey.png","32","trial","32","true","0.8,0.2","1:go_a","",""
"null","","html-keyboard-response","422","456786","0.0-6.0-1.67","","<img src=""img/grey-n.png"" border=""10"">","null","trial","32","","0.8,0.2","1:go_a","0",""
"null","","html-keyboard-response","423","457790","0.0-6.0-2.67","","<div style=""font-size:60px;"">+</div>","null","","","","","","",""
"645.9550000727177","","image-keyboard-response","424","458436","0.0-6.0-0.68","","img/red.png","32","trial","null","false","0.2,0.8","2:nogo_b","",""
"null","","html-keyboard-response","425","459442","0.0-6.0-1.68","","<img src=""img/red-n.png"" border=""10"">","null","trial","null","","0.2,0.8","2:nogo_b","0",""
"null","","html-keyboard-response","426","460446","0.0-6.0-2.68","","<div style=""font-size:60px;"">+</div>","null","","","","","","",""
"null","","image-keyboard-response","427","461949","0.0-6.0-0.69","","img/green.png","null","trial","null","true","0.2,0.8","4:nogo_d","",""
"null","","html-keyboard-response","428","462954","0.0-6.0-1.69","","<img src=""img/green-r.png"">","null","trial","null","","0.2,0.8","4:nogo_d","1",""
"null","","html-keyboard-response","429","463956","0.0-6.0-2.69","","<div style=""font-size:60px;"">+</div>","null","","","","","","",""
"779.2599997483194","","image-keyboard-response","430","464736","0.0-6.0-0.70","","img/grey.png","32","trial","32","true","0.8,0.2","1:go_a","",""
"null","","html-keyboard-response","431","465737","0.0-6.0-1.70","","<img src=""img/grey-r.png"" border=""10"">","null","trial","32","","0.8,0.2","1:go_a","1",""
"null","","html-keyboard-response","432","466738","0.0-6.0-2.70","","<div style=""font-size:60px;"">+</div>","null","","","","","","",""
"775.9600002318621","","image-keyboard-response","433","467515","0.0-6.0-0.71","","img/pink.png","32","trial","32","true","0.8,0.2","3:go_c","",""
"null","","html-keyboard-response","434","468520","0.0-6.0-1.71","","<img src=""img/pink-r.png"" border=""10"">","null","trial","32","","0.8,0.2","3:go_c","1",""
"null","","html-keyboard-response","435","469523","0.0-6.0-2.71","","<div style=""font-size:60px;"">+</div>","null","","","","","","",""
"950.0049999915063","","image-keyboard-response","436","470474","0.0-6.0-0.72","","img/red.png","32","trial","null","false","0.2,0.8","2:nogo_b","",""
"null","","html-keyboard-response","437","471475","0.0-6.0-1.72","","<img src=""img/red-n.png"" border=""10"">","null","trial","null","","0.2,0.8","2:nogo_b","0",""
"null","","html-keyboard-response","438","472477","0.0-6.0-2.72","","<div style=""font-size:60px;"">+</div>","null","","","","","","",""
"null","","image-keyboard-response","439","473978","0.0-6.0-0.73","","img/grey.png","null","trial","32","false","0.8,0.2","1:go_a","",""
"null","","html-keyboard-response","440","474984","0.0-6.0-1.73","","<img src=""img/grey-n.png"">","null","trial","32","","0.8,0.2","1:go_a","0",""
"null","","html-keyboard-response","441","475988","0.0-6.0-2.73","","<div style=""font-size:60px;"">+</div>","null","","","","","","",""
"null","","image-keyboard-response","442","477489","0.0-6.0-0.74","","img/green.png","null","trial","null","true","0.2,0.8","4:nogo_d","",""
"null","","html-keyboard-response","443","478493","0.0-6.0-1.74","","<img src=""img/green-r.png"">","null","trial","null","","0.2,0.8","4:nogo_d","1",""
"null","","html-keyboard-response","444","479494","0.0-6.0-2.74","","<div style=""font-size:60px;"">+</div>","null","","","","","","",""
"665.6150002963841","","image-keyboard-response","445","480161","0.0-6.0-0.75","","img/pink.png","32","trial","32","true","0.8,0.2","3:go_c","",""
"null","","html-keyboard-response","446","481162","0.0-6.0-1.75","","<img src=""img/pink-r.png"" border=""10"">","null","trial","32","","0.8,0.2","3:go_c","1",""
"null","","html-keyboard-response","447","482166","0.0-6.0-2.75","","<div style=""font-size:60px;"">+</div>","null","","","","","","",""
"null","","image-keyboard-response","448","483672","0.0-6.0-0.76","","img/grey.png","null","trial","32","false","0.8,0.2","1:go_a","",""
"null","","html-keyboard-response","449","484676","0.0-6.0-1.76","","<img src=""img/grey-n.png"">","null","trial","32","","0.8,0.2","1:go_a","0",""
"null","","html-keyboard-response","450","485679","0.0-6.0-2.76","","<div style=""font-size:60px;"">+</div>","null","","","","","","",""
"null","","image-keyboard-response","451","487182","0.0-6.0-0.77","","img/red.png","null","trial","null","true","0.2,0.8","2:nogo_b","",""
"null","","html-keyboard-response","452","488186","0.0-6.0-1.77","","<img src=""img/red-r.png"">","null","trial","null","","0.2,0.8","2:nogo_b","1",""
"null","","html-keyboard-response","453","489189","0.0-6.0-2.77","","<div style=""font-size:60px;"">+</div>","null","","","","","","",""
"792.310000397265","","image-keyboard-response","454","489982","0.0-6.0-0.78","","img/pink.png","32","trial","32","true","0.8,0.2","3:go_c","",""
"null","","html-keyboard-response","455","490984","0.0-6.0-1.78","","<img src=""img/pink-r.png"" border=""10"">","null","trial","32","","0.8,0.2","3:go_c","1",""
"null","","html-keyboard-response","456","491988","0.0-6.0-2.78","","<div style=""font-size:60px;"">+</div>","null","","","","","","",""
"704.375000204891","","image-keyboard-response","457","492693","0.0-6.0-0.79","","img/green.png","32","trial","null","false","0.2,0.8","4:nogo_d","",""
"null","","html-keyboard-response","458","493698","0.0-6.0-1.79","","<img src=""img/green-n.png"" border=""10"">","null","trial","null","","0.2,0.8","4:nogo_d","0",""
"null","","html-keyboard-response","459","494702","0.0-6.0-2.79","","<div style=""font-size:60px;"">+</div>","null","","","","","","",""
"769.1799998283386","","image-keyboard-response","460","495471","0.0-6.0-0.80","","img/grey.png","32","trial","32","true","0.8,0.2","1:go_a","",""
"null","","html-keyboard-response","461","496477","0.0-6.0-1.80","","<img src=""img/grey-n.png"" border=""10"">","null","trial","32","","0.8,0.2","1:go_a","0",""
"null","","html-keyboard-response","462","497481","0.0-6.0-2.80","","<div style=""font-size:60px;"">+</div>","null","","","","","","",""
"null","","image-keyboard-response","463","498982","0.0-6.0-0.81","","img/pink.png","null","trial","32","false","0.8,0.2","3:go_c","",""
"null","","html-keyboard-response","464","499985","0.0-6.0-1.81","","<img src=""img/pink-n.png"">","null","trial","32","","0.8,0.2","3:go_c","0",""
"null","","html-keyboard-response","465","500987","0.0-6.0-2.81","","<div style=""font-size:60px;"">+</div>","null","","","","","","",""
"null","","image-keyboard-response","466","502492","0.0-6.0-0.82","","img/green.png","null","trial","null","true","0.2,0.8","4:nogo_d","",""
"null","","html-keyboard-response","467","503494","0.0-6.0-1.82","","<img src=""img/green-r.png"">","null","trial","null","","0.2,0.8","4:nogo_d","1",""
"null","","html-keyboard-response","468","504496","0.0-6.0-2.82","","<div style=""font-size:60px;"">+</div>","null","","","","","","",""
"728.7849998101592","","image-keyboard-response","469","505225","0.0-6.0-0.83","","img/red.png","32","trial","null","false","0.2,0.8","2:nogo_b","",""
"null","","html-keyboard-response","470","506227","0.0-6.0-1.83","","<img src=""img/red-n.png"" border=""10"">","null","trial","null","","0.2,0.8","2:nogo_b","0",""
"null","","html-keyboard-response","471","507232","0.0-6.0-2.83","","<div style=""font-size:60px;"">+</div>","null","","","","","","",""
"null","","image-keyboard-response","472","508737","0.0-6.0-0.84","","img/pink.png","null","trial","32","false","0.8,0.2","3:go_c","",""
"null","","html-keyboard-response","473","509740","0.0-6.0-1.84","","<img src=""img/pink-n.png"">","null","trial","32","","0.8,0.2","3:go_c","0",""
"null","","html-keyboard-response","474","510744","0.0-6.0-2.84","","<div style=""font-size:60px;"">+</div>","null","","","","","","",""
"1185.7750001363456","","image-keyboard-response","475","511930","0.0-6.0-0.85","","img/grey.png","32","trial","32","true","0.8,0.2","1:go_a","",""
"null","","html-keyboard-response","476","512934","0.0-6.0-1.85","","<img src=""img/grey-n.png"" border=""10"">","null","trial","32","","0.8,0.2","1:go_a","0",""
"null","","html-keyboard-response","477","513936","0.0-6.0-2.85","","<div style=""font-size:60px;"">+</div>","null","","","","","","",""
"1031.3900001347065","","image-keyboard-response","478","514967","0.0-6.0-0.86","","img/red.png","32","trial","null","false","0.2,0.8","2:nogo_b","",""
"null","","html-keyboard-response","479","515972","0.0-6.0-1.86","","<img src=""img/red-n.png"" border=""10"">","null","trial","null","","0.2,0.8","2:nogo_b","0",""
"null","","html-keyboard-response","480","516975","0.0-6.0-2.86","","<div style=""font-size:60px;"">+</div>","null","","","","","","",""
"848.9800002425909","","image-keyboard-response","481","517825","0.0-6.0-0.87","","img/green.png","32","trial","null","false","0.2,0.8","4:nogo_d","",""
"null","","html-keyboard-response","482","518830","0.0-6.0-1.87","","<img src=""img/green-n.png"" border=""10"">","null","trial","null","","0.2,0.8","4:nogo_d","0",""
"null","","html-keyboard-response","483","519832","0.0-6.0-2.87","","<div style=""font-size:60px;"">+</div>","null","","","","","","",""
"null","","image-keyboard-response","484","521333","0.0-6.0-0.88","","img/green.png","null","trial","null","true","0.2,0.8","4:nogo_d","",""
"null","","html-keyboard-response","485","522337","0.0-6.0-1.88","","<img src=""img/green-r.png"">","null","trial","null","","0.2,0.8","4:nogo_d","1",""
"null","","html-keyboard-response","486","523341","0.0-6.0-2.88","","<div style=""font-size:60px;"">+</div>","null","","","","","","",""
"659.8450001329184","","image-keyboard-response","487","524001","0.0-6.0-0.89","","img/pink.png","32","trial","32","true","0.8,0.2","3:go_c","",""
"null","","html-keyboard-response","488","525007","0.0-6.0-1.89","","<img src=""img/pink-r.png"" border=""10"">","null","trial","32","","0.8,0.2","3:go_c","1",""
"null","","html-keyboard-response","489","526010","0.0-6.0-2.89","","<div style=""font-size:60px;"">+</div>","null","","","","","","",""
"null","","image-keyboard-response","490","527511","0.0-6.0-0.90","","img/grey.png","null","trial","32","false","0.8,0.2","1:go_a","",""
"null","","html-keyboard-response","491","528512","0.0-6.0-1.90","","<img src=""img/grey-n.png"">","null","trial","32","","0.8,0.2","1:go_a","0",""
"null","","html-keyboard-response","492","529516","0.0-6.0-2.90","","<div style=""font-size:60px;"">+</div>","null","","","","","","",""
"751.5449998900294","","image-keyboard-response","493","530268","0.0-6.0-0.91","","img/red.png","32","trial","null","false","0.2,0.8","2:nogo_b","",""
"null","","html-keyboard-response","494","531271","0.0-6.0-1.91","","<img src=""img/red-n.png"" border=""10"">","null","trial","null","","0.2,0.8","2:nogo_b","0",""
"null","","html-keyboard-response","495","532274","0.0-6.0-2.91","","<div style=""font-size:60px;"">+</div>","null","","","","","","",""
"726.7100000753999","","image-keyboard-response","496","533001","0.0-6.0-0.92","","img/red.png","32","trial","null","false","0.2,0.8","2:nogo_b","",""
"null","","html-keyboard-response","497","534002","0.0-6.0-1.92","","<img src=""img/red-n.png"" border=""10"">","null","trial","null","","0.2,0.8","2:nogo_b","0",""
"null","","html-keyboard-response","498","535004","0.0-6.0-2.92","","<div style=""font-size:60px;"">+</div>","null","","","","","","",""
"842.4199996516109","","image-keyboard-response","499","535847","0.0-6.0-0.93","","img/grey.png","32","trial","32","true","0.8,0.2","1:go_a","",""
"null","","html-keyboard-response","500","536848","0.0-6.0-1.93","","<img src=""img/grey-r.png"" border=""10"">","null","trial","32","","0.8,0.2","1:go_a","1",""
"null","","html-keyboard-response","501","537852","0.0-6.0-2.93","","<div style=""font-size:60px;"">+</div>","null","","","","","","",""
"695.2650002203882","","image-keyboard-response","502","538547","0.0-6.0-0.94","","img/pink.png","32","trial","32","true","0.8,0.2","3:go_c","",""
"null","","html-keyboard-response","503","539549","0.0-6.0-1.94","","<img src=""img/pink-r.png"" border=""10"">","null","trial","32","","0.8,0.2","3:go_c","1",""
"null","","html-keyboard-response","504","540552","0.0-6.0-2.94","","<div style=""font-size:60px;"">+</div>","null","","","","","","",""
"796.6449996456504","","image-keyboard-response","505","541349","0.0-6.0-0.95","","img/green.png","32","trial","null","false","0.2,0.8","4:nogo_d","",""
"null","","html-keyboard-response","506","542353","0.0-6.0-1.95","","<img src=""img/green-n.png"" border=""10"">","null","trial","null","","0.2,0.8","4:nogo_d","0",""
"null","","html-keyboard-response","507","543356","0.0-6.0-2.95","","<div style=""font-size:60px;"">+</div>","null","","","","","","",""
"null","","image-keyboard-response","508","544857","0.0-6.0-0.96","","img/grey.png","null","trial","32","false","0.8,0.2","1:go_a","",""
"null","","html-keyboard-response","509","545858","0.0-6.0-1.96","","<img src=""img/grey-n.png"">","null","trial","32","","0.8,0.2","1:go_a","0",""
"null","","html-keyboard-response","510","546860","0.0-6.0-2.96","","<div style=""font-size:60px;"">+</div>","null","","","","","","",""
"597.7300000376999","","image-keyboard-response","511","547458","0.0-6.0-0.97","","img/pink.png","32","trial","32","true","0.8,0.2","3:go_c","",""
"null","","html-keyboard-response","512","548460","0.0-6.0-1.97","","<img src=""img/pink-r.png"" border=""10"">","null","trial","32","","0.8,0.2","3:go_c","1",""
"null","","html-keyboard-response","513","549464","0.0-6.0-2.97","","<div style=""font-size:60px;"">+</div>","null","","","","","","",""
"783.5849998518825","","image-keyboard-response","514","550248","0.0-6.0-0.98","","img/red.png","32","trial","null","false","0.2,0.8","2:nogo_b","",""
"null","","html-keyboard-response","515","551249","0.0-6.0-1.98","","<img src=""img/red-n.png"" border=""10"">","null","trial","null","","0.2,0.8","2:nogo_b","0",""
"null","","html-keyboard-response","516","552252","0.0-6.0-2.98","","<div style=""font-size:60px;"">+</div>","null","","","","","","",""
"1066.4849998429418","","image-keyboard-response","517","553319","0.0-6.0-0.99","","img/green.png","32","trial","null","false","0.2,0.8","4:nogo_d","",""
"null","","html-keyboard-response","518","554322","0.0-6.0-1.99","","<img src=""img/green-n.png"" border=""10"">","null","trial","null","","0.2,0.8","4:nogo_d","0",""
"null","","html-keyboard-response","519","555325","0.0-6.0-2.99","","<div style=""font-size:60px;"">+</div>","null","","","","","","",""
"648.1550000607967","","image-keyboard-response","520","555974","0.0-6.0-0.100","","img/green.png","32","trial","null","false","0.2,0.8","4:nogo_d","",""
"null","","html-keyboard-response","521","556980","0.0-6.0-1.100","","<img src=""img/green-r.png"" border=""10"">","null","trial","null","","0.2,0.8","4:nogo_d","1",""
"null","","html-keyboard-response","522","557983","0.0-6.0-2.100","","<div style=""font-size:60px;"">+</div>","null","","","","","","",""
"null","","image-keyboard-response","523","559484","0.0-6.0-0.101","","img/pink.png","null","trial","32","false","0.8,0.2","3:go_c","",""
"null","","html-keyboard-response","524","560489","0.0-6.0-1.101","","<img src=""img/pink-r.png"">","null","trial","32","","0.8,0.2","3:go_c","1",""
"null","","html-keyboard-response","525","561491","0.0-6.0-2.101","","<div style=""font-size:60px;"">+</div>","null","","","","","","",""
"1030.1800002343953","","image-keyboard-response","526","562522","0.0-6.0-0.102","","img/grey.png","32","trial","32","true","0.8,0.2","1:go_a","",""
"null","","html-keyboard-response","527","563527","0.0-6.0-1.102","","<img src=""img/grey-r.png"" border=""10"">","null","trial","32","","0.8,0.2","1:go_a","1",""
"null","","html-keyboard-response","528","564530","0.0-6.0-2.102","","<div style=""font-size:60px;"">+</div>","null","","","","","","",""
"null","","image-keyboard-response","529","566032","0.0-6.0-0.103","","img/red.png","null","trial","null","true","0.2,0.8","2:nogo_b","",""
"null","","html-keyboard-response","530","567036","0.0-6.0-1.103","","<img src=""img/red-n.png"">","null","trial","null","","0.2,0.8","2:nogo_b","0",""
"null","","html-keyboard-response","531","568042","0.0-6.0-2.103","","<div style=""font-size:60px;"">+</div>","null","","","","","","",""
"712.2800000943244","","image-keyboard-response","532","568754","0.0-6.0-0.104","","img/pink.png","32","trial","32","true","0.8,0.2","3:go_c","",""
"null","","html-keyboard-response","533","569760","0.0-6.0-1.104","","<img src=""img/pink-r.png"" border=""10"">","null","trial","32","","0.8,0.2","3:go_c","1",""
"null","","html-keyboard-response","534","570761","0.0-6.0-2.104","","<div style=""font-size:60px;"">+</div>","null","","","","","","",""
"794.0099998377264","","image-keyboard-response","535","571556","0.0-6.0-0.105","","img/red.png","32","trial","null","false","0.2,0.8","2:nogo_b","",""
"null","","html-keyboard-response","536","572557","0.0-6.0-1.105","","<img src=""img/red-n.png"" border=""10"">","null","trial","null","","0.2,0.8","2:nogo_b","0",""
"null","","html-keyboard-response","537","573562","0.0-6.0-2.105","","<div style=""font-size:60px;"">+</div>","null","","","","","","",""
"749.49000030756","","image-keyboard-response","538","574312","0.0-6.0-0.106","","img/green.png","32","trial","null","false","0.2,0.8","4:nogo_d","",""
"null","","html-keyboard-response","539","575317","0.0-6.0-1.106","","<img src=""img/green-r.png"" border=""10"">","null","trial","null","","0.2,0.8","4:nogo_d","1",""
"null","","html-keyboard-response","540","576320","0.0-6.0-2.106","","<div style=""font-size:60px;"">+</div>","null","","","","","","",""
"null","","image-keyboard-response","541","577821","0.0-6.0-0.107","","img/grey.png","null","trial","32","false","0.8,0.2","1:go_a","",""
"null","","html-keyboard-response","542","578826","0.0-6.0-1.107","","<img src=""img/grey-n.png"">","null","trial","32","","0.8,0.2","1:go_a","0",""
"null","","html-keyboard-response","543","579829","0.0-6.0-2.107","","<div style=""font-size:60px;"">+</div>","null","","","","","","",""
"1109.2500002123415","","image-keyboard-response","544","580938","0.0-6.0-0.108","","img/grey.png","32","trial","32","true","0.8,0.2","1:go_a","",""
"null","","html-keyboard-response","545","581940","0.0-6.0-1.108","","<img src=""img/grey-r.png"" border=""10"">","null","trial","32","","0.8,0.2","1:go_a","1",""
"null","","html-keyboard-response","546","582943","0.0-6.0-2.108","","<div style=""font-size:60px;"">+</div>","null","","","","","","",""
"1291.4649997837842","","image-keyboard-response","547","584235","0.0-6.0-0.109","","img/pink.png","32","trial","32","true","0.8,0.2","3:go_c","",""
"null","","html-keyboard-response","548","585239","0.0-6.0-1.109","","<img src=""img/pink-r.png"" border=""10"">","null","trial","32","","0.8,0.2","3:go_c","1",""
"null","","html-keyboard-response","549","586242","0.0-6.0-2.109","","<div style=""font-size:60px;"">+</div>","null","","","","","","",""
"null","","image-keyboard-response","550","587743","0.0-6.0-0.110","","img/red.png","null","trial","null","true","0.2,0.8","2:nogo_b","",""
"null","","html-keyboard-response","551","588747","0.0-6.0-1.110","","<img src=""img/red-r.png"">","null","trial","null","","0.2,0.8","2:nogo_b","1",""
"null","","html-keyboard-response","552","589750","0.0-6.0-2.110","","<div style=""font-size:60px;"">+</div>","null","","","","","","",""
"660.024999640882","","image-keyboard-response","553","590411","0.0-6.0-0.111","","img/green.png","32","trial","null","false","0.2,0.8","4:nogo_d","",""
"null","","html-keyboard-response","554","591414","0.0-6.0-1.111","","<img src=""img/green-n.png"" border=""10"">","null","trial","null","","0.2,0.8","4:nogo_d","0",""
"null","","html-keyboard-response","555","592417","0.0-6.0-2.111","","<div style=""font-size:60px;"">+</div>","null","","","","","","",""
"873.4000003896654","","image-keyboard-response","556","593291","0.0-6.0-0.112","","img/pink.png","32","trial","32","true","0.8,0.2","3:go_c","",""
"null","","html-keyboard-response","557","594297","0.0-6.0-1.112","","<img src=""img/pink-r.png"" border=""10"">","null","trial","32","","0.8,0.2","3:go_c","1",""
"null","","html-keyboard-response","558","595299","0.0-6.0-2.112","","<div style=""font-size:60px;"">+</div>","null","","","","","","",""
"null","","image-keyboard-response","559","596803","0.0-6.0-0.113","","img/red.png","null","trial","null","true","0.2,0.8","2:nogo_b","",""
"null","","html-keyboard-response","560","597805","0.0-6.0-1.113","","<img src=""img/red-r.png"">","null","trial","null","","0.2,0.8","2:nogo_b","1",""
"null","","html-keyboard-response","561","598809","0.0-6.0-2.113","","<div style=""font-size:60px;"">+</div>","null","","","","","","",""
"668.5000001452863","","image-keyboard-response","562","599479","0.0-6.0-0.114","","img/green.png","32","trial","null","false","0.2,0.8","4:nogo_d","",""
"null","","html-keyboard-response","563","600481","0.0-6.0-1.114","","<img src=""img/green-n.png"" border=""10"">","null","trial","null","","0.2,0.8","4:nogo_d","0",""
"null","","html-keyboard-response","564","601484","0.0-6.0-2.114","","<div style=""font-size:60px;"">+</div>","null","","","","","","",""
"1357.9199998639524","","image-keyboard-response","565","602842","0.0-6.0-0.115","","img/grey.png","32","trial","32","true","0.8,0.2","1:go_a","",""
"null","","html-keyboard-response","566","603846","0.0-6.0-1.115","","<img src=""img/grey-r.png"" border=""10"">","null","trial","32","","0.8,0.2","1:go_a","1",""
"null","","html-keyboard-response","567","604846","0.0-6.0-2.115","","<div style=""font-size:60px;"">+</div>","null","","","","","","",""
"774.6449997648597","","image-keyboard-response","568","605621","0.0-6.0-0.116","","img/grey.png","32","trial","32","true","0.8,0.2","1:go_a","",""
"null","","html-keyboard-response","569","606627","0.0-6.0-1.116","","<img src=""img/grey-r.png"" border=""10"">","null","trial","32","","0.8,0.2","1:go_a","1",""
"null","","html-keyboard-response","570","607631","0.0-6.0-2.116","","<div style=""font-size:60px;"">+</div>","null","","","","","","",""
"null","","image-keyboard-response","571","609136","0.0-6.0-0.117","","img/green.png","null","trial","null","true","0.2,0.8","4:nogo_d","",""
"null","","html-keyboard-response","572","610137","0.0-6.0-1.117","","<img src=""img/green-n.png"">","null","trial","null","","0.2,0.8","4:nogo_d","0",""
"null","","html-keyboard-response","573","611141","0.0-6.0-2.117","","<div style=""font-size:60px;"">+</div>","null","","","","","","",""
"null","","image-keyboard-response","574","612647","0.0-6.0-0.118","","img/pink.png","null","trial","32","false","0.8,0.2","3:go_c","",""
"null","","html-keyboard-response","575","613650","0.0-6.0-1.118","","<img src=""img/pink-n.png"">","null","trial","32","","0.8,0.2","3:go_c","0",""
"null","","html-keyboard-response","576","614653","0.0-6.0-2.118","","<div style=""font-size:60px;"">+</div>","null","","","","","","",""
"null","","image-keyboard-response","577","616156","0.0-6.0-0.119","","img/red.png","null","trial","null","true","0.2,0.8","2:nogo_b","",""
"null","","html-keyboard-response","578","617160","0.0-6.0-1.119","","<img src=""img/red-r.png"">","null","trial","null","","0.2,0.8","2:nogo_b","1",""
"null","","html-keyboard-response","579","618165","0.0-6.0-2.119","","<div style=""font-size:60px;"">+</div>","null","","","","","","",""
"60116.95500044152","","instructions","580","678282","0.0-7.0","[{""page_index"":0,""viewing_time"":60116.730000358075}]","","","","","","","","",""
"971.5400002896786","","image-keyboard-response","581","679254","0.0-8.0-0.0","","img/blue.png","32","trial","null","false","0.4,0.6","4:nogo_d","",""
"null","","html-keyboard-response","582","680257","0.0-8.0-1.0","","<img src=""img/blue-r.png"" border=""10"">","null","trial","null","","0.4,0.6","4:nogo_d","1",""
"null","","html-keyboard-response","583","681259","0.0-8.0-2.0","","<div style=""font-size:60px;"">+</div>","null","","","","","","",""
"874.2249999195337","","image-keyboard-response","584","682134","0.0-8.0-0.1","","img/grey.png","32","trial","32","true","0.6,0.4","3:go_c","",""
"null","","html-keyboard-response","585","683137","0.0-8.0-1.1","","<img src=""img/grey-n.png"" border=""10"">","null","trial","32","","0.6,0.4","3:go_c","0",""
"null","","html-keyboard-response","586","684140","0.0-8.0-2.1","","<div style=""font-size:60px;"">+</div>","null","","","","","","",""
"670.6850002519786","","image-keyboard-response","587","684811","0.0-8.0-0.2","","img/purple.png","32","trial","null","false","0.4,0.6","2:nogo_b","",""
"null","","html-keyboard-response","588","685813","0.0-8.0-1.2","","<img src=""img/purple-n.png"" border=""10"">","null","trial","null","","0.4,0.6","2:nogo_b","0",""
"null","","html-keyboard-response","589","686813","0.0-8.0-2.2","","<div style=""font-size:60px;"">+</div>","null","","","","","","",""
"null","","image-keyboard-response","590","688319","0.0-8.0-0.3","","img/red.png","null","trial","32","false","0.6,0.4","1:go_a","",""
"null","","html-keyboard-response","591","689323","0.0-8.0-1.3","","<img src=""img/red-r.png"">","null","trial","32","","0.6,0.4","1:go_a","1",""
"null","","html-keyboard-response","592","690327","0.0-8.0-2.3","","<div style=""font-size:60px;"">+</div>","null","","","","","","",""
"795.6949998624623","","image-keyboard-response","593","691123","0.0-8.0-0.4","","img/purple.png","32","trial","null","false","0.4,0.6","2:nogo_b","",""
"null","","html-keyboard-response","594","692124","0.0-8.0-1.4","","<img src=""img/purple-n.png"" border=""10"">","null","trial","null","","0.4,0.6","2:nogo_b","0",""
"null","","html-keyboard-response","595","693127","0.0-8.0-2.4","","<div style=""font-size:60px;"">+</div>","null","","","","","","",""
"548.7449998036027","","image-keyboard-response","596","693676","0.0-8.0-0.5","","img/blue.png","32","trial","null","false","0.4,0.6","4:nogo_d","",""
"null","","html-keyboard-response","597","694678","0.0-8.0-1.5","","<img src=""img/blue-r.png"" border=""10"">","null","trial","null","","0.4,0.6","4:nogo_d","1",""
"null","","html-keyboard-response","598","695681","0.0-8.0-2.5","","<div style=""font-size:60px;"">+</div>","null","","","","","","",""
"null","","image-keyboard-response","599","697182","0.0-8.0-0.6","","img/red.png","null","trial","32","false","0.6,0.4","1:go_a","",""
"null","","html-keyboard-response","600","698183","0.0-8.0-1.6","","<img src=""img/red-n.png"">","null","trial","32","","0.6,0.4","1:go_a","0",""
"null","","html-keyboard-response","601","699185","0.0-8.0-2.6","","<div style=""font-size:60px;"">+</div>","null","","","","","","",""
"408.5150002501905","","image-keyboard-response","602","699594","0.0-8.0-0.7","","img/grey.png","32","trial","32","true","0.6,0.4","3:go_c","",""
"null","","html-keyboard-response","603","700596","0.0-8.0-1.7","","<img src=""img/grey-r.png"" border=""10"">","null","trial","32","","0.6,0.4","3:go_c","1",""
"null","","html-keyboard-response","604","701597","0.0-8.0-2.7","","<div style=""font-size:60px;"">+</div>","null","","","","","","",""
"null","","image-keyboard-response","605","703103","0.0-8.0-0.8","","img/grey.png","null","trial","32","false","0.6,0.4","3:go_c","",""
"null","","html-keyboard-response","606","704108","0.0-8.0-1.8","","<img src=""img/grey-r.png"">","null","trial","32","","0.6,0.4","3:go_c","1",""
"null","","html-keyboard-response","607","705113","0.0-8.0-2.8","","<div style=""font-size:60px;"">+</div>","null","","","","","","",""
"657.6749999076128","","image-keyboard-response","608","705771","0.0-8.0-0.9","","img/red.png","32","trial","32","true","0.6,0.4","1:go_a","",""
"null","","html-keyboard-response","609","706774","0.0-8.0-1.9","","<img src=""img/red-r.png"" border=""10"">","null","trial","32","","0.6,0.4","1:go_a","1",""
"null","","html-keyboard-response","610","707778","0.0-8.0-2.9","","<div style=""font-size:60px;"">+</div>","null","","","","","","",""
"591.1350003443658","","image-keyboard-response","611","708369","0.0-8.0-0.10","","img/blue.png","32","trial","null","false","0.4,0.6","4:nogo_d","",""
"null","","html-keyboard-response","612","709372","0.0-8.0-1.10","","<img src=""img/blue-n.png"" border=""10"">","null","trial","null","","0.4,0.6","4:nogo_d","0",""
"null","","html-keyboard-response","613","710375","0.0-8.0-2.10","","<div style=""font-size:60px;"">+</div>","null","","","","","","",""
"502.9350002296269","","image-keyboard-response","614","710878","0.0-8.0-0.11","","img/purple.png","32","trial","null","false","0.4,0.6","2:nogo_b","",""
"null","","html-keyboard-response","615","711880","0.0-8.0-1.11","","<img src=""img/purple-r.png"" border=""10"">","null","trial","null","","0.4,0.6","2:nogo_b","1",""
"null","","html-keyboard-response","616","712884","0.0-8.0-2.11","","<div style=""font-size:60px;"">+</div>","null","","","","","","",""
"null","","image-keyboard-response","617","714389","0.0-8.0-0.12","","img/grey.png","null","trial","32","false","0.6,0.4","3:go_c","",""
"null","","html-keyboard-response","618","715391","0.0-8.0-1.12","","<img src=""img/grey-n.png"">","null","trial","32","","0.6,0.4","3:go_c","0",""
"null","","html-keyboard-response","619","716395","0.0-8.0-2.12","","<div style=""font-size:60px;"">+</div>","null","","","","","","",""
"704.4049999676645","","image-keyboard-response","620","717100","0.0-8.0-0.13","","img/blue.png","32","trial","null","false","0.4,0.6","4:nogo_d","",""
"null","","html-keyboard-response","621","718106","0.0-8.0-1.13","","<img src=""img/blue-n.png"" border=""10"">","null","trial","null","","0.4,0.6","4:nogo_d","0",""
"null","","html-keyboard-response","622","719109","0.0-8.0-2.13","","<div style=""font-size:60px;"">+</div>","null","","","","","","",""
"813.6549997143447","","image-keyboard-response","623","719923","0.0-8.0-0.14","","img/purple.png","32","trial","null","false","0.4,0.6","2:nogo_b","",""
"null","","html-keyboard-response","624","720928","0.0-8.0-1.14","","<img src=""img/purple-r.png"" border=""10"">","null","trial","null","","0.4,0.6","2:nogo_b","1",""
"null","","html-keyboard-response","625","721929","0.0-8.0-2.14","","<div style=""font-size:60px;"">+</div>","null","","","","","","",""
"649.0750000812113","","image-keyboard-response","626","722578","0.0-8.0-0.15","","img/red.png","32","trial","32","true","0.6,0.4","1:go_a","",""
"null","","html-keyboard-response","627","723579","0.0-8.0-1.15","","<img src=""img/red-n.png"" border=""10"">","null","trial","32","","0.6,0.4","1:go_a","0",""
"null","","html-keyboard-response","628","724583","0.0-8.0-2.15","","<div style=""font-size:60px;"">+</div>","null","","","","","","",""
"593.5949999839067","","image-keyboard-response","629","725177","0.0-8.0-0.16","","img/blue.png","32","trial","null","false","0.4,0.6","4:nogo_d","",""
"null","","html-keyboard-response","630","726179","0.0-8.0-1.16","","<img src=""img/blue-n.png"" border=""10"">","null","trial","null","","0.4,0.6","4:nogo_d","0",""
"null","","html-keyboard-response","631","727183","0.0-8.0-2.16","","<div style=""font-size:60px;"">+</div>","null","","","","","","",""
"784.2250000685453","","image-keyboard-response","632","727967","0.0-8.0-0.17","","img/red.png","32","trial","32","true","0.6,0.4","1:go_a","",""
"null","","html-keyboard-response","633","728968","0.0-8.0-1.17","","<img src=""img/red-r.png"" border=""10"">","null","trial","32","","0.6,0.4","1:go_a","1",""
"null","","html-keyboard-response","634","729969","0.0-8.0-2.17","","<div style=""font-size:60px;"">+</div>","null","","","","","","",""
"null","","image-keyboard-response","635","731475","0.0-8.0-0.18","","img/grey.png","null","trial","32","false","0.6,0.4","3:go_c","",""
"null","","html-keyboard-response","636","732479","0.0-8.0-1.18","","<img src=""img/grey-n.png"">","null","trial","32","","0.6,0.4","3:go_c","0",""
"null","","html-keyboard-response","637","733485","0.0-8.0-2.18","","<div style=""font-size:60px;"">+</div>","null","","","","","","",""
"939.4249999895692","","image-keyboard-response","638","734425","0.0-8.0-0.19","","img/purple.png","32","trial","null","false","0.4,0.6","2:nogo_b","",""
"null","","html-keyboard-response","639","735427","0.0-8.0-1.19","","<img src=""img/purple-n.png"" border=""10"">","null","trial","null","","0.4,0.6","2:nogo_b","0",""
"null","","html-keyboard-response","640","736430","0.0-8.0-2.19","","<div style=""font-size:60px;"">+</div>","null","","","","","","",""
"457.81000005081296","","image-keyboard-response","641","736889","0.0-8.0-0.20","","img/blue.png","32","trial","null","false","0.4,0.6","4:nogo_d","",""
"null","","html-keyboard-response","642","737890","0.0-8.0-1.20","","<img src=""img/blue-n.png"" border=""10"">","null","trial","null","","0.4,0.6","4:nogo_d","0",""
"null","","html-keyboard-response","643","738893","0.0-8.0-2.20","","<div style=""font-size:60px;"">+</div>","null","","","","","","",""
"841.5850000455976","","image-keyboard-response","644","739735","0.0-8.0-0.21","","img/red.png","32","trial","32","true","0.6,0.4","1:go_a","",""
"null","","html-keyboard-response","645","740737","0.0-8.0-1.21","","<img src=""img/red-n.png"" border=""10"">","null","trial","32","","0.6,0.4","1:go_a","0",""
"null","","html-keyboard-response","646","741740","0.0-8.0-2.21","","<div style=""font-size:60px;"">+</div>","null","","","","","","",""
"728.3250000327826","","image-keyboard-response","647","742469","0.0-8.0-0.22","","img/grey.png","32","trial","32","true","0.6,0.4","3:go_c","",""
"null","","html-keyboard-response","648","743473","0.0-8.0-1.22","","<img src=""img/grey-r.png"" border=""10"">","null","trial","32","","0.6,0.4","3:go_c","1",""
"null","","html-keyboard-response","649","744476","0.0-8.0-2.22","","<div style=""font-size:60px;"">+</div>","null","","","","","","",""
"null","","image-keyboard-response","650","745982","0.0-8.0-0.23","","img/purple.png","null","trial","null","true","0.4,0.6","2:nogo_b","",""
"null","","html-keyboard-response","651","746987","0.0-8.0-1.23","","<img src=""img/purple-n.png"">","null","trial","null","","0.4,0.6","2:nogo_b","0",""
"null","","html-keyboard-response","652","747991","0.0-8.0-2.23","","<div style=""font-size:60px;"">+</div>","null","","","","","","",""
"609.0850001201034","","image-keyboard-response","653","748600","0.0-8.0-0.24","","img/red.png","32","trial","32","true","0.6,0.4","1:go_a","",""
"null","","html-keyboard-response","654","749602","0.0-8.0-1.24","","<img src=""img/red-r.png"" border=""10"">","null","trial","32","","0.6,0.4","1:go_a","1",""
"null","","html-keyboard-response","655","750606","0.0-8.0-2.24","","<div style=""font-size:60px;"">+</div>","null","","","","","","",""
"null","","image-keyboard-response","656","752108","0.0-8.0-0.25","","img/grey.png","null","trial","32","false","0.6,0.4","3:go_c","",""
"null","","html-keyboard-response","657","753114","0.0-8.0-1.25","","<img src=""img/grey-r.png"">","null","trial","32","","0.6,0.4","3:go_c","1",""
"null","","html-keyboard-response","658","754115","0.0-8.0-2.25","","<div style=""font-size:60px;"">+</div>","null","","","","","","",""
"671.8100002035499","","image-keyboard-response","659","754788","0.0-8.0-0.26","","img/blue.png","32","trial","null","false","0.4,0.6","4:nogo_d","",""
"null","","html-keyboard-response","660","755789","0.0-8.0-1.26","","<img src=""img/blue-r.png"" border=""10"">","null","trial","null","","0.4,0.6","4:nogo_d","1",""
"null","","html-keyboard-response","661","756793","0.0-8.0-2.26","","<div style=""font-size:60px;"">+</div>","null","","","","","","",""
"null","","image-keyboard-response","662","758294","0.0-8.0-0.27","","img/purple.png","null","trial","null","true","0.4,0.6","2:nogo_b","",""
"null","","html-keyboard-response","663","759298","0.0-8.0-1.27","","<img src=""img/purple-r.png"">","null","trial","null","","0.4,0.6","2:nogo_b","1",""
"null","","html-keyboard-response","664","760302","0.0-8.0-2.27","","<div style=""font-size:60px;"">+</div>","null","","","","","","",""
"null","","image-keyboard-response","665","761802","0.0-8.0-0.28","","img/purple.png","null","trial","null","true","0.4,0.6","2:nogo_b","",""
"null","","html-keyboard-response","666","762807","0.0-8.0-1.28","","<img src=""img/purple-r.png"">","null","trial","null","","0.4,0.6","2:nogo_b","1",""
"null","","html-keyboard-response","667","763809","0.0-8.0-2.28","","<div style=""font-size:60px;"">+</div>","null","","","","","","",""
"440.05500013008714","","image-keyboard-response","668","764249","0.0-8.0-0.29","","img/blue.png","32","trial","null","false","0.4,0.6","4:nogo_d","",""
"null","","html-keyboard-response","669","765250","0.0-8.0-1.29","","<img src=""img/blue-n.png"" border=""10"">","null","trial","null","","0.4,0.6","4:nogo_d","0",""
"null","","html-keyboard-response","670","766254","0.0-8.0-2.29","","<div style=""font-size:60px;"">+</div>","null","","","","","","",""
"559.6600002609193","","image-keyboard-response","671","766814","0.0-8.0-0.30","","img/grey.png","32","trial","32","true","0.6,0.4","3:go_c","",""
"null","","html-keyboard-response","672","767817","0.0-8.0-1.30","","<img src=""img/grey-r.png"" border=""10"">","null","trial","32","","0.6,0.4","3:go_c","1",""
"null","","html-keyboard-response","673","768820","0.0-8.0-2.30","","<div style=""font-size:60px;"">+</div>","null","","","","","","",""
"907.320000231266","","image-keyboard-response","674","769728","0.0-8.0-0.31","","img/red.png","32","trial","32","true","0.6,0.4","1:go_a","",""
"null","","html-keyboard-response","675","770731","0.0-8.0-1.31","","<img src=""img/red-n.png"" border=""10"">","null","trial","32","","0.6,0.4","1:go_a","0",""
