"rt","url","trial_type","trial_index","time_elapsed","internal_node_id","view_history","stimulus","key_press","test_part","correct_response","correct","use_rew","which_stim","reward","responses"
"3340.115000028163","consent.html","external-html","0","3449","0.0-0.0","","","","","","","","","",""
"72090.73500009254","","instructions","1","75540","0.0-1.0","[{""page_index"":0,""viewing_time"":4453.525000018999},{""page_index"":1,""viewing_time"":21465.964999981225},{""page_index"":2,""viewing_time"":5377.314999932423},{""page_index"":3,""viewing_time"":17347.735000075772},{""page_index"":4,""viewing_time"":11329.059999901801},{""page_index"":5,""viewing_time"":2756.2900001648813},{""page_index"":6,""viewing_time"":9360.184999881312}]","","","","","","","","",""
"null","","image-keyboard-response","2","77044","0.0-2.0-0.0","","img/test3.PNG","null","practice","null","true","","","",""
"null","","html-keyboard-response","3","78047","0.0-2.0-1.0","","<img src=""img/test3-reward.PNG"">","null","","","","","","",""
"null","","html-keyboard-response","4","79048","0.0-2.0-2.0","","<div style=""font-size:60px;"">+</div>","null","","","","","","",""
"562.6199999824166","","image-keyboard-response","5","79611","0.0-2.0-0.1","","img/test1.PNG","32","practice","32","true","","","",""
"null","","html-keyboard-response","6","80612","0.0-2.0-1.1","","<img src=""img/test1-reward.PNG"" border=""10px; grey"">","null","","","","","","",""
"null","","html-keyboard-response","7","81613","0.0-2.0-2.1","","<div style=""font-size:60px;"">+</div>","null","","","","","","",""
"null","","image-keyboard-response","8","83117","0.0-2.0-0.2","","img/test2.PNG","null","practice","null","true","","","",""
"null","","html-keyboard-response","9","84120","0.0-2.0-1.2","","<img src=""img/test2-reward.PNG"">","null","","","","","","",""
"null","","html-keyboard-response","10","85125","0.0-2.0-2.2","","<div style=""font-size:60px;"">+</div>","null","","","","","","",""
"null","","image-keyboard-response","11","86630","0.0-2.0-0.3","","img/test3.PNG","null","practice","null","true","","","",""
"null","","html-keyboard-response","12","87630","0.0-2.0-1.3","","<img src=""img/test3-reward.PNG"">","null","","","","","","",""
"null","","html-keyboard-response","13","88631","0.0-2.0-2.3","","<div style=""font-size:60px;"">+</div>","null","","","","","","",""
"null","","image-keyboard-response","14","90136","0.0-2.0-0.4","","img/test2.PNG","null","practice","null","true","","","",""
"null","","html-keyboard-response","15","91139","0.0-2.0-1.4","","<img src=""img/test2-reward.PNG"">","null","","","","","","",""
"null","","html-keyboard-response","16","92143","0.0-2.0-2.4","","<div style=""font-size:60px;"">+</div>","null","","","","","","",""
"507.08999997004867","","image-keyboard-response","17","92650","0.0-2.0-0.5","","img/test1.PNG","32","practice","32","true","","","",""
"null","","html-keyboard-response","18","93656","0.0-2.0-1.5","","<img src=""img/test1-reward.PNG"" border=""10px; grey"">","null","","","","","","",""
"null","","html-keyboard-response","19","94660","0.0-2.0-2.5","","<div style=""font-size:60px;"">+</div>","null","","","","","","",""
"598.350000102073","","image-keyboard-response","20","95259","0.0-2.0-0.6","","img/test1.PNG","32","practice","32","true","","","",""
"null","","html-keyboard-response","21","96259","0.0-2.0-1.6","","<img src=""img/test1-reward.PNG"" border=""10px; grey"">","null","","","","","","",""
"null","","html-keyboard-response","22","97260","0.0-2.0-2.6","","<div style=""font-size:60px;"">+</div>","null","","","","","","",""
"null","","image-keyboard-response","23","98761","0.0-2.0-0.7","","img/test3.PNG","null","practice","null","true","","","",""
"null","","html-keyboard-response","24","99766","0.0-2.0-1.7","","<img src=""img/test3-reward.PNG"">","null","","","","","","",""
"null","","html-keyboard-response","25","100767","0.0-2.0-2.7","","<div style=""font-size:60px;"">+</div>","null","","","","","","",""
"null","","image-keyboard-response","26","102271","0.0-2.0-0.8","","img/test2.PNG","null","practice","null","true","","","",""
"null","","html-keyboard-response","27","103275","0.0-2.0-1.8","","<img src=""img/test2-reward.PNG"">","null","","","","","","",""
"null","","html-keyboard-response","28","104278","0.0-2.0-2.8","","<div style=""font-size:60px;"">+</div>","null","","","","","","",""
"null","","image-keyboard-response","29","105781","0.0-2.0-0.9","","img/test2.PNG","null","practice","null","true","","","",""
"null","","html-keyboard-response","30","106784","0.0-2.0-1.9","","<img src=""img/test2-reward.PNG"">","null","","","","","","",""
"null","","html-keyboard-response","31","107786","0.0-2.0-2.9","","<div style=""font-size:60px;"">+</div>","null","","","","","","",""
"null","","image-keyboard-response","32","109291","0.0-2.0-0.10","","img/test3.PNG","null","practice","null","true","","","",""
"null","","html-keyboard-response","33","110293","0.0-2.0-1.10","","<img src=""img/test3-reward.PNG"">","null","","","","","","",""
"null","","html-keyboard-response","34","111299","0.0-2.0-2.10","","<div style=""font-size:60px;"">+</div>","null","","","","","","",""
"542.7149999886751","","image-keyboard-response","35","111842","0.0-2.0-0.11","","img/test1.PNG","32","practice","32","true","","","",""
"null","","html-keyboard-response","36","112844","0.0-2.0-1.11","","<img src=""img/test1-reward.PNG"" border=""10px; grey"">","null","","","","","","",""
"null","","html-keyboard-response","37","113847","0.0-2.0-2.11","","<div style=""font-size:60px;"">+</div>","null","","","","","","",""
"1968.2599999941885","","instructions","38","115816","0.0-3.0","[{""page_index"":0,""viewing_time"":1968.1249998975545}]","","","","","","","","",""
"null","","image-keyboard-response","39","117320","0.0-4.0-0.0","","img/grey.png","null","trial","32","false","0.8,0.2","1:go_a","",""
"null","","html-keyboard-response","40","118322","0.0-4.0-1.0","","<img src=""img/grey-r.png"">","null","trial","32","","0.8,0.2","1:go_a","1",""
"null","","html-keyboard-response","41","119323","0.0-4.0-2.0","","<div style=""font-size:60px;"">+</div>","null","","","","","","",""
"708.0449999775738","","image-keyboard-response","42","120032","0.0-4.0-0.1","","img/green.png","32","trial","null","false","0.2,0.8","2:nogo_b","",""
"null","","html-keyboard-response","43","121035","0.0-4.0-1.1","","<img src=""img/green-n.png"" border=""10"">","null","trial","null","","0.2,0.8","2:nogo_b","0",""
"null","","html-keyboard-response","44","122037","0.0-4.0-2.1","","<div style=""font-size:60px;"">+</div>","null","","","","","","",""
"null","","image-keyboard-response","45","123539","0.0-4.0-0.2","","img/grey.png","null","trial","32","false","0.8,0.2","1:go_a","",""
"null","","html-keyboard-response","46","124540","0.0-4.0-1.2","","<img src=""img/grey-n.png"">","null","trial","32","","0.8,0.2","1:go_a","0",""
"null","","html-keyboard-response","47","125543","0.0-4.0-2.2","","<div style=""font-size:60px;"">+</div>","null","","","","","","",""
"1048.5050000716","","image-keyboard-response","48","126592","0.0-4.0-0.3","","img/green.png","32","trial","null","false","0.2,0.8","2:nogo_b","",""
"null","","html-keyboard-response","49","127593","0.0-4.0-1.3","","<img src=""img/green-n.png"" border=""10"">","null","trial","null","","0.2,0.8","2:nogo_b","0",""
"null","","html-keyboard-response","50","128598","0.0-4.0-2.3","","<div style=""font-size:60px;"">+</div>","null","","","","","","",""
"647.289999993518","","image-keyboard-response","51","129246","0.0-4.0-0.4","","img/green.png","32","trial","null","false","0.2,0.8","2:nogo_b","",""
"null","","html-keyboard-response","52","130247","0.0-4.0-1.4","","<img src=""img/green-n.png"" border=""10"">","null","trial","null","","0.2,0.8","2:nogo_b","0",""
"null","","html-keyboard-response","53","131252","0.0-4.0-2.4","","<div style=""font-size:60px;"">+</div>","null","","","","","","",""
"null","","image-keyboard-response","54","132753","0.0-4.0-0.5","","img/grey.png","null","trial","32","false","0.8,0.2","1:go_a","",""
"null","","html-keyboard-response","55","133758","0.0-4.0-1.5","","<img src=""img/grey-n.png"">","null","trial","32","","0.8,0.2","1:go_a","0",""
"null","","html-keyboard-response","56","134760","0.0-4.0-2.5","","<div style=""font-size:60px;"">+</div>","null","","","","","","",""
"null","","image-keyboard-response","57","136265","0.0-4.0-0.6","","img/green.png","null","trial","null","true","0.2,0.8","2:nogo_b","",""
"null","","html-keyboard-response","58","137266","0.0-4.0-1.6","","<img src=""img/green-r.png"">","null","trial","null","","0.2,0.8","2:nogo_b","1",""
"null","","html-keyboard-response","59","138267","0.0-4.0-2.6","","<div style=""font-size:60px;"">+</div>","null","","","","","","",""
"null","","image-keyboard-response","60","139770","0.0-4.0-0.7","","img/grey.png","null","trial","32","false","0.8,0.2","1:go_a","",""
"null","","html-keyboard-response","61","140774","0.0-4.0-1.7","","<img src=""img/grey-r.png"">","null","trial","32","","0.8,0.2","1:go_a","1",""
"null","","html-keyboard-response","62","141777","0.0-4.0-2.7","","<div style=""font-size:60px;"">+</div>","null","","","","","","",""
"619.9699998833239","","image-keyboard-response","63","142398","0.0-4.0-0.8","","img/grey.png","32","trial","32","true","0.8,0.2","1:go_a","",""
"null","","html-keyboard-response","64","143402","0.0-4.0-1.8","","<img src=""img/grey-n.png"" border=""10"">","null","trial","32","","0.8,0.2","1:go_a","0",""
"null","","html-keyboard-response","65","144403","0.0-4.0-2.8","","<div style=""font-size:60px;"">+</div>","null","","","","","","",""
"457.3800000362098","","image-keyboard-response","66","144861","0.0-4.0-0.9","","img/green.png","32","trial","null","false","0.2,0.8","2:nogo_b","",""
"null","","html-keyboard-response","67","145862","0.0-4.0-1.9","","<img src=""img/green-r.png"" border=""10"">","null","trial","null","","0.2,0.8","2:nogo_b","1",""
"null","","html-keyboard-response","68","146864","0.0-4.0-2.9","","<div style=""font-size:60px;"">+</div>","null","","","","","","",""
"594.8549997992814","","image-keyboard-response","69","147460","0.0-4.0-0.10","","img/grey.png","32","trial","32","true","0.8,0.2","1:go_a","",""
"null","","html-keyboard-response","70","148464","0.0-4.0-1.10","","<img src=""img/grey-n.png"" border=""10"">","null","trial","32","","0.8,0.2","1:go_a","0",""
"null","","html-keyboard-response","71","149466","0.0-4.0-2.10","","<div style=""font-size:60px;"">+</div>","null","","","","","","",""
"670.905000064522","","image-keyboard-response","72","150137","0.0-4.0-0.11","","img/green.png","32","trial","null","false","0.2,0.8","2:nogo_b","",""
"null","","html-keyboard-response","73","151140","0.0-4.0-1.11","","<img src=""img/green-n.png"" border=""10"">","null","trial","null","","0.2,0.8","2:nogo_b","0",""
"null","","html-keyboard-response","74","152145","0.0-4.0-2.11","","<div style=""font-size:60px;"">+</div>","null","","","","","","",""
"781.724999891594","","image-keyboard-response","75","152928","0.0-4.0-0.12","","img/green.png","32","trial","null","false","0.2,0.8","2:nogo_b","",""
"null","","html-keyboard-response","76","153930","0.0-4.0-1.12","","<img src=""img/green-n.png"" border=""10"">","null","trial","null","","0.2,0.8","2:nogo_b","0",""
"null","","html-keyboard-response","77","154932","0.0-4.0-2.12","","<div style=""font-size:60px;"">+</div>","null","","","","","","",""
"null","","image-keyboard-response","78","156435","0.0-4.0-0.13","","img/grey.png","null","trial","32","false","0.8,0.2","1:go_a","",""
"null","","html-keyboard-response","79","157438","0.0-4.0-1.13","","<img src=""img/grey-n.png"">","null","trial","32","","0.8,0.2","1:go_a","0",""
"null","","html-keyboard-response","80","158439","0.0-4.0-2.13","","<div style=""font-size:60px;"">+</div>","null","","","","","","",""
"null","","image-keyboard-response","81","159941","0.0-4.0-0.14","","img/grey.png","null","trial","32","false","0.8,0.2","1:go_a","",""
"null","","html-keyboard-response","82","160943","0.0-4.0-1.14","","<img src=""img/grey-n.png"">","null","trial","32","","0.8,0.2","1:go_a","0",""
"null","","html-keyboard-response","83","161948","0.0-4.0-2.14","","<div style=""font-size:60px;"">+</div>","null","","","","","","",""
"440.56499982252717","","image-keyboard-response","84","162389","0.0-4.0-0.15","","img/green.png","32","trial","null","false","0.2,0.8","2:nogo_b","",""
"null","","html-keyboard-response","85","163394","0.0-4.0-1.15","","<img src=""img/green-n.png"" border=""10"">","null","trial","null","","0.2,0.8","2:nogo_b","0",""
"null","","html-keyboard-response","86","164399","0.0-4.0-2.15","","<div style=""font-size:60px;"">+</div>","null","","","","","","",""
"588.6450000107288","","image-keyboard-response","87","164988","0.0-4.0-0.16","","img/green.png","32","trial","null","false","0.2,0.8","2:nogo_b","",""
"null","","html-keyboard-response","88","165990","0.0-4.0-1.16","","<img src=""img/green-n.png"" border=""10"">","null","trial","null","","0.2,0.8","2:nogo_b","0",""
"null","","html-keyboard-response","89","166994","0.0-4.0-2.16","","<div style=""font-size:60px;"">+</div>","null","","","","","","",""
"null","","image-keyboard-response","90","168500","0.0-4.0-0.17","","img/grey.png","null","trial","32","false","0.8,0.2","1:go_a","",""
"null","","html-keyboard-response","91","169501","0.0-4.0-1.17","","<img src=""img/grey-n.png"">","null","trial","32","","0.8,0.2","1:go_a","0",""
"null","","html-keyboard-response","92","170502","0.0-4.0-2.17","","<div style=""font-size:60px;"">+</div>","null","","","","","","",""
"932.899999897927","","image-keyboard-response","93","171436","0.0-4.0-0.18","","img/green.png","32","trial","null","false","0.2,0.8","2:nogo_b","",""
"null","","html-keyboard-response","94","172441","0.0-4.0-1.18","","<img src=""img/green-n.png"" border=""10"">","null","trial","null","","0.2,0.8","2:nogo_b","0",""
"null","","html-keyboard-response","95","173445","0.0-4.0-2.18","","<div style=""font-size:60px;"">+</div>","null","","","","","","",""
"null","","image-keyboard-response","96","174949","0.0-4.0-0.19","","img/grey.png","null","trial","32","false","0.8,0.2","1:go_a","",""
"null","","html-keyboard-response","97","175951","0.0-4.0-1.19","","<img src=""img/grey-n.png"">","null","trial","32","","0.8,0.2","1:go_a","0",""
"null","","html-keyboard-response","98","176955","0.0-4.0-2.19","","<div style=""font-size:60px;"">+</div>","null","","","","","","",""
"666.579999960959","","image-keyboard-response","99","177622","0.0-4.0-0.20","","img/green.png","32","trial","null","false","0.2,0.8","2:nogo_b","",""
"null","","html-keyboard-response","100","178627","0.0-4.0-1.20","","<img src=""img/green-n.png"" border=""10"">","null","trial","null","","0.2,0.8","2:nogo_b","0",""
"null","","html-keyboard-response","101","179630","0.0-4.0-2.20","","<div style=""font-size:60px;"">+</div>","null","","","","","","",""
"null","","image-keyboard-response","102","181132","0.0-4.0-0.21","","img/grey.png","null","trial","32","false","0.8,0.2","1:go_a","",""
"null","","html-keyboard-response","103","182136","0.0-4.0-1.21","","<img src=""img/grey-n.png"">","null","trial","32","","0.8,0.2","1:go_a","0",""
"null","","html-keyboard-response","104","183139","0.0-4.0-2.21","","<div style=""font-size:60px;"">+</div>","null","","","","","","",""
"null","","image-keyboard-response","105","184640","0.0-4.0-0.22","","img/grey.png","null","trial","32","false","0.8,0.2","1:go_a","",""
"null","","html-keyboard-response","106","185645","0.0-4.0-1.22","","<img src=""img/grey-n.png"">","null","trial","32","","0.8,0.2","1:go_a","0",""
"null","","html-keyboard-response","107","186648","0.0-4.0-2.22","","<div style=""font-size:60px;"">+</div>","null","","","","","","",""
"659.480000147596","","image-keyboard-response","108","187308","0.0-4.0-0.23","","img/green.png","32","trial","null","false","0.2,0.8","2:nogo_b","",""
"null","","html-keyboard-response","109","188312","0.0-4.0-1.23","","<img src=""img/green-n.png"" border=""10"">","null","trial","null","","0.2,0.8","2:nogo_b","0",""
"null","","html-keyboard-response","110","189316","0.0-4.0-2.23","","<div style=""font-size:60px;"">+</div>","null","","","","","","",""
"478.0049999244511","","image-keyboard-response","111","189794","0.0-4.0-0.24","","img/green.png","32","trial","null","false","0.2,0.8","2:nogo_b","",""
"null","","html-keyboard-response","112","190799","0.0-4.0-1.24","","<img src=""img/green-n.png"" border=""10"">","null","trial","null","","0.2,0.8","2:nogo_b","0",""
"null","","html-keyboard-response","113","191800","0.0-4.0-2.24","","<div style=""font-size:60px;"">+</div>","null","","","","","","",""
"null","","image-keyboard-response","114","193301","0.0-4.0-0.25","","img/grey.png","null","trial","32","false","0.8,0.2","1:go_a","",""
"null","","html-keyboard-response","115","194306","0.0-4.0-1.25","","<img src=""img/grey-n.png"">","null","trial","32","","0.8,0.2","1:go_a","0",""
"null","","html-keyboard-response","116","195307","0.0-4.0-2.25","","<div style=""font-size:60px;"">+</div>","null","","","","","","",""
"null","","image-keyboard-response","117","196807","0.0-4.0-0.26","","img/grey.png","null","trial","32","false","0.8,0.2","1:go_a","",""
"null","","html-keyboard-response","118","197811","0.0-4.0-1.26","","<img src=""img/grey-n.png"">","null","trial","32","","0.8,0.2","1:go_a","0",""
"null","","html-keyboard-response","119","198815","0.0-4.0-2.26","","<div style=""font-size:60px;"">+</div>","null","","","","","","",""
"699.0449998993427","","image-keyboard-response","120","199514","0.0-4.0-0.27","","img/green.png","32","trial","null","false","0.2,0.8","2:nogo_b","",""
"null","","html-keyboard-response","121","200519","0.0-4.0-1.27","","<img src=""img/green-n.png"" border=""10"">","null","trial","null","","0.2,0.8","2:nogo_b","0",""
"null","","html-keyboard-response","122","201524","0.0-4.0-2.27","","<div style=""font-size:60px;"">+</div>","null","","","","","","",""
"1489.0449999365956","","image-keyboard-response","123","203013","0.0-4.0-0.28","","img/green.png","32","trial","null","false","0.2,0.8","2:nogo_b","",""
"null","","html-keyboard-response","124","204017","0.0-4.0-1.28","","<img src=""img/green-n.png"" border=""10"">","null","trial","null","","0.2,0.8","2:nogo_b","0",""
"null","","html-keyboard-response","125","205021","0.0-4.0-2.28","","<div style=""font-size:60px;"">+</div>","null","","","","","","",""
"null","","image-keyboard-response","126","206525","0.0-4.0-0.29","","img/grey.png","null","trial","32","false","0.8,0.2","1:go_a","",""
"null","","html-keyboard-response","127","207531","0.0-4.0-1.29","","<img src=""img/grey-n.png"">","null","trial","32","","0.8,0.2","1:go_a","0",""
"null","","html-keyboard-response","128","208535","0.0-4.0-2.29","","<div style=""font-size:60px;"">+</div>","null","","","","","","",""
"null","","image-keyboard-response","129","210039","0.0-4.0-0.30","","img/grey.png","null","trial","32","false","0.8,0.2","1:go_a","",""
"null","","html-keyboard-response","130","211043","0.0-4.0-1.30","","<img src=""img/grey-n.png"">","null","trial","32","","0.8,0.2","1:go_a","0",""
"null","","html-keyboard-response","131","212043","0.0-4.0-2.30","","<div style=""font-size:60px;"">+</div>","null","","","","","","",""
"915.1549998205155","","image-keyboard-response","132","212959","0.0-4.0-0.31","","img/green.png","32","trial","null","false","0.2,0.8","2:nogo_b","",""
"null","","html-keyboard-response","133","213962","0.0-4.0-1.31","","<img src=""img/green-n.png"" border=""10"">","null","trial","null","","0.2,0.8","2:nogo_b","0",""
"null","","html-keyboard-response","134","214962","0.0-4.0-2.31","","<div style=""font-size:60px;"">+</div>","null","","","","","","",""
"null","","image-keyboard-response","135","216467","0.0-4.0-0.32","","img/green.png","null","trial","null","true","0.2,0.8","2:nogo_b","",""
"null","","html-keyboard-response","136","217469","0.0-4.0-1.32","","<img src=""img/green-r.png"">","null","trial","null","","0.2,0.8","2:nogo_b","1",""
"null","","html-keyboard-response","137","218470","0.0-4.0-2.32","","<div style=""font-size:60px;"">+</div>","null","","","","","","",""
"360.91000004671514","","image-keyboard-response","138","218831","0.0-4.0-0.33","","img/grey.png","32","trial","32","true","0.8,0.2","1:go_a","",""
"null","","html-keyboard-response","139","219836","0.0-4.0-1.33","","<img src=""img/grey-n.png"" border=""10"">","null","trial","32","","0.8,0.2","1:go_a","0",""
"null","","html-keyboard-response","140","220840","0.0-4.0-2.33","","<div style=""font-size:60px;"">+</div>","null","","","","","","",""
"409.60499993525445","","image-keyboard-response","141","221250","0.0-4.0-0.34","","img/green.png","32","trial","null","false","0.2,0.8","2:nogo_b","",""
"null","","html-keyboard-response","142","222255","0.0-4.0-1.34","","<img src=""img/green-r.png"" border=""10"">","null","trial","null","","0.2,0.8","2:nogo_b","1",""
"null","","html-keyboard-response","143","223257","0.0-4.0-2.34","","<div style=""font-size:60px;"">+</div>","null","","","","","","",""
"940.1750001125038","","image-keyboard-response","144","224198","0.0-4.0-0.35","","img/grey.png","32","trial","32","true","0.8,0.2","1:go_a","",""
"null","","html-keyboard-response","145","225204","0.0-4.0-1.35","","<img src=""img/grey-r.png"" border=""10"">","null","trial","32","","0.8,0.2","1:go_a","1",""
"null","","html-keyboard-response","146","226204","0.0-4.0-2.35","","<div style=""font-size:60px;"">+</div>","null","","","","","","",""
"null","","image-keyboard-response","147","227709","0.0-4.0-0.36","","img/green.png","null","trial","null","true","0.2,0.8","2:nogo_b","",""
"null","","html-keyboard-response","148","228714","0.0-4.0-1.36","","<img src=""img/green-r.png"">","null","trial","null","","0.2,0.8","2:nogo_b","1",""
"null","","html-keyboard-response","149","229715","0.0-4.0-2.36","","<div style=""font-size:60px;"">+</div>","null","","","","","","",""
"null","","image-keyboard-response","150","231219","0.0-4.0-0.37","","img/grey.png","null","trial","32","false","0.8,0.2","1:go_a","",""
"null","","html-keyboard-response","151","232222","0.0-4.0-1.37","","<img src=""img/grey-n.png"">","null","trial","32","","0.8,0.2","1:go_a","0",""
"null","","html-keyboard-response","152","233223","0.0-4.0-2.37","","<div style=""font-size:60px;"">+</div>","null","","","","","","",""
"null","","image-keyboard-response","153","234729","0.0-4.0-0.38","","img/green.png","null","trial","null","true","0.2,0.8","2:nogo_b","",""
"null","","html-keyboard-response","154","235731","0.0-4.0-1.38","","<img src=""img/green-n.png"">","null","trial","null","","0.2,0.8","2:nogo_b","0",""
"null","","html-keyboard-response","155","236732","0.0-4.0-2.38","","<div style=""font-size:60px;"">+</div>","null","","","","","","",""
"null","","image-keyboard-response","156","238237","0.0-4.0-0.39","","img/grey.png","null","trial","32","false","0.8,0.2","1:go_a","",""
"null","","html-keyboard-response","157","239239","0.0-4.0-1.39","","<img src=""img/grey-n.png"">","null","trial","32","","0.8,0.2","1:go_a","0",""
"null","","html-keyboard-response","158","240242","0.0-4.0-2.39","","<div style=""font-size:60px;"">+</div>","null","","","","","","",""
"null","","image-keyboard-response","159","241743","0.0-4.0-0.40","","img/grey.png","null","trial","32","false","0.8,0.2","1:go_a","",""
"null","","html-keyboard-response","160","242748","0.0-4.0-1.40","","<img src=""img/grey-n.png"">","null","trial","32","","0.8,0.2","1:go_a","0",""
"null","","html-keyboard-response","161","243750","0.0-4.0-2.40","","<div style=""font-size:60px;"">+</div>","null","","","","","","",""
"787.1799999848008","","image-keyboard-response","162","244538","0.0-4.0-0.41","","img/green.png","32","trial","null","false","0.2,0.8","2:nogo_b","",""
"null","","html-keyboard-response","163","245544","0.0-4.0-1.41","","<img src=""img/green-n.png"" border=""10"">","null","trial","null","","0.2,0.8","2:nogo_b","0",""
"null","","html-keyboard-response","164","246545","0.0-4.0-2.41","","<div style=""font-size:60px;"">+</div>","null","","","","","","",""
"null","","image-keyboard-response","165","248049","0.0-4.0-0.42","","img/grey.png","null","trial","32","false","0.8,0.2","1:go_a","",""
"null","","html-keyboard-response","166","249055","0.0-4.0-1.42","","<img src=""img/grey-n.png"">","null","trial","32","","0.8,0.2","1:go_a","0",""
"null","","html-keyboard-response","167","250057","0.0-4.0-2.42","","<div style=""font-size:60px;"">+</div>","null","","","","","","",""
"420.4349999781698","","image-keyboard-response","168","250478","0.0-4.0-0.43","","img/green.png","32","trial","null","false","0.2,0.8","2:nogo_b","",""
"null","","html-keyboard-response","169","251480","0.0-4.0-1.43","","<img src=""img/green-n.png"" border=""10"">","null","trial","null","","0.2,0.8","2:nogo_b","0",""
"null","","html-keyboard-response","170","252485","0.0-4.0-2.43","","<div style=""font-size:60px;"">+</div>","null","","","","","","",""
"467.36499993130565","","image-keyboard-response","171","252953","0.0-4.0-0.44","","img/green.png","32","trial","null","false","0.2,0.8","2:nogo_b","",""
"null","","html-keyboard-response","172","253954","0.0-4.0-1.44","","<img src=""img/green-n.png"" border=""10"">","null","trial","null","","0.2,0.8","2:nogo_b","0",""
"null","","html-keyboard-response","173","254959","0.0-4.0-2.44","","<div style=""font-size:60px;"">+</div>","null","","","","","","",""
"null","","image-keyboard-response","174","256464","0.0-4.0-0.45","","img/grey.png","null","trial","32","false","0.8,0.2","1:go_a","",""
"null","","html-keyboard-response","175","257465","0.0-4.0-1.45","","<img src=""img/grey-r.png"">","null","trial","32","","0.8,0.2","1:go_a","1",""
"null","","html-keyboard-response","176","258466","0.0-4.0-2.45","","<div style=""font-size:60px;"">+</div>","null","","","","","","",""
"381.70499983243644","","image-keyboard-response","177","258848","0.0-4.0-0.46","","img/green.png","32","trial","null","false","0.2,0.8","2:nogo_b","",""
"null","","html-keyboard-response","178","259849","0.0-4.0-1.46","","<img src=""img/green-n.png"" border=""10"">","null","trial","null","","0.2,0.8","2:nogo_b","0",""
"null","","html-keyboard-response","179","260850","0.0-4.0-2.46","","<div style=""font-size:60px;"">+</div>","null","","","","","","",""
"641.4099999237806","","image-keyboard-response","180","261492","0.0-4.0-0.47","","img/grey.png","32","trial","32","true","0.8,0.2","1:go_a","",""
"null","","html-keyboard-response","181","262496","0.0-4.0-1.47","","<img src=""img/grey-n.png"" border=""10"">","null","trial","32","","0.8,0.2","1:go_a","0",""
"null","","html-keyboard-response","182","263498","0.0-4.0-2.47","","<div style=""font-size:60px;"">+</div>","null","","","","","","",""
"491.1050000227988","","image-keyboard-response","183","263989","0.0-4.0-0.48","","img/green.png","32","trial","null","false","0.2,0.8","2:nogo_b","",""
"null","","html-keyboard-response","184","264990","0.0-4.0-1.48","","<img src=""img/green-n.png"" border=""10"">","null","trial","null","","0.2,0.8","2:nogo_b","0",""
"null","","html-keyboard-response","185","265996","0.0-4.0-2.48","","<div style=""font-size:60px;"">+</div>","null","","","","","","",""
"null","","image-keyboard-response","186","267498","0.0-4.0-0.49","","img/grey.png","null","trial","32","false","0.8,0.2","1:go_a","",""
"null","","html-keyboard-response","187","268499","0.0-4.0-1.49","","<img src=""img/grey-n.png"">","null","trial","32","","0.8,0.2","1:go_a","0",""
"null","","html-keyboard-response","188","269501","0.0-4.0-2.49","","<div style=""font-size:60px;"">+</div>","null","","","","","","",""
"855.4699998348951","","image-keyboard-response","189","270357","0.0-4.0-0.50","","img/green.png","32","trial","null","false","0.2,0.8","2:nogo_b","",""
"null","","html-keyboard-response","190","271362","0.0-4.0-1.50","","<img src=""img/green-n.png"" border=""10"">","null","trial","null","","0.2,0.8","2:nogo_b","0",""
"null","","html-keyboard-response","191","272367","0.0-4.0-2.50","","<div style=""font-size:60px;"">+</div>","null","","","","","","",""
"null","","image-keyboard-response","192","273870","0.0-4.0-0.51","","img/grey.png","null","trial","32","false","0.8,0.2","1:go_a","",""
"null","","html-keyboard-response","193","274872","0.0-4.0-1.51","","<img src=""img/grey-n.png"">","null","trial","32","","0.8,0.2","1:go_a","0",""
"null","","html-keyboard-response","194","275873","0.0-4.0-2.51","","<div style=""font-size:60px;"">+</div>","null","","","","","","",""
"1346.4800000656396","","image-keyboard-response","195","277220","0.0-4.0-0.52","","img/green.png","32","trial","null","false","0.2,0.8","2:nogo_b","",""
"null","","html-keyboard-response","196","278225","0.0-4.0-1.52","","<img src=""img/green-n.png"" border=""10"">","null","trial","null","","0.2,0.8","2:nogo_b","0",""
"null","","html-keyboard-response","197","279226","0.0-4.0-2.52","","<div style=""font-size:60px;"">+</div>","null","","","","","","",""
"null","","image-keyboard-response","198","280732","0.0-4.0-0.53","","img/grey.png","null","trial","32","false","0.8,0.2","1:go_a","",""
"null","","html-keyboard-response","199","281736","0.0-4.0-1.53","","<img src=""img/grey-n.png"">","null","trial","32","","0.8,0.2","1:go_a","0",""
"null","","html-keyboard-response","200","282739","0.0-4.0-2.53","","<div style=""font-size:60px;"">+</div>","null","","","","","","",""
"null","","image-keyboard-response","201","284244","0.0-4.0-0.54","","img/grey.png","null","trial","32","false","0.8,0.2","1:go_a","",""
"null","","html-keyboard-response","202","285245","0.0-4.0-1.54","","<img src=""img/grey-n.png"">","null","trial","32","","0.8,0.2","1:go_a","0",""
"null","","html-keyboard-response","203","286247","0.0-4.0-2.54","","<div style=""font-size:60px;"">+</div>","null","","","","","","",""
"962.1949999127537","","image-keyboard-response","204","287210","0.0-4.0-0.55","","img/green.png","32","trial","null","false","0.2,0.8","2:nogo_b","",""
"null","","html-keyboard-response","205","288214","0.0-4.0-1.55","","<img src=""img/green-n.png"" border=""10"">","null","trial","null","","0.2,0.8","2:nogo_b","0",""
"null","","html-keyboard-response","206","289219","0.0-4.0-2.55","","<div style=""font-size:60px;"">+</div>","null","","","","","","",""
"null","","image-keyboard-response","207","290721","0.0-4.0-0.56","","img/green.png","null","trial","null","true","0.2,0.8","2:nogo_b","",""
"null","","html-keyboard-response","208","291724","0.0-4.0-1.56","","<img src=""img/green-r.png"">","null","trial","null","","0.2,0.8","2:nogo_b","1",""
"null","","html-keyboard-response","209","292728","0.0-4.0-2.56","","<div style=""font-size:60px;"">+</div>","null","","","","","","",""
"567.6750000566244","","image-keyboard-response","210","293296","0.0-4.0-0.57","","img/grey.png","32","trial","32","true","0.8,0.2","1:go_a","",""
"null","","html-keyboard-response","211","294299","0.0-4.0-1.57","","<img src=""img/grey-n.png"" border=""10"">","null","trial","32","","0.8,0.2","1:go_a","0",""
"null","","html-keyboard-response","212","295302","0.0-4.0-2.57","","<div style=""font-size:60px;"">+</div>","null","","","","","","",""
"null","","image-keyboard-response","213","296806","0.0-4.0-0.58","","img/grey.png","null","trial","32","false","0.8,0.2","1:go_a","",""
"null","","html-keyboard-response","214","297809","0.0-4.0-1.58","","<img src=""img/grey-r.png"">","null","trial","32","","0.8,0.2","1:go_a","1",""
"null","","html-keyboard-response","215","298810","0.0-4.0-2.58","","<div style=""font-size:60px;"">+</div>","null","","","","","","",""
"482.4349998962134","","image-keyboard-response","216","299292","0.0-4.0-0.59","","img/green.png","32","trial","null","false","0.2,0.8","2:nogo_b","",""
"null","","html-keyboard-response","217","300298","0.0-4.0-1.59","","<img src=""img/green-n.png"" border=""10"">","null","trial","null","","0.2,0.8","2:nogo_b","0",""
"null","","html-keyboard-response","218","301303","0.0-4.0-2.59","","<div style=""font-size:60px;"">+</div>","null","","","","","","",""
"2908.2349999807775","","instructions","219","304211","0.0-5.0","[{""page_index"":0,""viewing_time"":2907.9950000159442}]","","","","","","","","",""
"null","","image-keyboard-response","220","305716","0.0-6.0-0.0","","img/grey.png","null","trial","32","false","0.6,0.4","1:go_a","",""
"null","","html-keyboard-response","221","306717","0.0-6.0-1.0","","<img src=""img/grey-n.png"">","null","trial","32","","0.6,0.4","1:go_a","0",""
"null","","html-keyboard-response","222","307718","0.0-6.0-2.0","","<div style=""font-size:60px;"">+</div>","null","","","","","","",""
"574.1749999579042","","image-keyboard-response","223","308293","0.0-6.0-0.1","","img/pink.png","32","trial","32","true","0.6,0.4","3:go_c","",""
"null","","html-keyboard-response","224","309299","0.0-6.0-1.1","","<img src=""img/pink-r.png"" border=""10"">","null","trial","32","","0.6,0.4","3:go_c","1",""
"null","","html-keyboard-response","225","310300","0.0-6.0-2.1","","<div style=""font-size:60px;"">+</div>","null","","","","","","",""
"804.6500000637025","","image-keyboard-response","226","311106","0.0-6.0-0.2","","img/purple.png","32","trial","null","false","0.4,0.6","2:nogo_b","",""
"null","","html-keyboard-response","227","312109","0.0-6.0-1.2","","<img src=""img/purple-n.png"" border=""10"">","null","trial","null","","0.4,0.6","2:nogo_b","0",""
"null","","html-keyboard-response","228","313111","0.0-6.0-2.2","","<div style=""font-size:60px;"">+</div>","null","","","","","","",""
"749.8500000219792","","image-keyboard-response","229","313862","0.0-6.0-0.3","","img/yellow.png","32","trial","null","false","0.4,0.6","4:nogo_d","",""
"null","","html-keyboard-response","230","314864","0.0-6.0-1.3","","<img src=""img/yellow-n.png"" border=""10"">","null","trial","null","","0.4,0.6","4:nogo_d","0",""
"null","","html-keyboard-response","231","315867","0.0-6.0-2.3","","<div style=""font-size:60px;"">+</div>","null","","","","","","",""
"1189.0300000086427","","image-keyboard-response","232","317057","0.0-6.0-0.4","","img/yellow.png","32","trial","null","false","0.4,0.6","4:nogo_d","",""
"null","","html-keyboard-response","233","318060","0.0-6.0-1.4","","<img src=""img/yellow-n.png"" border=""10"">","null","trial","null","","0.4,0.6","4:nogo_d","0",""
"null","","html-keyboard-response","234","319063","0.0-6.0-2.4","","<div style=""font-size:60px;"">+</div>","null","","","","","","",""
"716.1099999211729","","image-keyboard-response","235","319779","0.0-6.0-0.5","","img/purple.png","32","trial","null","false","0.4,0.6","2:nogo_b","",""
"null","","html-keyboard-response","236","320786","0.0-6.0-1.5","","<img src=""img/purple-r.png"" border=""10"">","null","trial","null","","0.4,0.6","2:nogo_b","1",""
"null","","html-keyboard-response","237","321789","0.0-6.0-2.5","","<div style=""font-size:60px;"">+</div>","null","","","","","","",""
"611.0100001096725","","image-keyboard-response","238","322401","0.0-6.0-0.6","","img/pink.png","32","trial","32","true","0.6,0.4","3:go_c","",""
"null","","html-keyboard-response","239","323404","0.0-6.0-1.6","","<img src=""img/pink-r.png"" border=""10"">","null","trial","32","","0.6,0.4","3:go_c","1",""
"null","","html-keyboard-response","240","324405","0.0-6.0-2.6","","<div style=""font-size:60px;"">+</div>","null","","","","","","",""
"null","","image-keyboard-response","241","325907","0.0-6.0-0.7","","img/grey.png","null","trial","32","false","0.6,0.4","1:go_a","",""
"null","","html-keyboard-response","242","326909","0.0-6.0-1.7","","<img src=""img/grey-r.png"">","null","trial","32","","0.6,0.4","1:go_a","1",""
"null","","html-keyboard-response","243","327911","0.0-6.0-2.7","","<div style=""font-size:60px;"">+</div>","null","","","","","","",""
"732.7900000382215","","image-keyboard-response","244","328644","0.0-6.0-0.8","","img/pink.png","32","trial","32","true","0.6,0.4","3:go_c","",""
"null","","html-keyboard-response","245","329646","0.0-6.0-1.8","","<img src=""img/pink-r.png"" border=""10"">","null","trial","32","","0.6,0.4","3:go_c","1",""
"null","","html-keyboard-response","246","330649","0.0-6.0-2.8","","<div style=""font-size:60px;"">+</div>","null","","","","","","",""
"null","","image-keyboard-response","247","332154","0.0-6.0-0.9","","img/grey.png","null","trial","32","false","0.6,0.4","1:go_a","",""
"null","","html-keyboard-response","248","333158","0.0-6.0-1.9","","<img src=""img/grey-r.png"">","null","trial","32","","0.6,0.4","1:go_a","1",""
"null","","html-keyboard-response","249","334160","0.0-6.0-2.9","","<div style=""font-size:60px;"">+</div>","null","","","","","","",""
"716.1749999504536","","image-keyboard-response","250","334877","0.0-6.0-0.10","","img/purple.png","32","trial","null","false","0.4,0.6","2:nogo_b","",""
"null","","html-keyboard-response","251","335879","0.0-6.0-1.10","","<img src=""img/purple-r.png"" border=""10"">","null","trial","null","","0.4,0.6","2:nogo_b","1",""
"null","","html-keyboard-response","252","336882","0.0-6.0-2.10","","<div style=""font-size:60px;"">+</div>","null","","","","","","",""
"null","","image-keyboard-response","253","338384","0.0-6.0-0.11","","img/yellow.png","null","trial","null","true","0.4,0.6","4:nogo_d","",""
"null","","html-keyboard-response","254","339390","0.0-6.0-1.11","","<img src=""img/yellow-r.png"">","null","trial","null","","0.4,0.6","4:nogo_d","1",""
"null","","html-keyboard-response","255","340393","0.0-6.0-2.11","","<div style=""font-size:60px;"">+</div>","null","","","","","","",""
"974.6050001122057","","image-keyboard-response","256","341368","0.0-6.0-0.12","","img/grey.png","32","trial","32","true","0.6,0.4","1:go_a","",""
"null","","html-keyboard-response","257","342372","0.0-6.0-1.12","","<img src=""img/grey-n.png"" border=""10"">","null","trial","32","","0.6,0.4","1:go_a","0",""
"null","","html-keyboard-response","258","343375","0.0-6.0-2.12","","<div style=""font-size:60px;"">+</div>","null","","","","","","",""
"647.7949998807162","","image-keyboard-response","259","344024","0.0-6.0-0.13","","img/pink.png","32","trial","32","true","0.6,0.4","3:go_c","",""
"null","","html-keyboard-response","260","345026","0.0-6.0-1.13","","<img src=""img/pink-n.png"" border=""10"">","null","trial","32","","0.6,0.4","3:go_c","0",""
"null","","html-keyboard-response","261","346031","0.0-6.0-2.13","","<div style=""font-size:60px;"">+</div>","null","","","","","","",""
"838.3750000502914","","image-keyboard-response","262","346870","0.0-6.0-0.14","","img/purple.png","32","trial","null","false","0.4,0.6","2:nogo_b","",""
"null","","html-keyboard-response","263","347874","0.0-6.0-1.14","","<img src=""img/purple-r.png"" border=""10"">","null","trial","null","","0.4,0.6","2:nogo_b","1",""
"null","","html-keyboard-response","264","348878","0.0-6.0-2.14","","<div style=""font-size:60px;"">+</div>","null","","","","","","",""
"984.4949999824166","","image-keyboard-response","265","349863","0.0-6.0-0.15","","img/yellow.png","32","trial","null","false","0.4,0.6","4:nogo_d","",""
"null","","html-keyboard-response","266","350868","0.0-6.0-1.15","","<img src=""img/yellow-r.png"" border=""10"">","null","trial","null","","0.4,0.6","4:nogo_d","1",""
"null","","html-keyboard-response","267","351870","0.0-6.0-2.15","","<div style=""font-size:60px;"">+</div>","null","","","","","","",""
"804.2750000022352","","image-keyboard-response","268","352675","0.0-6.0-0.16","","img/purple.png","32","trial","null","false","0.4,0.6","2:nogo_b","",""
"null","","html-keyboard-response","269","353678","0.0-6.0-1.16","","<img src=""img/purple-r.png"" border=""10"">","null","trial","null","","0.4,0.6","2:nogo_b","1",""
"null","","html-keyboard-response","270","354682","0.0-6.0-2.16","","<div style=""font-size:60px;"">+</div>","null","","","","","","",""
"null","","image-keyboard-response","271","356184","0.0-6.0-0.17","","img/grey.png","null","trial","32","false","0.6,0.4","1:go_a","",""
"null","","html-keyboard-response","272","357190","0.0-6.0-1.17","","<img src=""img/grey-n.png"">","null","trial","32","","0.6,0.4","1:go_a","0",""
"null","","html-keyboard-response","273","358191","0.0-6.0-2.17","","<div style=""font-size:60px;"">+</div>","null","","","","","","",""
"648.5749999992549","","image-keyboard-response","274","358840","0.0-6.0-0.18","","img/pink.png","32","trial","32","true","0.6,0.4","3:go_c","",""
"null","","html-keyboard-response","275","359846","0.0-6.0-1.18","","<img src=""img/pink-n.png"" border=""10"">","null","trial","32","","0.6,0.4","3:go_c","0",""
"null","","html-keyboard-response","276","360847","0.0-6.0-2.18","","<div style=""font-size:60px;"">+</div>","null","","","","","","",""
"680.9449999127537","","image-keyboard-response","277","361528","0.0-6.0-0.19","","img/yellow.png","32","trial","null","false","0.4,0.6","4:nogo_d","",""
"null","","html-keyboard-response","278","362533","0.0-6.0-1.19","","<img src=""img/yellow-n.png"" border=""10"">","null","trial","null","","0.4,0.6","4:nogo_d","0",""
"null","","html-keyboard-response","279","363536","0.0-6.0-2.19","","<div style=""font-size:60px;"">+</div>","null","","","","","","",""
"null","","image-keyboard-response","280","365041","0.0-6.0-0.20","","img/grey.png","null","trial","32","false","0.6,0.4","1:go_a","",""
"null","","html-keyboard-response","281","366046","0.0-6.0-1.20","","<img src=""img/grey-n.png"">","null","trial","32","","0.6,0.4","1:go_a","0",""
"null","","html-keyboard-response","282","367049","0.0-6.0-2.20","","<div style=""font-size:60px;"">+</div>","null","","","","","","",""
"600.6050000432879","","image-keyboard-response","283","367650","0.0-6.0-0.21","","img/pink.png","32","trial","32","true","0.6,0.4","3:go_c","",""
"null","","html-keyboard-response","284","368653","0.0-6.0-1.21","","<img src=""img/pink-n.png"" border=""10"">","null","trial","32","","0.6,0.4","3:go_c","0",""
"null","","html-keyboard-response","285","369658","0.0-6.0-2.21","","<div style=""font-size:60px;"">+</div>","null","","","","","","",""
"971.1700000334531","","image-keyboard-response","286","370630","0.0-6.0-0.22","","img/yellow.png","32","trial","null","false","0.4,0.6","4:nogo_d","",""
"null","","html-keyboard-response","287","371636","0.0-6.0-1.22","","<img src=""img/yellow-r.png"" border=""10"">","null","trial","null","","0.4,0.6","4:nogo_d","1",""
"null","","html-keyboard-response","288","372639","0.0-6.0-2.22","","<div style=""font-size:60px;"">+</div>","null","","","","","","",""
"690.1199999265373","","image-keyboard-response","289","373330","0.0-6.0-0.23","","img/purple.png","32","trial","null","false","0.4,0.6","2:nogo_b","",""
"null","","html-keyboard-response","290","374333","0.0-6.0-1.23","","<img src=""img/purple-n.png"" border=""10"">","null","trial","null","","0.4,0.6","2:nogo_b","0",""
"null","","html-keyboard-response","291","375333","0.0-6.0-2.23","","<div style=""font-size:60px;"">+</div>","null","","","","","","",""
"774.6999999508262","","image-keyboard-response","292","376109","0.0-6.0-0.24","","img/purple.png","32","trial","null","false","0.4,0.6","2:nogo_b","",""
"null","","html-keyboard-response","293","377114","0.0-6.0-1.24","","<img src=""img/purple-r.png"" border=""10"">","null","trial","null","","0.4,0.6","2:nogo_b","1",""
"null","","html-keyboard-response","294","378117","0.0-6.0-2.24","","<div style=""font-size:60px;"">+</div>","null","","","","","","",""
"815.1350000407547","","image-keyboard-response","295","378933","0.0-6.0-0.25","","img/pink.png","32","trial","32","true","0.6,0.4","3:go_c","",""
"null","","html-keyboard-response","296","379935","0.0-6.0-1.25","","<img src=""img/pink-r.png"" border=""10"">","null","trial","32","","0.6,0.4","3:go_c","1",""
"null","","html-keyboard-response","297","380936","0.0-6.0-2.25","","<div style=""font-size:60px;"">+</div>","null","","","","","","",""
"null","","image-keyboard-response","298","382442","0.0-6.0-0.26","","img/grey.png","null","trial","32","false","0.6,0.4","1:go_a","",""
"null","","html-keyboard-response","299","383443","0.0-6.0-1.26","","<img src=""img/grey-r.png"">","null","trial","32","","0.6,0.4","1:go_a","1",""
"null","","html-keyboard-response","300","384448","0.0-6.0-2.26","","<div style=""font-size:60px;"">+</div>","null","","","","","","",""
"716.8199999723583","","image-keyboard-response","301","385166","0.0-6.0-0.27","","img/yellow.png","32","trial","null","false","0.4,0.6","4:nogo_d","",""
"null","","html-keyboard-response","302","386168","0.0-6.0-1.27","","<img src=""img/yellow-r.png"" border=""10"">","null","trial","null","","0.4,0.6","4:nogo_d","1",""
"null","","html-keyboard-response","303","387172","0.0-6.0-2.27","","<div style=""font-size:60px;"">+</div>","null","","","","","","",""
"557.2399999946356","","image-keyboard-response","304","387730","0.0-6.0-0.28","","img/yellow.png","32","trial","null","false","0.4,0.6","4:nogo_d","",""
"null","","html-keyboard-response","305","388731","0.0-6.0-1.28","","<img src=""img/yellow-r.png"" border=""10"">","null","trial","null","","0.4,0.6","4:nogo_d","1",""
"null","","html-keyboard-response","306","389735","0.0-6.0-2.28","","<div style=""font-size:60px;"">+</div>","null","","","","","","",""
"705.5250001139939","","image-keyboard-response","307","390441","0.0-6.0-0.29","","img/pink.png","32","trial","32","true","0.6,0.4","3:go_c","",""
"null","","html-keyboard-response","308","391445","0.0-6.0-1.29","","<img src=""img/pink-n.png"" border=""10"">","null","trial","32","","0.6,0.4","3:go_c","0",""
"null","","html-keyboard-response","309","392447","0.0-6.0-2.29","","<div style=""font-size:60px;"">+</div>","null","","","","","","",""
"683.5099998861551","","image-keyboard-response","310","393131","0.0-6.0-0.30","","img/purple.png","32","trial","null","false","0.4,0.6","2:nogo_b","",""
"null","","html-keyboard-response","311","394135","0.0-6.0-1.30","","<img src=""img/purple-n.png"" border=""10"">","null","trial","null","","0.4,0.6","2:nogo_b","0",""
"null","","html-keyboard-response","312","395138","0.0-6.0-2.30","","<div style=""font-size:60px;"">+</div>","null","","","","","","",""
"null","","image-keyboard-response","313","396639","0.0-6.0-0.31","","img/grey.png","null","trial","32","false","0.6,0.4","1:go_a","",""
"null","","html-keyboard-response","314","397644","0.0-6.0-1.31","","<img src=""img/grey-r.png"">","null","trial","32","","0.6,0.4","1:go_a","1",""
"null","","html-keyboard-response","315","398645","0.0-6.0-2.31","","<div style=""font-size:60px;"">+</div>","null","","","","","","",""
"965.400000102818","","image-keyboard-response","316","399611","0.0-6.0-0.32","","img/grey.png","32","trial","32","true","0.6,0.4","1:go_a","",""
"null","","html-keyboard-response","317","400613","0.0-6.0-1.32","","<img src=""img/grey-r.png"" border=""10"">","null","trial","32","","0.6,0.4","1:go_a","1",""
"null","","html-keyboard-response","318","401617","0.0-6.0-2.32","","<div style=""font-size:60px;"">+</div>","null","","","","","","",""
"591.2500000558794","","image-keyboard-response","319","402209","0.0-6.0-0.33","","img/yellow.png","32","trial","null","false","0.4,0.6","4:nogo_d","",""
"null","","html-keyboard-response","320","403214","0.0-6.0-1.33","","<img src=""img/yellow-r.png"" border=""10"">","null","trial","null","","0.4,0.6","4:nogo_d","1",""
"null","","html-keyboard-response","321","404219","0.0-6.0-2.33","","<div style=""font-size:60px;"">+</div>","null","","","","","","",""
"656.114999903366","","image-keyboard-response","322","404876","0.0-6.0-0.34","","img/pink.png","32","trial","32","true","0.6,0.4","3:go_c","",""
"null","","html-keyboard-response","323","405881","0.0-6.0-1.34","","<img src=""img/pink-n.png"" border=""10"">","null","trial","32","","0.6,0.4","3:go_c","0",""
"null","","html-keyboard-response","324","406887","0.0-6.0-2.34","","<div style=""font-size:60px;"">+</div>","null","","","","","","",""
"555.3050001617521","","image-keyboard-response","325","407442","0.0-6.0-0.35","","img/purple.png","32","trial","null","false","0.4,0.6","2:nogo_b","",""
"null","","html-keyboard-response","326","408447","0.0-6.0-1.35","","<img src=""img/purple-r.png"" border=""10"">","null","trial","null","","0.4,0.6","2:nogo_b","1",""
"null","","html-keyboard-response","327","409449","0.0-6.0-2.35","","<div style=""font-size:60px;"">+</div>","null","","","","","","",""
"668.8000001013279","","image-keyboard-response","328","410118","0.0-6.0-0.36","","img/purple.png","32","trial","null","false","0.4,0.6","2:nogo_b","",""
"null","","html-keyboard-response","329","411124","0.0-6.0-1.36","","<img src=""img/purple-r.png"" border=""10"">","null","trial","null","","0.4,0.6","2:nogo_b","1",""
"null","","html-keyboard-response","330","412127","0.0-6.0-2.36","","<div style=""font-size:60px;"">+</div>","null","","","","","","",""
"null","","image-keyboard-response","331","413631","0.0-6.0-0.37","","img/grey.png","null","trial","32","false","0.6,0.4","1:go_a","",""
"null","","html-keyboard-response","332","414637","0.0-6.0-1.37","","<img src=""img/grey-n.png"">","null","trial","32","","0.6,0.4","1:go_a","0",""
"null","","html-keyboard-response","333","415641","0.0-6.0-2.37","","<div style=""font-size:60px;"">+</div>","null","","","","","","",""
"675.3749998752028","","image-keyboard-response","334","416317","0.0-6.0-0.38","","img/yellow.png","32","trial","null","false","0.4,0.6","4:nogo_d","",""
"null","","html-keyboard-response","335","417319","0.0-6.0-1.38","","<img src=""img/yellow-n.png"" border=""10"">","null","trial","null","","0.4,0.6","4:nogo_d","0",""
"null","","html-keyboard-response","336","418319","0.0-6.0-2.38","","<div style=""font-size:60px;"">+</div>","null","","","","","","",""
"619.0600001718849","","image-keyboard-response","337","418939","0.0-6.0-0.39","","img/pink.png","32","trial","32","true","0.6,0.4","3:go_c","",""
"null","","html-keyboard-response","338","419941","0.0-6.0-1.39","","<img src=""img/pink-n.png"" border=""10"">","null","trial","32","","0.6,0.4","3:go_c","0",""
"null","","html-keyboard-response","339","420944","0.0-6.0-2.39","","<div style=""font-size:60px;"">+</div>","null","","","","","","",""
"570.3399998601526","","image-keyboard-response","340","421514","0.0-6.0-0.40","","img/purple.png","32","trial","null","false","0.4,0.6","2:nogo_b","",""
"null","","html-keyboard-response","341","422520","0.0-6.0-1.40","","<img src=""img/purple-n.png"" border=""10"">","null","trial","null","","0.4,0.6","2:nogo_b","0",""
"null","","html-keyboard-response","342","423521","0.0-6.0-2.40","","<div style=""font-size:60px;"">+</div>","null","","","","","","",""
"null","","image-keyboard-response","343","425026","0.0-6.0-0.41","","img/grey.png","null","trial","32","false","0.6,0.4","1:go_a","",""
"null","","html-keyboard-response","344","426028","0.0-6.0-1.41","","<img src=""img/grey-n.png"">","null","trial","32","","0.6,0.4","1:go_a","0",""
"null","","html-keyboard-response","345","427034","0.0-6.0-2.41","","<div style=""font-size:60px;"">+</div>","null","","","","","","",""
"769.5150000508875","","image-keyboard-response","346","427804","0.0-6.0-0.42","","img/pink.png","32","trial","32","true","0.6,0.4","3:go_c","",""
"null","","html-keyboard-response","347","428808","0.0-6.0-1.42","","<img src=""img/pink-r.png"" border=""10"">","null","trial","32","","0.6,0.4","3:go_c","1",""
"null","","html-keyboard-response","348","429808","0.0-6.0-2.42","","<div style=""font-size:60px;"">+</div>","null","","","","","","",""
"818.5500002000481","","image-keyboard-response","349","430627","0.0-6.0-0.43","","img/yellow.png","32","trial","null","false","0.4,0.6","4:nogo_d","",""
"null","","html-keyboard-response","350","431630","0.0-6.0-1.43","","<img src=""img/yellow-n.png"" border=""10"">","null","trial","null","","0.4,0.6","4:nogo_d","0",""
"null","","html-keyboard-response","351","432632","0.0-6.0-2.43","","<div style=""font-size:60px;"">+</div>","null","","","","","","",""
"null","","image-keyboard-response","352","434133","0.0-6.0-0.44","","img/grey.png","null","trial","32","false","0.6,0.4","1:go_a","",""
"null","","html-keyboard-response","353","435135","0.0-6.0-1.44","","<img src=""img/grey-n.png"">","null","trial","32","","0.6,0.4","1:go_a","0",""
"null","","html-keyboard-response","354","436139","0.0-6.0-2.44","","<div style=""font-size:60px;"">+</div>","null","","","","","","",""
"585.8099998440593","","image-keyboard-response","355","436726","0.0-6.0-0.45","","img/pink.png","32","trial","32","true","0.6,0.4","3:go_c","",""
"null","","html-keyboard-response","356","437731","0.0-6.0-1.45","","<img src=""img/pink-n.png"" border=""10"">","null","trial","32","","0.6,0.4","3:go_c","0",""
"null","","html-keyboard-response","357","438734","0.0-6.0-2.45","","<div style=""font-size:60px;"">+</div>","null","","","","","","",""
"746.1950001306832","","image-keyboard-response","358","439481","0.0-6.0-0.46","","img/yellow.png","32","trial","null","false","0.4,0.6","4:nogo_d","",""
"null","","html-keyboard-response","359","440485","0.0-6.0-1.46","","<img src=""img/yellow-r.png"" border=""10"">","null","trial","null","","0.4,0.6","4:nogo_d","1",""
"null","","html-keyboard-response","360","441490","0.0-6.0-2.46","","<div style=""font-size:60px;"">+</div>","null","","","","","","",""
"635.0499999243766","","image-keyboard-response","361","442125","0.0-6.0-0.47","","img/purple.png","32","trial","null","false","0.4,0.6","2:nogo_b","",""
"null","","html-keyboard-response","362","443130","0.0-6.0-1.47","","<img src=""img/purple-n.png"" border=""10"">","null","trial","null","","0.4,0.6","2:nogo_b","0",""
"null","","html-keyboard-response","363","444132","0.0-6.0-2.47","","<div style=""font-size:60px;"">+</div>","null","","","","","","",""
"658.4900000598282","","image-keyboard-response","364","444791","0.0-6.0-0.48","","img/yellow.png","32","trial","null","false","0.4,0.6","4:nogo_d","",""
"null","","html-keyboard-response","365","445793","0.0-6.0-1.48","","<img src=""img/yellow-n.png"" border=""10"">","null","trial","null","","0.4,0.6","4:nogo_d","0",""
"null","","html-keyboard-response","366","446794","0.0-6.0-2.48","","<div style=""font-size:60px;"">+</div>","null","","","","","","",""
"null","","image-keyboard-response","367","448300","0.0-6.0-0.49","","img/grey.png","null","trial","32","false","0.6,0.4","1:go_a","",""
"null","","html-keyboard-response","368","449301","0.0-6.0-1.49","","<img src=""img/grey-n.png"">","null","trial","32","","0.6,0.4","1:go_a","0",""
"null","","html-keyboard-response","369","450305","0.0-6.0-2.49","","<div style=""font-size:60px;"">+</div>","null","","","","","","",""
"594.7750001214445","","image-keyboard-response","370","450901","0.0-6.0-0.50","","img/purple.png","32","trial","null","false","0.4,0.6","2:nogo_b","",""
"null","","html-keyboard-response","371","451901","0.0-6.0-1.50","","<img src=""img/purple-r.png"" border=""10"">","null","trial","null","","0.4,0.6","2:nogo_b","1",""
"null","","html-keyboard-response","372","452902","0.0-6.0-2.50","","<div style=""font-size:60px;"">+</div>","null","","","","","","",""
"697.2799999639392","","image-keyboard-response","373","453600","0.0-6.0-0.51","","img/pink.png","32","trial","32","true","0.6,0.4","3:go_c","",""
"null","","html-keyboard-response","374","454605","0.0-6.0-1.51","","<img src=""img/pink-n.png"" border=""10"">","null","trial","32","","0.6,0.4","3:go_c","0",""
"null","","html-keyboard-response","375","455609","0.0-6.0-2.51","","<div style=""font-size:60px;"">+</div>","null","","","","","","",""
"612.1100001037121","","image-keyboard-response","376","456221","0.0-6.0-0.52","","img/yellow.png","32","trial","null","false","0.4,0.6","4:nogo_d","",""
"null","","html-keyboard-response","377","457227","0.0-6.0-1.52","","<img src=""img/yellow-n.png"" border=""10"">","null","trial","null","","0.4,0.6","4:nogo_d","0",""
"null","","html-keyboard-response","378","458228","0.0-6.0-2.52","","<div style=""font-size:60px;"">+</div>","null","","","","","","",""
"727.4650000035763","","image-keyboard-response","379","458956","0.0-6.0-0.53","","img/pink.png","32","trial","32","true","0.6,0.4","3:go_c","",""
"null","","html-keyboard-response","380","459961","0.0-6.0-1.53","","<img src=""img/pink-r.png"" border=""10"">","null","trial","32","","0.6,0.4","3:go_c","1",""
"null","","html-keyboard-response","381","460964","0.0-6.0-2.53","","<div style=""font-size:60px;"">+</div>","null","","","","","","",""
"null","","image-keyboard-response","382","462465","0.0-6.0-0.54","","img/grey.png","null","trial","32","false","0.6,0.4","1:go_a","",""
"null","","html-keyboard-response","383","463471","0.0-6.0-1.54","","<img src=""img/grey-r.png"">","null","trial","32","","0.6,0.4","1:go_a","1",""
"null","","html-keyboard-response","384","464475","0.0-6.0-2.54","","<div style=""font-size:60px;"">+</div>","null","","","","","","",""
"330.33000002615154","","image-keyboard-response","385","464806","0.0-6.0-0.55","","img/purple.png","32","trial","null","false","0.4,0.6","2:nogo_b","",""
"null","","html-keyboard-response","386","465812","0.0-6.0-1.55","","<img src=""img/purple-n.png"" border=""10"">","null","trial","null","","0.4,0.6","2:nogo_b","0",""
"null","","html-keyboard-response","387","466814","0.0-6.0-2.55","","<div style=""font-size:60px;"">+</div>","null","","","","","","",""
"566.6199999395758","","image-keyboard-response","388","467381","0.0-6.0-0.56","","img/pink.png","32","trial","32","true","0.6,0.4","3:go_c","",""
"null","","html-keyboard-response","389","468387","0.0-6.0-1.56","","<img src=""img/pink-r.png"" border=""10"">","null","trial","32","","0.6,0.4","3:go_c","1",""
"null","","html-keyboard-response","390","469389","0.0-6.0-2.56","","<div style=""font-size:60px;"">+</div>","null","","","","","","",""
"535.3950001299381","","image-keyboard-response","391","469925","0.0-6.0-0.57","","img/purple.png","32","trial","null","false","0.4,0.6","2:nogo_b","",""
"null","","html-keyboard-response","392","470926","0.0-6.0-1.57","","<img src=""img/purple-n.png"" border=""10"">","null","trial","null","","0.4,0.6","2:nogo_b","0",""
"null","","html-keyboard-response","393","471928","0.0-6.0-2.57","","<div style=""font-size:60px;"">+</div>","null","","","","","","",""
"null","","image-keyboard-response","394","473429","0.0-6.0-0.58","","img/grey.png","null","trial","32","false","0.6,0.4","1:go_a","",""
"null","","html-keyboard-response","395","474432","0.0-6.0-1.58","","<img src=""img/grey-r.png"">","null","trial","32","","0.6,0.4","1:go_a","1",""
"null","","html-keyboard-response","396","475434","0.0-6.0-2.58","","<div style=""font-size:60px;"">+</div>","null","","","","","","",""
"463.77000003121793","","image-keyboard-response","397","475898","0.0-6.0-0.59","","img/yellow.png","32","trial","null","false","0.4,0.6","4:nogo_d","",""
"null","","html-keyboard-response","398","476902","0.0-6.0-1.59","","<img src=""img/yellow-n.png"" border=""10"">","null","trial","null","","0.4,0.6","4:nogo_d","0",""
"null","","html-keyboard-response","399","477906","0.0-6.0-2.59","","<div style=""font-size:60px;"">+</div>","null","","","","","","",""
"534.6150000113994","","image-keyboard-response","400","478441","0.0-6.0-0.60","","img/purple.png","32","trial","null","false","0.4,0.6","2:nogo_b","",""
"null","","html-keyboard-response","401","479443","0.0-6.0-1.60","","<img src=""img/purple-n.png"" border=""10"">","null","trial","null","","0.4,0.6","2:nogo_b","0",""
"null","","html-keyboard-response","402","480446","0.0-6.0-2.60","","<div style=""font-size:60px;"">+</div>","null","","","","","","",""
"null","","image-keyboard-response","403","481949","0.0-6.0-0.61","","img/grey.png","null","trial","32","false","0.6,0.4","1:go_a","",""
"null","","html-keyboard-response","404","482953","0.0-6.0-1.61","","<img src=""img/grey-n.png"">","null","trial","32","","0.6,0.4","1:go_a","0",""
"null","","html-keyboard-response","405","483954","0.0-6.0-2.61","","<div style=""font-size:60px;"">+</div>","null","","","","","","",""
"573.6750001087785","","image-keyboard-response","406","484528","0.0-6.0-0.62","","img/pink.png","32","trial","32","true","0.6,0.4","3:go_c","",""
"null","","html-keyboard-response","407","485534","0.0-6.0-1.62","","<img src=""img/pink-r.png"" border=""10"">","null","trial","32","","0.6,0.4","3:go_c","1",""
"null","","html-keyboard-response","408","486536","0.0-6.0-2.62","","<div style=""font-size:60px;"">+</div>","null","","","","","","",""
"792.4949999433011","","image-keyboard-response","409","487329","0.0-6.0-0.63","","img/yellow.png","32","trial","null","false","0.4,0.6","4:nogo_d","",""
"null","","html-keyboard-response","410","488335","0.0-6.0-1.63","","<img src=""img/yellow-n.png"" border=""10"">","null","trial","null","","0.4,0.6","4:nogo_d","0",""
"null","","html-keyboard-response","411","489338","0.0-6.0-2.63","","<div style=""font-size:60px;"">+</div>","null","","","","","","",""
"null","","image-keyboard-response","412","490843","0.0-6.0-0.64","","img/grey.png","null","trial","32","false","0.6,0.4","1:go_a","",""
"null","","html-keyboard-response","413","491848","0.0-6.0-1.64","","<img src=""img/grey-r.png"">","null","trial","32","","0.6,0.4","1:go_a","1",""
"null","","html-keyboard-response","414","492852","0.0-6.0-2.64","","<div style=""font-size:60px;"">+</div>","null","","","","","","",""
"550.3249999601394","","image-keyboard-response","415","493403","0.0-6.0-0.65","","img/pink.png","32","trial","32","true","0.6,0.4","3:go_c","",""
"null","","html-keyboard-response","416","494408","0.0-6.0-1.65","","<img src=""img/pink-r.png"" border=""10"">","null","trial","32","","0.6,0.4","3:go_c","1",""
"null","","html-keyboard-response","417","495412","0.0-6.0-2.65","","<div style=""font-size:60px;"">+</div>","null","","","","","","",""
"1119.3699999712408","","image-keyboard-response","418","496532","0.0-6.0-0.66","","img/yellow.png","32","trial","null","false","0.4,0.6","4:nogo_d","",""
"null","","html-keyboard-response","419","497536","0.0-6.0-1.66","","<img src=""img/yellow-n.png"" border=""10"">","null","trial","null","","0.4,0.6","4:nogo_d","0",""
"null","","html-keyboard-response","420","498537","0.0-6.0-2.66","","<div style=""font-size:60px;"">+</div>","null","","","","","","",""
"750.6000001449138","","image-keyboard-response","421","499288","0.0-6.0-0.67","","img/purple.png","32","trial","null","false","0.4,0.6","2:nogo_b","",""
"null","","html-keyboard-response","422","500293","0.0-6.0-1.67","","<img src=""img/purple-r.png"" border=""10"">","null","trial","null","","0.4,0.6","2:nogo_b","1",""
"null","","html-keyboard-response","423","501296","0.0-6.0-2.67","","<div style=""font-size:60px;"">+</div>","null","","","","","","",""
"601.8799999728799","","image-keyboard-response","424","501899","0.0-6.0-0.68","","img/pink.png","32","trial","32","true","0.6,0.4","3:go_c","",""
"null","","html-keyboard-response","425","502901","0.0-6.0-1.68","","<img src=""img/pink-n.png"" border=""10"">","null","trial","32","","0.6,0.4","3:go_c","0",""
"null","","html-keyboard-response","426","503905","0.0-6.0-2.68","","<div style=""font-size:60px;"">+</div>","null","","","","","","",""
"613.2499999366701","","image-keyboard-response","427","504519","0.0-6.0-0.69","","img/grey.png","32","trial","32","true","0.6,0.4","1:go_a","",""
"null","","html-keyboard-response","428","505522","0.0-6.0-1.69","","<img src=""img/grey-n.png"" border=""10"">","null","trial","32","","0.6,0.4","1:go_a","0",""
"null","","html-keyboard-response","429","506526","0.0-6.0-2.69","","<div style=""font-size:60px;"">+</div>","null","","","","","","",""
"null","","image-keyboard-response","430","508027","0.0-6.0-0.70","","img/yellow.png","null","trial","null","true","0.4,0.6","4:nogo_d","",""
"null","","html-keyboard-response","431","509032","0.0-6.0-1.70","","<img src=""img/yellow-n.png"">","null","trial","null","","0.4,0.6","4:nogo_d","0",""
"null","","html-keyboard-response","432","510034","0.0-6.0-2.70","","<div style=""font-size:60px;"">+</div>","null","","","","","","",""
"986.9899998884648","","image-keyboard-response","433","511022","0.0-6.0-0.71","","img/purple.png","32","trial","null","false","0.4,0.6","2:nogo_b","",""
"null","","html-keyboard-response","434","512023","0.0-6.0-1.71","","<img src=""img/purple-r.png"" border=""10"">","null","trial","null","","0.4,0.6","2:nogo_b","1",""
"null","","html-keyboard-response","435","513024","0.0-6.0-2.71","","<div style=""font-size:60px;"">+</div>","null","","","","","","",""
"1361.7700000759214","","image-keyboard-response","436","514386","0.0-6.0-0.72","","img/grey.png","32","trial","32","true","0.6,0.4","1:go_a","",""
"null","","html-keyboard-response","437","515387","0.0-6.0-1.72","","<img src=""img/grey-r.png"" border=""10"">","null","trial","32","","0.6,0.4","1:go_a","1",""
"null","","html-keyboard-response","438","516391","0.0-6.0-2.72","","<div style=""font-size:60px;"">+</div>","null","","","","","","",""
"727.6950001250952","","image-keyboard-response","439","517119","0.0-6.0-0.73","","img/purple.png","32","trial","null","false","0.4,0.6","2:nogo_b","",""
"null","","html-keyboard-response","440","518125","0.0-6.0-1.73","","<img src=""img/purple-n.png"" border=""10"">","null","trial","null","","0.4,0.6","2:nogo_b","0",""
"null","","html-keyboard-response","441","519129","0.0-6.0-2.73","","<div style=""font-size:60px;"">+</div>","null","","","","","","",""
"null","","image-keyboard-response","442","520634","0.0-6.0-0.74","","img/yellow.png","null","trial","null","true","0.4,0.6","4:nogo_d","",""
"null","","html-keyboard-response","443","521635","0.0-6.0-1.74","","<img src=""img/yellow-n.png"">","null","trial","null","","0.4,0.6","4:nogo_d","0",""
"null","","html-keyboard-response","444","522639","0.0-6.0-2.74","","<div style=""font-size:60px;"">+</div>","null","","","","","","",""
"712.0999998878688","","image-keyboard-response","445","523351","0.0-6.0-0.75","","img/pink.png","32","trial","32","true","0.6,0.4","3:go_c","",""
"null","","html-keyboard-response","446","524353","0.0-6.0-1.75","","<img src=""img/pink-r.png"" border=""10"">","null","trial","32","","0.6,0.4","3:go_c","1",""
"null","","html-keyboard-response","447","525355","0.0-6.0-2.75","","<div style=""font-size:60px;"">+</div>","null","","","","","","",""
"650.4800000693649","","image-keyboard-response","448","526006","0.0-6.0-0.76","","img/yellow.png","32","trial","null","false","0.4,0.6","4:nogo_d","",""
"null","","html-keyboard-response","449","527008","0.0-6.0-1.76","","<img src=""img/yellow-n.png"" border=""10"">","null","trial","null","","0.4,0.6","4:nogo_d","0",""
"null","","html-keyboard-response","450","528009","0.0-6.0-2.76","","<div style=""font-size:60px;"">+</div>","null","","","","","","",""
"798.4550001565367","","image-keyboard-response","451","528808","0.0-6.0-0.77","","img/grey.png","32","trial","32","true","0.6,0.4","1:go_a","",""
"null","","html-keyboard-response","452","529811","0.0-6.0-1.77","","<img src=""img/grey-n.png"" border=""10"">","null","trial","32","","0.6,0.4","1:go_a","0",""
"null","","html-keyboard-response","453","530815","0.0-6.0-2.77","","<div style=""font-size:60px;"">+</div>","null","","","","","","",""
"906.5750001464039","","image-keyboard-response","454","531722","0.0-6.0-0.78","","img/purple.png","32","trial","null","false","0.4,0.6","2:nogo_b","",""
"null","","html-keyboard-response","455","532726","0.0-6.0-1.78","","<img src=""img/purple-r.png"" border=""10"">","null","trial","null","","0.4,0.6","2:nogo_b","1",""
"null","","html-keyboard-response","456","533729","0.0-6.0-2.78","","<div style=""font-size:60px;"">+</div>","null","","","","","","",""
"771.6649998910725","","image-keyboard-response","457","534501","0.0-6.0-0.79","","img/pink.png","32","trial","32","true","0.6,0.4","3:go_c","",""
"null","","html-keyboard-response","458","535504","0.0-6.0-1.79","","<img src=""img/pink-r.png"" border=""10"">","null","trial","32","","0.6,0.4","3:go_c","1",""
"null","","html-keyboard-response","459","536510","0.0-6.0-2.79","","<div style=""font-size:60px;"">+</div>","null","","","","","","",""
"813.6299999896437","","image-keyboard-response","460","537324","0.0-6.0-0.80","","img/purple.png","32","trial","null","false","0.4,0.6","2:nogo_b","",""
"null","","html-keyboard-response","461","538325","0.0-6.0-1.80","","<img src=""img/purple-n.png"" border=""10"">","null","trial","null","","0.4,0.6","2:nogo_b","0",""
"null","","html-keyboard-response","462","539326","0.0-6.0-2.80","","<div style=""font-size:60px;"">+</div>","null","","","","","","",""
"null","","image-keyboard-response","463","540827","0.0-6.0-0.81","","img/yellow.png","null","trial","null","true","0.4,0.6","4:nogo_d","",""
"null","","html-keyboard-response","464","541829","0.0-6.0-1.81","","<img src=""img/yellow-r.png"">","null","trial","null","","0.4,0.6","4:nogo_d","1",""
"null","","html-keyboard-response","465","542832","0.0-6.0-2.81","","<div style=""font-size:60px;"">+</div>","null","","","","","","",""
"779.9899999517947","","image-keyboard-response","466","543613","0.0-6.0-0.82","","img/pink.png","32","trial","32","true","0.6,0.4","3:go_c","",""
"null","","html-keyboard-response","467","544615","0.0-6.0-1.82","","<img src=""img/pink-r.png"" border=""10"">","null","trial","32","","0.6,0.4","3:go_c","1",""
"null","","html-keyboard-response","468","545620","0.0-6.0-2.82","","<div style=""font-size:60px;"">+</div>","null","","","","","","",""
"null","","image-keyboard-response","469","547124","0.0-6.0-0.83","","img/grey.png","null","trial","32","false","0.6,0.4","1:go_a","",""
"null","","html-keyboard-response","470","548126","0.0-6.0-1.83","","<img src=""img/grey-r.png"">","null","trial","32","","0.6,0.4","1:go_a","1",""
"null","","html-keyboard-response","471","549129","0.0-6.0-2.83","","<div style=""font-size:60px;"">+</div>","null","","","","","","",""
"null","","image-keyboard-response","472","550633","0.0-6.0-0.84","","img/grey.png","null","trial","32","false","0.6,0.4","1:go_a","",""
"null","","html-keyboard-response","473","551635","0.0-6.0-1.84","","<img src=""img/grey-n.png"">","null","trial","32","","0.6,0.4","1:go_a","0",""
"null","","html-keyboard-response","474","552637","0.0-6.0-2.84","","<div style=""font-size:60px;"">+</div>","null","","","","","","",""
"742.2050000168383","","image-keyboard-response","475","553379","0.0-6.0-0.85","","img/yellow.png","32","trial","null","false","0.4,0.6","4:nogo_d","",""
"null","","html-keyboard-response","476","554384","0.0-6.0-1.85","","<img src=""img/yellow-r.png"" border=""10"">","null","trial","null","","0.4,0.6","4:nogo_d","1",""
"null","","html-keyboard-response","477","555388","0.0-6.0-2.85","","<div style=""font-size:60px;"">+</div>","null","","","","","","",""
"690.3450000099838","","image-keyboard-response","478","556079","0.0-6.0-0.86","","img/purple.png","32","trial","null","false","0.4,0.6","2:nogo_b","",""
"null","","html-keyboard-response","479","557080","0.0-6.0-1.86","","<img src=""img/purple-n.png"" border=""10"">","null","trial","null","","0.4,0.6","2:nogo_b","0",""
"null","","html-keyboard-response","480","558082","0.0-6.0-2.86","","<div style=""font-size:60px;"">+</div>","null","","","","","","",""
"594.9350001756102","","image-keyboard-response","481","558677","0.0-6.0-0.87","","img/pink.png","32","trial","32","true","0.6,0.4","3:go_c","",""
"null","","html-keyboard-response","482","559683","0.0-6.0-1.87","","<img src=""img/pink-n.png"" border=""10"">","null","trial","32","","0.6,0.4","3:go_c","0",""
"null","","html-keyboard-response","483","560685","0.0-6.0-2.87","","<div style=""font-size:60px;"">+</div>","null","","","","","","",""
"713.7700000312179","","image-keyboard-response","484","561399","0.0-6.0-0.88","","img/grey.png","32","trial","32","true","0.6,0.4","1:go_a","",""
"null","","html-keyboard-response","485","562402","0.0-6.0-1.88","","<img src=""img/grey-r.png"" border=""10"">","null","trial","32","","0.6,0.4","1:go_a","1",""
"null","","html-keyboard-response","486","563403","0.0-6.0-2.88","","<div style=""font-size:60px;"">+</div>","null","","","","","","",""
"null","","image-keyboard-response","487","564908","0.0-6.0-0.89","","img/purple.png","null","trial","null","true","0.4,0.6","2:nogo_b","",""
"null","","html-keyboard-response","488","565912","0.0-6.0-1.89","","<img src=""img/purple-r.png"">","null","trial","null","","0.4,0.6","2:nogo_b","1",""
"null","","html-keyboard-response","489","566913","0.0-6.0-2.89","","<div style=""font-size:60px;"">+</div>","null","","","","","","",""
"572.880000108853","","image-keyboard-response","490","567487","0.0-6.0-0.90","","img/pink.png","32","trial","32","true","0.6,0.4","3:go_c","",""
"null","","html-keyboard-response","491","568488","0.0-6.0-1.90","","<img src=""img/pink-n.png"" border=""10"">","null","trial","32","","0.6,0.4","3:go_c","0",""
"null","","html-keyboard-response","492","569490","0.0-6.0-2.90","","<div style=""font-size:60px;"">+</div>","null","","","","","","",""
"638.9699999708682","","image-keyboard-response","493","570130","0.0-6.0-0.91","","img/yellow.png","32","trial","null","false","0.4,0.6","4:nogo_d","",""
"null","","html-keyboard-response","494","571132","0.0-6.0-1.91","","<img src=""img/yellow-n.png"" border=""10"">","null","trial","null","","0.4,0.6","4:nogo_d","0",""
"null","","html-keyboard-response","495","572137","0.0-6.0-2.91","","<div style=""font-size:60px;"">+</div>","null","","","","","","",""
"547.8150001727045","","image-keyboard-response","496","572685","0.0-6.0-0.92","","img/pink.png","32","trial","32","true","0.6,0.4","3:go_c","",""
"null","","html-keyboard-response","497","573688","0.0-6.0-1.92","","<img src=""img/pink-r.png"" border=""10"">","null","trial","32","","0.6,0.4","3:go_c","1",""
"null","","html-keyboard-response","498","574690","0.0-6.0-2.92","","<div style=""font-size:60px;"">+</div>","null","","","","","","",""
"1322.8249999228865","","image-keyboard-response","499","576014","0.0-6.0-0.93","","img/grey.png","32","trial","32","true","0.6,0.4","1:go_a","",""
"null","","html-keyboard-response","500","577017","0.0-6.0-1.93","","<img src=""img/grey-n.png"" border=""10"">","null","trial","32","","0.6,0.4","1:go_a","0",""
"null","","html-keyboard-response","501","578020","0.0-6.0-2.93","","<div style=""font-size:60px;"">+</div>","null","","","","","","",""
"479.8399999272078","","image-keyboard-response","502","578501","0.0-6.0-0.94","","img/purple.png","32","trial","null","false","0.4,0.6","2:nogo_b","",""
"null","","html-keyboard-response","503","579505","0.0-6.0-1.94","","<img src=""img/purple-n.png"" border=""10"">","null","trial","null","","0.4,0.6","2:nogo_b","0",""
"null","","html-keyboard-response","504","580508","0.0-6.0-2.94","","<div style=""font-size:60px;"">+</div>","null","","","","","","",""
"null","","image-keyboard-response","505","582008","0.0-6.0-0.95","","img/yellow.png","null","trial","null","true","0.4,0.6","4:nogo_d","",""
"null","","html-keyboard-response","506","583011","0.0-6.0-1.95","","<img src=""img/yellow-n.png"">","null","trial","null","","0.4,0.6","4:nogo_d","0",""
"null","","html-keyboard-response","507","584016","0.0-6.0-2.95","","<div style=""font-size:60px;"">+</div>","null","","","","","","",""
"839.5249999593943","","image-keyboard-response","508","584856","0.0-6.0-0.96","","img/purple.png","32","trial","null","false","0.4,0.6","2:nogo_b","",""
"null","","html-keyboard-response","509","585858","0.0-6.0-1.96","","<img src=""img/purple-r.png"" border=""10"">","null","trial","null","","0.4,0.6","2:nogo_b","1",""
"null","","html-keyboard-response","510","586861","0.0-6.0-2.96","","<div style=""font-size:60px;"">+</div>","null","","","","","","",""
"581.9049999117851","","image-keyboard-response","511","587444","0.0-6.0-0.97","","img/grey.png","32","trial","32","true","0.6,0.4","1:go_a","",""
"null","","html-keyboard-response","512","588449","0.0-6.0-1.97","","<img src=""img/grey-n.png"" border=""10"">","null","trial","32","","0.6,0.4","1:go_a","0",""
"null","","html-keyboard-response","513","589453","0.0-6.0-2.97","","<div style=""font-size:60px;"">+</div>","null","","","","","","",""
"690.3049999382347","","image-keyboard-response","514","590144","0.0-6.0-0.98","","img/pink.png","32","trial","32","true","0.6,0.4","3:go_c","",""
"null","","html-keyboard-response","515","591145","0.0-6.0-1.98","","<img src=""img/pink-r.png"" border=""10"">","null","trial","32","","0.6,0.4","3:go_c","1",""
"null","","html-keyboard-response","516","592148","0.0-6.0-2.98","","<div style=""font-size:60px;"">+</div>","null","","","","","","",""
"null","","image-keyboard-response","517","593652","0.0-6.0-0.99","","img/yellow.png","null","trial","null","true","0.4,0.6","4:nogo_d","",""
"null","","html-keyboard-response","518","594658","0.0-6.0-1.99","","<img src=""img/yellow-r.png"">","null","trial","null","","0.4,0.6","4:nogo_d","1",""
"null","","html-keyboard-response","519","595659","0.0-6.0-2.99","","<div style=""font-size:60px;"">+</div>","null","","","","","","",""
"795.6250000279397","","image-keyboard-response","520","596456","0.0-6.0-0.100","","img/pink.png","32","trial","32","true","0.6,0.4","3:go_c","",""
"null","","html-keyboard-response","521","597457","0.0-6.0-1.100","","<img src=""img/pink-n.png"" border=""10"">","null","trial","32","","0.6,0.4","3:go_c","0",""
"null","","html-keyboard-response","522","598462","0.0-6.0-2.100","","<div style=""font-size:60px;"">+</div>","null","","","","","","",""
"null","","image-keyboard-response","523","599964","0.0-6.0-0.101","","img/yellow.png","null","trial","null","true","0.4,0.6","4:nogo_d","",""
"null","","html-keyboard-response","524","600970","0.0-6.0-1.101","","<img src=""img/yellow-r.png"">","null","trial","null","","0.4,0.6","4:nogo_d","1",""
"null","","html-keyboard-response","525","601973","0.0-6.0-2.101","","<div style=""font-size:60px;"">+</div>","null","","","","","","",""
"714.6250000223517","","image-keyboard-response","526","602688","0.0-6.0-0.102","","img/purple.png","32","trial","null","false","0.4,0.6","2:nogo_b","",""
"null","","html-keyboard-response","527","603692","0.0-6.0-1.102","","<img src=""img/purple-r.png"" border=""10"">","null","trial","null","","0.4,0.6","2:nogo_b","1",""
"null","","html-keyboard-response","528","604693","0.0-6.0-2.102","","<div style=""font-size:60px;"">+</div>","null","","","","","","",""
"1087.874999968335","","image-keyboard-response","529","605782","0.0-6.0-0.103","","img/grey.png","32","trial","32","true","0.6,0.4","1:go_a","",""
"null","","html-keyboard-response","530","606787","0.0-6.0-1.103","","<img src=""img/grey-r.png"" border=""10"">","null","trial","32","","0.6,0.4","1:go_a","1",""
"null","","html-keyboard-response","531","607790","0.0-6.0-2.103","","<div style=""font-size:60px;"">+</div>","null","","","","","","",""
"1095.8949998021126","","image-keyboard-response","532","608887","0.0-6.0-0.104","","img/purple.png","32","trial","null","false","0.4,0.6","2:nogo_b","",""
"null","","html-keyboard-response","533","609889","0.0-6.0-1.104","","<img src=""img/purple-n.png"" border=""10"">","null","trial","null","","0.4,0.6","2:nogo_b","0",""
"null","","html-keyboard-response","534","610892","0.0-6.0-2.104","","<div style=""font-size:60px;"">+</div>","null","","","","","","",""
"null","","image-keyboard-response","535","612394","0.0-6.0-0.105","","img/grey.png","null","trial","32","false","0.6,0.4","1:go_a","",""
"null","","html-keyboard-response","536","613398","0.0-6.0-1.105","","<img src=""img/grey-n.png"">","null","trial","32","","0.6,0.4","1:go_a","0",""
"null","","html-keyboard-response","537","614401","0.0-6.0-2.105","","<div style=""font-size:60px;"">+</div>","null","","","","","","",""
"898.2299999333918","","image-keyboard-response","538","615300","0.0-6.0-0.106","","img/pink.png","32","trial","32","true","0.6,0.4","3:go_c","",""
"null","","html-keyboard-response","539","616306","0.0-6.0-1.106","","<img src=""img/pink-r.png"" border=""10"">","null","trial","32","","0.6,0.4","3:go_c","1",""
"null","","html-keyboard-response","540","617307","0.0-6.0-2.106","","<div style=""font-size:60px;"">+</div>","null","","","","","","",""
"826.4899998903275","","image-keyboard-response","541","618134","0.0-6.0-0.107","","img/yellow.png","32","trial","null","false","0.4,0.6","4:nogo_d","",""
"null","","html-keyboard-response","542","619137","0.0-6.0-1.107","","<img src=""img/yellow-n.png"" border=""10"">","null","trial","null","","0.4,0.6","4:nogo_d","0",""
"null","","html-keyboard-response","543","620142","0.0-6.0-2.107","","<div style=""font-size:60px;"">+</div>","null","","","","","","",""
"669.749999884516","","image-keyboard-response","544","620812","0.0-6.0-0.108","","img/pink.png","32","trial","32","true","0.6,0.4","3:go_c","",""
"null","","html-keyboard-response","545","621816","0.0-6.0-1.108","","<img src=""img/pink-n.png"" border=""10"">","null","trial","32","","0.6,0.4","3:go_c","0",""
"null","","html-keyboard-response","546","622817","0.0-6.0-2.108","","<div style=""font-size:60px;"">+</div>","null","","","","","","",""
"null","","image-keyboard-response","547","624323","0.0-6.0-0.109","","img/grey.png","null","trial","32","false","0.6,0.4","1:go_a","",""
"null","","html-keyboard-response","548","625325","0.0-6.0-1.109","","<img src=""img/grey-n.png"">","null","trial","32","","0.6,0.4","1:go_a","0",""
"null","","html-keyboard-response","549","626326","0.0-6.0-2.109","","<div style=""font-size:60px;"">+</div>","null","","","","","","",""
"875.705000013113","","image-keyboard-response","550","627202","0.0-6.0-0.110","","img/yellow.png","32","trial","null","false","0.4,0.6","4:nogo_d","",""
"null","","html-keyboard-response","551","628207","0.0-6.0-1.110","","<img src=""img/yellow-n.png"" border=""10"">","null","trial","null","","0.4,0.6","4:nogo_d","0",""
"null","","html-keyboard-response","552","629211","0.0-6.0-2.110","","<div style=""font-size:60px;"">+</div>","null","","","","","","",""
"646.1499999277294","","image-keyboard-response","553","629857","0.0-6.0-0.111","","img/purple.png","32","trial","null","false","0.4,0.6","2:nogo_b","",""
"null","","html-keyboard-response","554","630861","0.0-6.0-1.111","","<img src=""img/purple-r.png"" border=""10"">","null","trial","null","","0.4,0.6","2:nogo_b","1",""
"null","","html-keyboard-response","555","631862","0.0-6.0-2.111","","<div style=""font-size:60px;"">+</div>","null","","","","","","",""
"706.2249998562038","","image-keyboard-response","556","632568","0.0-6.0-0.112","","img/yellow.png","32","trial","null","false","0.4,0.6","4:nogo_d","",""
"null","","html-keyboard-response","557","633570","0.0-6.0-1.112","","<img src=""img/yellow-r.png"" border=""10"">","null","trial","null","","0.4,0.6","4:nogo_d","1",""
"null","","html-keyboard-response","558","634572","0.0-6.0-2.112","","<div style=""font-size:60px;"">+</div>","null","","","","","","",""
"null","","image-keyboard-response","559","636074","0.0-6.0-0.113","","img/grey.png","null","trial","32","false","0.6,0.4","1:go_a","",""
"null","","html-keyboard-response","560","637075","0.0-6.0-1.113","","<img src=""img/grey-n.png"">","null","trial","32","","0.6,0.4","1:go_a","0",""
"null","","html-keyboard-response","561","638076","0.0-6.0-2.113","","<div style=""font-size:60px;"">+</div>","null","","","","","","",""
"1141.3350000511855","","image-keyboard-response","562","639218","0.0-6.0-0.114","","img/pink.png","32","trial","32","true","0.6,0.4","3:go_c","",""
"null","","html-keyboard-response","563","640222","0.0-6.0-1.114","","<img src=""img/pink-r.png"" border=""10"">","null","trial","32","","0.6,0.4","3:go_c","1",""
"null","","html-keyboard-response","564","641225","0.0-6.0-2.114","","<div style=""font-size:60px;"">+</div>","null","","","","","","",""
"444.3149999715388","","image-keyboard-response","565","641670","0.0-6.0-0.115","","img/purple.png","32","trial","null","false","0.4,0.6","2:nogo_b","",""
"null","","html-keyboard-response","566","642673","0.0-6.0-1.115","","<img src=""img/purple-n.png"" border=""10"">","null","trial","null","","0.4,0.6","2:nogo_b","0",""
"null","","html-keyboard-response","567","643675","0.0-6.0-2.115","","<div style=""font-size:60px;"">+</div>","null","","","","","","",""
"863.2950000464916","","image-keyboard-response","568","644539","0.0-6.0-0.116","","img/yellow.png","32","trial","null","false","0.4,0.6","4:nogo_d","",""
"null","","html-keyboard-response","569","645545","0.0-6.0-1.116","","<img src=""img/yellow-n.png"" border=""10"">","null","trial","null","","0.4,0.6","4:nogo_d","0",""
"null","","html-keyboard-response","570","646548","0.0-6.0-2.116","","<div style=""font-size:60px;"">+</div>","null","","","","","","",""
"881.6349999979138","","image-keyboard-response","571","647430","0.0-6.0-0.117","","img/grey.png","32","trial","32","true","0.6,0.4","1:go_a","",""
"null","","html-keyboard-response","572","648432","0.0-6.0-1.117","","<img src=""img/grey-n.png"" border=""10"">","null","trial","32","","0.6,0.4","1:go_a","0",""
"null","","html-keyboard-response","573","649434","0.0-6.0-2.117","","<div style=""font-size:60px;"">+</div>","null","","","","","","",""
"1112.2550000436604","","image-keyboard-response","574","650546","0.0-6.0-0.118","","img/purple.png","32","trial","null","false","0.4,0.6","2:nogo_b","",""
"null","","html-keyboard-response","575","651550","0.0-6.0-1.118","","<img src=""img/purple-n.png"" border=""10"">","null","trial","null","","0.4,0.6","2:nogo_b","0",""
"null","","html-keyboard-response","576","652551","0.0-6.0-2.118","","<div style=""font-size:60px;"">+</div>","null","","","","","","",""
"829.714999999851","","image-keyboard-response","577","653381","0.0-6.0-0.119","","img/pink.png","32","trial","32","true","0.6,0.4","3:go_c","",""
"null","","html-keyboard-response","578","654383","0.0-6.0-1.119","","<img src=""img/pink-r.png"" border=""10"">","null","trial","32","","0.6,0.4","3:go_c","1",""
"null","","html-keyboard-response","579","655387","0.0-6.0-2.119","","<div style=""font-size:60px;"">+</div>","null","","","","","","",""
"3745.1549998950213","","instructions","580","659133","0.0-7.0","[{""page_index"":0,""viewing_time"":3745.0049999170005}]","","","","","","","","",""
"null","","image-keyboard-response","581","660636","0.0-8.0-0.0","","img/grey.png","null","trial","null","true","0.2,0.8","2:nogo_b","",""
"null","","html-keyboard-response","582","661642","0.0-8.0-1.0","","<img src=""img/grey-r.png"">","null","trial","null","","0.2,0.8","2:nogo_b","1",""
"null","","html-keyboard-response","583","662643","0.0-8.0-2.0","","<div style=""font-size:60px;"">+</div>","null","","","","","","",""
"526.2050000019372","","image-keyboard-response","584","663169","0.0-8.0-0.1","","img/orange.png","32","trial","32","true","0.6,0.4","3:go_c","",""
"null","","html-keyboard-response","585","664172","0.0-8.0-1.1","","<img src=""img/orange-r.png"" border=""10"">","null","trial","32","","0.6,0.4","3:go_c","1",""
"null","","html-keyboard-response","586","665177","0.0-8.0-2.1","","<div style=""font-size:60px;"">+</div>","null","","","","","","",""
"545.1899999752641","","image-keyboard-response","587","665723","0.0-8.0-0.2","","img/blue.png","32","trial","32","true","0.8,0.2","1:go_a","",""
"null","","html-keyboard-response","588","666727","0.0-8.0-1.2","","<img src=""img/blue-r.png"" border=""10"">","null","trial","32","","0.8,0.2","1:go_a","1",""
"null","","html-keyboard-response","589","667730","0.0-8.0-2.2","","<div style=""font-size:60px;"">+</div>","null","","","","","","",""
"null","","image-keyboard-response","590","669232","0.0-8.0-0.3","","img/pink.png","null","trial","null","true","0.4,0.6","4:nogo_d","",""
"null","","html-keyboard-response","591","670237","0.0-8.0-1.3","","<img src=""img/pink-n.png"">","null","trial","null","","0.4,0.6","4:nogo_d","0",""
"null","","html-keyboard-response","592","671242","0.0-8.0-2.3","","<div style=""font-size:60px;"">+</div>","null","","","","","","",""
"null","","image-keyboard-response","593","672742","0.0-8.0-0.4","","img/orange.png","null","trial","32","false","0.6,0.4","3:go_c","",""
"null","","html-keyboard-response","594","673744","0.0-8.0-1.4","","<img src=""img/orange-r.png"">","null","trial","32","","0.6,0.4","3:go_c","1",""
"null","","html-keyboard-response","595","674744","0.0-8.0-2.4","","<div style=""font-size:60px;"">+</div>","null","","","","","","",""
"null","","image-keyboard-response","596","676246","0.0-8.0-0.5","","img/grey.png","null","trial","null","true","0.2,0.8","2:nogo_b","",""
"null","","html-keyboard-response","597","677252","0.0-8.0-1.5","","<img src=""img/grey-r.png"">","null","trial","null","","0.2,0.8","2:nogo_b","1",""
"null","","html-keyboard-response","598","678256","0.0-8.0-2.5","","<div style=""font-size:60px;"">+</div>","null","","","","","","",""
"618.1400001514703","","image-keyboard-response","599","678875","0.0-8.0-0.6","","img/blue.png","32","trial","32","true","0.8,0.2","1:go_a","",""
"null","","html-keyboard-response","600","679881","0.0-8.0-1.6","","<img src=""img/blue-r.png"" border=""10"">","null","trial","32","","0.8,0.2","1:go_a","1",""
"null","","html-keyboard-response","601","680885","0.0-8.0-2.6","","<div style=""font-size:60px;"">+</div>","null","","","","","","",""
"879.8650000244379","","image-keyboard-response","602","681766","0.0-8.0-0.7","","img/pink.png","32","trial","null","false","0.4,0.6","4:nogo_d","",""
"null","","html-keyboard-response","603","682767","0.0-8.0-1.7","","<img src=""img/pink-r.png"" border=""10"">","null","trial","null","","0.4,0.6","4:nogo_d","1",""
"null","","html-keyboard-response","604","683772","0.0-8.0-2.7","","<div style=""font-size:60px;"">+</div>","null","","","","","","",""
"625.4149999003857","","image-keyboard-response","605","684398","0.0-8.0-0.8","","img/pink.png","32","trial","null","false","0.4,0.6","4:nogo_d","",""
"null","","html-keyboard-response","606","685404","0.0-8.0-1.8","","<img src=""img/pink-n.png"" border=""10"">","null","trial","null","","0.4,0.6","4:nogo_d","0",""
"null","","html-keyboard-response","607","686407","0.0-8.0-2.8","","<div style=""font-size:60px;"">+</div>","null","","","","","","",""
"825.1700000837445","","image-keyboard-response","608","687233","0.0-8.0-0.9","","img/blue.png","32","trial","32","true","0.8,0.2","1:go_a","",""
"null","","html-keyboard-response","609","688236","0.0-8.0-1.9","","<img src=""img/blue-r.png"" border=""10"">","null","trial","32","","0.8,0.2","1:go_a","1",""
"null","","html-keyboard-response","610","689240","0.0-8.0-2.9","","<div style=""font-size:60px;"">+</div>","null","","","","","","",""
"625.4499999340624","","image-keyboard-response","611","689866","0.0-8.0-0.10","","img/orange.png","32","trial","32","true","0.6,0.4","3:go_c","",""
"null","","html-keyboard-response","612","690870","0.0-8.0-1.10","","<img src=""img/orange-n.png"" border=""10"">","null","trial","32","","0.6,0.4","3:go_c","0",""
"null","","html-keyboard-response","613","691872","0.0-8.0-2.10","","<div style=""font-size:60px;"">+</div>","null","","","","","","",""
"671.8450000043958","","image-keyboard-response","614","692544","0.0-8.0-0.11","","img/grey.png","32","trial","null","false","0.2,0.8","2:nogo_b","",""
"null","","html-keyboard-response","615","693549","0.0-8.0-1.11","","<img src=""img/grey-n.png"" border=""10"">","null","trial","null","","0.2,0.8","2:nogo_b","0",""
"null","","html-keyboard-response","616","694553","0.0-8.0-2.11","","<div style=""font-size:60px;"">+</div>","null","","","","","","",""
"825.7400000002235","","image-keyboard-response","617","695380","0.0-8.0-0.12","","img/pink.png","32","trial","null","false","0.4,0.6","4:nogo_d","",""
"null","","html-keyboard-response","618","696382","0.0-8.0-1.12","","<img src=""img/pink-n.png"" border=""10"">","null","trial","null","","0.4,0.6","4:nogo_d","0",""
"null","","html-keyboard-response","619","697387","0.0-8.0-2.12","","<div style=""font-size:60px;"">+</div>","null","","","","","","",""
"null","","image-keyboard-response","620","698888","0.0-8.0-0.13","","img/grey.png","null","trial","null","true","0.2,0.8","2:nogo_b","",""
"null","","html-keyboard-response","621","699889","0.0-8.0-1.13","","<img src=""img/grey-r.png"">","null","trial","null","","0.2,0.8","2:nogo_b","1",""
"null","","html-keyboard-response","622","700890","0.0-8.0-2.13","","<div style=""font-size:60px;"">+</div>","null","","","","","","",""
"585.7449998147786","","image-keyboard-response","623","701476","0.0-8.0-0.14","","img/blue.png","32","trial","32","true","0.8,0.2","1:go_a","",""
"null","","html-keyboard-response","624","702478","0.0-8.0-1.14","","<img src=""img/blue-n.png"" border=""10"">","null","trial","32","","0.8,0.2","1:go_a","0",""
"null","","html-keyboard-response","625","703479","0.0-8.0-2.14","","<div style=""font-size:60px;"">+</div>","null","","","","","","",""
"572.4649999756366","","image-keyboard-response","626","704052","0.0-8.0-0.15","","img/orange.png","32","trial","32","true","0.6,0.4","3:go_c","",""
"null","","html-keyboard-response","627","705053","0.0-8.0-1.15","","<img src=""img/orange-n.png"" border=""10"">","null","trial","32","","0.6,0.4","3:go_c","0",""
"null","","html-keyboard-response","628","706056","0.0-8.0-2.15","","<div style=""font-size:60px;"">+</div>","null","","","","","","",""
"1404.0200000163168","","image-keyboard-response","629","707461","0.0-8.0-0.16","","img/grey.png","32","trial","null","false","0.2,0.8","2:nogo_b","",""
"null","","html-keyboard-response","630","708466","0.0-8.0-1.16","","<img src=""img/grey-n.png"" border=""10"">","null","trial","null","","0.2,0.8","2:nogo_b","0",""
"null","","html-keyboard-response","631","709471","0.0-8.0-2.16","","<div style=""font-size:60px;"">+</div>","null","","","","","","",""
"null","","image-keyboard-response","632","710975","0.0-8.0-0.17","","img/pink.png","null","trial","null","true","0.4,0.6","4:nogo_d","",""
"null","","html-keyboard-response","633","711980","0.0-8.0-1.17","","<img src=""img/pink-n.png"">","null","trial","null","","0.4,0.6","4:nogo_d","0",""
"null","","html-keyboard-response","634","712981","0.0-8.0-2.17","","<div style=""font-size:60px;"">+</div>","null","","","","","","",""
"null","","image-keyboard-response","635","714485","0.0-8.0-0.18","","img/orange.png","null","trial","32","false","0.6,0.4","3:go_c","",""
"null","","html-keyboard-response","636","715489","0.0-8.0-1.18","","<img src=""img/orange-r.png"">","null","trial","32","","0.6,0.4","3:go_c","1",""
"null","","html-keyboard-response","637","716495","0.0-8.0-2.18","","<div style=""font-size:60px;"">+</div>","null","","","","","","",""
"551.1799999512732","","image-keyboard-response","638","717046","0.0-8.0-0.19","","img/blue.png","32","trial","32","true","0.8,0.2","1:go_a","",""
"null","","html-keyboard-response","639","718049","0.0-8.0-1.19","","<img src=""img/blue-r.png"" border=""10"">","null","trial","32","","0.8,0.2","1:go_a","1",""
"null","","html-keyboard-response","640","719049","0.0-8.0-2.19","","<div style=""font-size:60px;"">+</div>","null","","","","","","",""
"null","","image-keyboard-response","641","720550","0.0-8.0-0.20","","img/grey.png","null","trial","null","true","0.2,0.8","2:nogo_b","",""
"null","","html-keyboard-response","642","721556","0.0-8.0-1.20","","<img src=""img/grey-r.png"">","null","trial","null","","0.2,0.8","2:nogo_b","1",""
"null","","html-keyboard-response","643","722560","0.0-8.0-2.20","","<div style=""font-size:60px;"">+</div>","null","","","","","","",""
"null","","image-keyboard-response","644","724062","0.0-8.0-0.21","","img/pink.png","null","trial","null","true","0.4,0.6","4:nogo_d","",""
"null","","html-keyboard-response","645","725067","0.0-8.0-1.21","","<img src=""img/pink-r.png"">","null","trial","null","","0.4,0.6","4:nogo_d","1",""
"null","","html-keyboard-response","646","726071","0.0-8.0-2.21","","<div style=""font-size:60px;"">+</div>","null","","","","","","",""
"740.1699998881668","","image-keyboard-response","647","726811","0.0-8.0-0.22","","img/orange.png","32","trial","32","true","0.6,0.4","3:go_c","",""
"null","","html-keyboard-response","648","727816","0.0-8.0-1.22","","<img src=""img/orange-n.png"" border=""10"">","null","trial","32","","0.6,0.4","3:go_c","0",""
"null","","html-keyboard-response","649","728818","0.0-8.0-2.22","","<div style=""font-size:60px;"">+</div>","null","","","","","","",""
"703.9700001478195","","image-keyboard-response","650","729522","0.0-8.0-0.23","","img/blue.png","32","trial","32","true","0.8,0.2","1:go_a","",""
"null","","html-keyboard-response","651","730527","0.0-8.0-1.23","","<img src=""img/blue-r.png"" border=""10"">","null","trial","32","","0.8,0.2","1:go_a","1",""
"null","","html-keyboard-response","652","731532","0.0-8.0-2.23","","<div style=""font-size:60px;"">+</div>","null","","","","","","",""
"645.2099999878556","","image-keyboard-response","653","732178","0.0-8.0-0.24","","img/orange.png","32","trial","32","true","0.6,0.4","3:go_c","",""
"null","","html-keyboard-response","654","733181","0.0-8.0-1.24","","<img src=""img/orange-r.png"" border=""10"">","null","trial","32","","0.6,0.4","3:go_c","1",""
"null","","html-keyboard-response","655","734186","0.0-8.0-2.24","","<div style=""font-size:60px;"">+</div>","null","","","","","","",""
"null","","image-keyboard-response","656","735691","0.0-8.0-0.25","","img/pink.png","null","trial","null","true","0.4,0.6","4:nogo_d","",""
"null","","html-keyboard-response","657","736694","0.0-8.0-1.25","","<img src=""img/pink-r.png"">","null","trial","null","","0.4,0.6","4:nogo_d","1",""
"null","","html-keyboard-response","658","737696","0.0-8.0-2.25","","<div style=""font-size:60px;"">+</div>","null","","","","","","",""
"null","","image-keyboard-response","659","739199","0.0-8.0-0.26","","img/grey.png","null","trial","null","true","0.2,0.8","2:nogo_b","",""
"null","","html-keyboard-response","660","740203","0.0-8.0-1.26","","<img src=""img/grey-r.png"">","null","trial","null","","0.2,0.8","2:nogo_b","1",""
"null","","html-keyboard-response","661","741204","0.0-8.0-2.26","","<div style=""font-size:60px;"">+</div>","null","","","","","","",""
"671.0300000850111","","image-keyboard-response","662","741875","0.0-8.0-0.27","","img/blue.png","32","trial","32","true","0.8,0.2","1:go_a","",""
"null","","html-keyboard-response","663","742879","0.0-8.0-1.27","","<img src=""img/blue-n.png"" border=""10"">","null","trial","32","","0.8,0.2","1:go_a","0",""
"null","","html-keyboard-response","664","743885","0.0-8.0-2.27","","<div style=""font-size:60px;"">+</div>","null","","","","","","",""
"577.6199998799711","","image-keyboard-response","665","744463","0.0-8.0-0.28","","img/grey.png","32","trial","null","false","0.2,0.8","2:nogo_b","",""
"null","","html-keyboard-response","666","745466","0.0-8.0-1.28","","<img src=""img/grey-n.png"" border=""10"">","null","trial","null","","0.2,0.8","2:nogo_b","0",""
"null","","html-keyboard-response","667","746467","0.0-8.0-2.28","","<div style=""font-size:60px;"">+</div>","null","","","","","","",""
"661.5150000434369","","image-keyboard-response","668","747129","0.0-8.0-0.29","","img/blue.png","32","trial","32","true","0.8,0.2","1:go_a","",""
"null","","html-keyboard-response","669","748130","0.0-8.0-1.29","","<img src=""img/blue-r.png"" border=""10"">","null","trial","32","","0.8,0.2","1:go_a","1",""
"null","","html-keyboard-response","670","749131","0.0-8.0-2.29","","<div style=""font-size:60px;"">+</div>","null","","","","","","",""
"787.514999974519","","image-keyboard-response","671","749919","0.0-8.0-0.30","","img/pink.png","32","trial","null","false","0.4,0.6","4:nogo_d","",""
"null","","html-keyboard-response","672","750923","0.0-8.0-1.30","","<img src=""img/pink-n.png"" border=""10"">","null","trial","null","","0.4,0.6","4:nogo_d","0",""
"null","","html-keyboard-response","673","751928","0.0-8.0-2.30","","<div style=""font-size:60px;"">+</div>","null","","","","","","",""
"702.2200000938028","","image-keyboard-response","674","752631","0.0-8.0-0.31","","img/orange.png","32","trial","32","true","0.6,0.4","3:go_c","",""
"null","","html-keyboard-response","675","753637","0.0-8.0-1.31","","<img src=""img/orange-r.png"" border=""10"">","null","trial","32","","0.6,0.4","3:go_c","1",""
