"rt","url","trial_type","trial_index","time_elapsed","internal_node_id","view_history","stimulus","key_press","test_part","correct_response","correct","use_rew","which_stim","reward","responses"
"7594.5799999753945","consent.html","external-html","0","7711","0.0-0.0","","","","","","","","","",""
"176560.53999997675","","instructions","1","184268","0.0-1.0","[{""page_index"":0,""viewing_time"":14209.470000001602},{""page_index"":1,""viewing_time"":64305.590000003576},{""page_index"":2,""viewing_time"":13072.614999953657},{""page_index"":3,""viewing_time"":34212.08000002662},{""page_index"":4,""viewing_time"":21949.1449999623},{""page_index"":5,""viewing_time"":11070.325000036974},{""page_index"":6,""viewing_time"":17740.159999986645}]","","","","","","","","",""
"null","","image-keyboard-response","2","185772","0.0-2.0-0.0","","img/test2.PNG","null","practice","null","true","","","",""
"null","","html-keyboard-response","3","186776","0.0-2.0-1.0","","<img src=""img/test2-reward.PNG"">","null","","","","","","",""
"null","","html-keyboard-response","4","187780","0.0-2.0-2.0","","<div style=""font-size:60px;"">+</div>","null","","","","","","",""
"368.64499998046085","","image-keyboard-response","5","188149","0.0-2.0-0.1","","img/test1.PNG","32","practice","32","true","","","",""
"null","","html-keyboard-response","6","189150","0.0-2.0-1.1","","<img src=""img/test1-reward.PNG"" border=""10px; grey"">","null","","","","","","",""
"null","","html-keyboard-response","7","190154","0.0-2.0-2.1","","<div style=""font-size:60px;"">+</div>","null","","","","","","",""
"null","","image-keyboard-response","8","191658","0.0-2.0-0.2","","img/test3.PNG","null","practice","null","true","","","",""
"null","","html-keyboard-response","9","192662","0.0-2.0-1.2","","<img src=""img/test3-reward.PNG"">","null","","","","","","",""
"null","","html-keyboard-response","10","193666","0.0-2.0-2.2","","<div style=""font-size:60px;"">+</div>","null","","","","","","",""
"421.64499999489635","","image-keyboard-response","11","194088","0.0-2.0-0.3","","img/test1.PNG","32","practice","32","true","","","",""
"null","","html-keyboard-response","12","195092","0.0-2.0-1.3","","<img src=""img/test1-reward.PNG"" border=""10px; grey"">","null","","","","","","",""
"null","","html-keyboard-response","13","196096","0.0-2.0-2.3","","<div style=""font-size:60px;"">+</div>","null","","","","","","",""
"null","","image-keyboard-response","14","197601","0.0-2.0-0.4","","img/test3.PNG","null","practice","null","true","","","",""
"null","","html-keyboard-response","15","198606","0.0-2.0-1.4","","<img src=""img/test3-reward.PNG"">","null","","","","","","",""
"null","","html-keyboard-response","16","199611","0.0-2.0-2.4","","<div style=""font-size:60px;"">+</div>","null","","","","","","",""
"null","","image-keyboard-response","17","201115","0.0-2.0-0.5","","img/test2.PNG","null","practice","null","true","","","",""
"null","","html-keyboard-response","18","202119","0.0-2.0-1.5","","<img src=""img/test2-reward.PNG"">","null","","","","","","",""
"null","","html-keyboard-response","19","203122","0.0-2.0-2.5","","<div style=""font-size:60px;"">+</div>","null","","","","","","",""
"null","","image-keyboard-response","20","204626","0.0-2.0-0.6","","img/test3.PNG","null","practice","null","true","","","",""
"null","","html-keyboard-response","21","205630","0.0-2.0-1.6","","<img src=""img/test3-reward.PNG"">","null","","","","","","",""
"null","","html-keyboard-response","22","206635","0.0-2.0-2.6","","<div style=""font-size:60px;"">+</div>","null","","","","","","",""
"262.95499998377636","","image-keyboard-response","23","206899","0.0-2.0-0.7","","img/test1.PNG","32","practice","32","true","","","",""
"null","","html-keyboard-response","24","207903","0.0-2.0-1.7","","<img src=""img/test1-reward.PNG"" border=""10px; grey"">","null","","","","","","",""
"null","","html-keyboard-response","25","208907","0.0-2.0-2.7","","<div style=""font-size:60px;"">+</div>","null","","","","","","",""
"null","","image-keyboard-response","26","210411","0.0-2.0-0.8","","img/test2.PNG","null","practice","null","true","","","",""
"null","","html-keyboard-response","27","211416","0.0-2.0-1.8","","<img src=""img/test2-reward.PNG"">","null","","","","","","",""
"null","","html-keyboard-response","28","212420","0.0-2.0-2.8","","<div style=""font-size:60px;"">+</div>","null","","","","","","",""
"null","","image-keyboard-response","29","213924","0.0-2.0-0.9","","img/test2.PNG","null","practice","null","true","","","",""
"null","","html-keyboard-response","30","214929","0.0-2.0-1.9","","<img src=""img/test2-reward.PNG"">","null","","","","","","",""
"null","","html-keyboard-response","31","215933","0.0-2.0-2.9","","<div style=""font-size:60px;"">+</div>","null","","","","","","",""
"315.4050000011921","","image-keyboard-response","32","216249","0.0-2.0-0.10","","img/test1.PNG","32","practice","32","true","","","",""
"null","","html-keyboard-response","33","217254","0.0-2.0-1.10","","<img src=""img/test1-reward.PNG"" border=""10px; grey"">","null","","","","","","",""
"null","","html-keyboard-response","34","218256","0.0-2.0-2.10","","<div style=""font-size:60px;"">+</div>","null","","","","","","",""
"null","","image-keyboard-response","35","219760","0.0-2.0-0.11","","img/test3.PNG","null","practice","null","true","","","",""
"null","","html-keyboard-response","36","220763","0.0-2.0-1.11","","<img src=""img/test3-reward.PNG"">","null","","","","","","",""
"null","","html-keyboard-response","37","221767","0.0-2.0-2.11","","<div style=""font-size:60px;"">+</div>","null","","","","","","",""
"16262.580000038724","","instructions","38","238029","0.0-3.0","[{""page_index"":0,""viewing_time"":16262.465000036173}]","","","","","","","","",""
"null","","image-keyboard-response","39","239534","0.0-4.0-0.0","","img/grey.png","null","trial","32","false","0.8,0.2","1:go_a","",""
"null","","html-keyboard-response","40","240537","0.0-4.0-1.0","","<img src=""img/grey-n.png"">","null","trial","32","","0.8,0.2","1:go_a","0",""
"null","","html-keyboard-response","41","241538","0.0-4.0-2.0","","<div style=""font-size:60px;"">+</div>","null","","","","","","",""
"459.1249999939464","","image-keyboard-response","42","241998","0.0-4.0-0.1","","img/red.png","32","trial","null","false","0.2,0.8","2:nogo_b","",""
"null","","html-keyboard-response","43","243003","0.0-4.0-1.1","","<img src=""img/red-n.png"" border=""10"">","null","trial","null","","0.2,0.8","2:nogo_b","0",""
"null","","html-keyboard-response","44","244008","0.0-4.0-2.1","","<div style=""font-size:60px;"">+</div>","null","","","","","","",""
"247.0300000277348","","image-keyboard-response","45","244255","0.0-4.0-0.2","","img/grey.png","32","trial","32","true","0.8,0.2","1:go_a","",""
"null","","html-keyboard-response","46","245261","0.0-4.0-1.2","","<img src=""img/grey-r.png"" border=""10"">","null","trial","32","","0.8,0.2","1:go_a","1",""
"null","","html-keyboard-response","47","246266","0.0-4.0-2.2","","<div style=""font-size:60px;"">+</div>","null","","","","","","",""
"1327.1100000129081","","image-keyboard-response","48","247593","0.0-4.0-0.3","","img/red.png","32","trial","null","false","0.2,0.8","2:nogo_b","",""
"null","","html-keyboard-response","49","248596","0.0-4.0-1.3","","<img src=""img/red-n.png"" border=""10"">","null","trial","null","","0.2,0.8","2:nogo_b","0",""
"null","","html-keyboard-response","50","249602","0.0-4.0-2.3","","<div style=""font-size:60px;"">+</div>","null","","","","","","",""
"null","","image-keyboard-response","51","251104","0.0-4.0-0.4","","img/red.png","null","trial","null","true","0.2,0.8","2:nogo_b","",""
"null","","html-keyboard-response","52","252109","0.0-4.0-1.4","","<img src=""img/red-r.png"">","null","trial","null","","0.2,0.8","2:nogo_b","1",""
"null","","html-keyboard-response","53","253115","0.0-4.0-2.4","","<div style=""font-size:60px;"">+</div>","null","","","","","","",""
"1443.6100000166334","","image-keyboard-response","54","254559","0.0-4.0-0.5","","img/grey.png","32","trial","32","true","0.8,0.2","1:go_a","",""
"null","","html-keyboard-response","55","255562","0.0-4.0-1.5","","<img src=""img/grey-r.png"" border=""10"">","null","trial","32","","0.8,0.2","1:go_a","1",""
"null","","html-keyboard-response","56","256567","0.0-4.0-2.5","","<div style=""font-size:60px;"">+</div>","null","","","","","","",""
"null","","image-keyboard-response","57","258069","0.0-4.0-0.6","","img/red.png","null","trial","null","true","0.2,0.8","2:nogo_b","",""
"null","","html-keyboard-response","58","259073","0.0-4.0-1.6","","<img src=""img/red-r.png"">","null","trial","null","","0.2,0.8","2:nogo_b","1",""
"null","","html-keyboard-response","59","260077","0.0-4.0-2.6","","<div style=""font-size:60px;"">+</div>","null","","","","","","",""
"397.0499999704771","","image-keyboard-response","60","260475","0.0-4.0-0.7","","img/grey.png","32","trial","32","true","0.8,0.2","1:go_a","",""
"null","","html-keyboard-response","61","261480","0.0-4.0-1.7","","<img src=""img/grey-r.png"" border=""10"">","null","trial","32","","0.8,0.2","1:go_a","1",""
"null","","html-keyboard-response","62","262482","0.0-4.0-2.7","","<div style=""font-size:60px;"">+</div>","null","","","","","","",""
"null","","image-keyboard-response","63","263986","0.0-4.0-0.8","","img/red.png","null","trial","null","true","0.2,0.8","2:nogo_b","",""
"null","","html-keyboard-response","64","264991","0.0-4.0-1.8","","<img src=""img/red-r.png"">","null","trial","null","","0.2,0.8","2:nogo_b","1",""
"null","","html-keyboard-response","65","265996","0.0-4.0-2.8","","<div style=""font-size:60px;"">+</div>","null","","","","","","",""
"370.4049999942072","","image-keyboard-response","66","266366","0.0-4.0-0.9","","img/grey.png","32","trial","32","true","0.8,0.2","1:go_a","",""
"null","","html-keyboard-response","67","267372","0.0-4.0-1.9","","<img src=""img/grey-r.png"" border=""10"">","null","trial","32","","0.8,0.2","1:go_a","1",""
"null","","html-keyboard-response","68","268376","0.0-4.0-2.9","","<div style=""font-size:60px;"">+</div>","null","","","","","","",""
"565.3500000480562","","image-keyboard-response","69","268942","0.0-4.0-0.10","","img/grey.png","32","trial","32","true","0.8,0.2","1:go_a","",""
"null","","html-keyboard-response","70","269947","0.0-4.0-1.10","","<img src=""img/grey-r.png"" border=""10"">","null","trial","32","","0.8,0.2","1:go_a","1",""
"null","","html-keyboard-response","71","270952","0.0-4.0-2.10","","<div style=""font-size:60px;"">+</div>","null","","","","","","",""
"null","","image-keyboard-response","72","272455","0.0-4.0-0.11","","img/red.png","null","trial","null","true","0.2,0.8","2:nogo_b","",""
"null","","html-keyboard-response","73","273457","0.0-4.0-1.11","","<img src=""img/red-n.png"">","null","trial","null","","0.2,0.8","2:nogo_b","0",""
"null","","html-keyboard-response","74","274458","0.0-4.0-2.11","","<div style=""font-size:60px;"">+</div>","null","","","","","","",""
"399.54000001307577","","image-keyboard-response","75","274858","0.0-4.0-0.12","","img/grey.png","32","trial","32","true","0.8,0.2","1:go_a","",""
"null","","html-keyboard-response","76","275864","0.0-4.0-1.12","","<img src=""img/grey-r.png"" border=""10"">","null","trial","32","","0.8,0.2","1:go_a","1",""
"null","","html-keyboard-response","77","276868","0.0-4.0-2.12","","<div style=""font-size:60px;"">+</div>","null","","","","","","",""
"null","","image-keyboard-response","78","278371","0.0-4.0-0.13","","img/red.png","null","trial","null","true","0.2,0.8","2:nogo_b","",""
"null","","html-keyboard-response","79","279376","0.0-4.0-1.13","","<img src=""img/red-r.png"">","null","trial","null","","0.2,0.8","2:nogo_b","1",""
"null","","html-keyboard-response","80","280379","0.0-4.0-2.13","","<div style=""font-size:60px;"">+</div>","null","","","","","","",""
"null","","image-keyboard-response","81","281884","0.0-4.0-0.14","","img/red.png","null","trial","null","true","0.2,0.8","2:nogo_b","",""
"null","","html-keyboard-response","82","282890","0.0-4.0-1.14","","<img src=""img/red-r.png"">","null","trial","null","","0.2,0.8","2:nogo_b","1",""
"null","","html-keyboard-response","83","283894","0.0-4.0-2.14","","<div style=""font-size:60px;"">+</div>","null","","","","","","",""
"361.8600000045262","","image-keyboard-response","84","284257","0.0-4.0-0.15","","img/grey.png","32","trial","32","true","0.8,0.2","1:go_a","",""
"null","","html-keyboard-response","85","285262","0.0-4.0-1.15","","<img src=""img/grey-n.png"" border=""10"">","null","trial","32","","0.8,0.2","1:go_a","0",""
"null","","html-keyboard-response","86","286264","0.0-4.0-2.15","","<div style=""font-size:60px;"">+</div>","null","","","","","","",""
"781.844999990426","","image-keyboard-response","87","287047","0.0-4.0-0.16","","img/grey.png","32","trial","32","true","0.8,0.2","1:go_a","",""
"null","","html-keyboard-response","88","288051","0.0-4.0-1.16","","<img src=""img/grey-r.png"" border=""10"">","null","trial","32","","0.8,0.2","1:go_a","1",""
"null","","html-keyboard-response","89","289056","0.0-4.0-2.16","","<div style=""font-size:60px;"">+</div>","null","","","","","","",""
"null","","image-keyboard-response","90","290561","0.0-4.0-0.17","","img/red.png","null","trial","null","true","0.2,0.8","2:nogo_b","",""
"null","","html-keyboard-response","91","291564","0.0-4.0-1.17","","<img src=""img/red-r.png"">","null","trial","null","","0.2,0.8","2:nogo_b","1",""
"null","","html-keyboard-response","92","292568","0.0-4.0-2.17","","<div style=""font-size:60px;"">+</div>","null","","","","","","",""
"null","","image-keyboard-response","93","294073","0.0-4.0-0.18","","img/red.png","null","trial","null","true","0.2,0.8","2:nogo_b","",""
"null","","html-keyboard-response","94","295077","0.0-4.0-1.18","","<img src=""img/red-r.png"">","null","trial","null","","0.2,0.8","2:nogo_b","1",""
"null","","html-keyboard-response","95","296081","0.0-4.0-2.18","","<div style=""font-size:60px;"">+</div>","null","","","","","","",""
"342.0250000199303","","image-keyboard-response","96","296423","0.0-4.0-0.19","","img/grey.png","32","trial","32","true","0.8,0.2","1:go_a","",""
"null","","html-keyboard-response","97","297427","0.0-4.0-1.19","","<img src=""img/grey-r.png"" border=""10"">","null","trial","32","","0.8,0.2","1:go_a","1",""
"null","","html-keyboard-response","98","298431","0.0-4.0-2.19","","<div style=""font-size:60px;"">+</div>","null","","","","","","",""
"495.2099999645725","","image-keyboard-response","99","298927","0.0-4.0-0.20","","img/grey.png","32","trial","32","true","0.8,0.2","1:go_a","",""
"null","","html-keyboard-response","100","299931","0.0-4.0-1.20","","<img src=""img/grey-n.png"" border=""10"">","null","trial","32","","0.8,0.2","1:go_a","0",""
"null","","html-keyboard-response","101","300935","0.0-4.0-2.20","","<div style=""font-size:60px;"">+</div>","null","","","","","","",""
"null","","image-keyboard-response","102","302438","0.0-4.0-0.21","","img/red.png","null","trial","null","true","0.2,0.8","2:nogo_b","",""
"null","","html-keyboard-response","103","303442","0.0-4.0-1.21","","<img src=""img/red-r.png"">","null","trial","null","","0.2,0.8","2:nogo_b","1",""
"null","","html-keyboard-response","104","304446","0.0-4.0-2.21","","<div style=""font-size:60px;"">+</div>","null","","","","","","",""
"null","","image-keyboard-response","105","305950","0.0-4.0-0.22","","img/red.png","null","trial","null","true","0.2,0.8","2:nogo_b","",""
"null","","html-keyboard-response","106","306955","0.0-4.0-1.22","","<img src=""img/red-r.png"">","null","trial","null","","0.2,0.8","2:nogo_b","1",""
"null","","html-keyboard-response","107","307959","0.0-4.0-2.22","","<div style=""font-size:60px;"">+</div>","null","","","","","","",""
"390.40999999269843","","image-keyboard-response","108","308350","0.0-4.0-0.23","","img/grey.png","32","trial","32","true","0.8,0.2","1:go_a","",""
"null","","html-keyboard-response","109","309355","0.0-4.0-1.23","","<img src=""img/grey-r.png"" border=""10"">","null","trial","32","","0.8,0.2","1:go_a","1",""
"null","","html-keyboard-response","110","310358","0.0-4.0-2.23","","<div style=""font-size:60px;"">+</div>","null","","","","","","",""
"null","","image-keyboard-response","111","311863","0.0-4.0-0.24","","img/red.png","null","trial","null","true","0.2,0.8","2:nogo_b","",""
"null","","html-keyboard-response","112","312868","0.0-4.0-1.24","","<img src=""img/red-n.png"">","null","trial","null","","0.2,0.8","2:nogo_b","0",""
"null","","html-keyboard-response","113","313872","0.0-4.0-2.24","","<div style=""font-size:60px;"">+</div>","null","","","","","","",""
"320.7499999552965","","image-keyboard-response","114","314193","0.0-4.0-0.25","","img/grey.png","32","trial","32","true","0.8,0.2","1:go_a","",""
"null","","html-keyboard-response","115","315198","0.0-4.0-1.25","","<img src=""img/grey-n.png"" border=""10"">","null","trial","32","","0.8,0.2","1:go_a","0",""
"null","","html-keyboard-response","116","316202","0.0-4.0-2.25","","<div style=""font-size:60px;"">+</div>","null","","","","","","",""
"375.9499999578111","","image-keyboard-response","117","316579","0.0-4.0-0.26","","img/grey.png","32","trial","32","true","0.8,0.2","1:go_a","",""
"null","","html-keyboard-response","118","317583","0.0-4.0-1.26","","<img src=""img/grey-n.png"" border=""10"">","null","trial","32","","0.8,0.2","1:go_a","0",""
"null","","html-keyboard-response","119","318586","0.0-4.0-2.26","","<div style=""font-size:60px;"">+</div>","null","","","","","","",""
"425.99499999778345","","image-keyboard-response","120","319013","0.0-4.0-0.27","","img/red.png","32","trial","null","false","0.2,0.8","2:nogo_b","",""
"null","","html-keyboard-response","121","320018","0.0-4.0-1.27","","<img src=""img/red-n.png"" border=""10"">","null","trial","null","","0.2,0.8","2:nogo_b","0",""
"null","","html-keyboard-response","122","321022","0.0-4.0-2.27","","<div style=""font-size:60px;"">+</div>","null","","","","","","",""
"374.84999996377155","","image-keyboard-response","123","321397","0.0-4.0-0.28","","img/grey.png","32","trial","32","true","0.8,0.2","1:go_a","",""
"null","","html-keyboard-response","124","322402","0.0-4.0-1.28","","<img src=""img/grey-r.png"" border=""10"">","null","trial","32","","0.8,0.2","1:go_a","1",""
"null","","html-keyboard-response","125","323406","0.0-4.0-2.28","","<div style=""font-size:60px;"">+</div>","null","","","","","","",""
"null","","image-keyboard-response","126","324910","0.0-4.0-0.29","","img/red.png","null","trial","null","true","0.2,0.8","2:nogo_b","",""
"null","","html-keyboard-response","127","325915","0.0-4.0-1.29","","<img src=""img/red-r.png"">","null","trial","null","","0.2,0.8","2:nogo_b","1",""
"null","","html-keyboard-response","128","326919","0.0-4.0-2.29","","<div style=""font-size:60px;"">+</div>","null","","","","","","",""
"369.5300000254065","","image-keyboard-response","129","327289","0.0-4.0-0.30","","img/grey.png","32","trial","32","true","0.8,0.2","1:go_a","",""
"null","","html-keyboard-response","130","328295","0.0-4.0-1.30","","<img src=""img/grey-r.png"" border=""10"">","null","trial","32","","0.8,0.2","1:go_a","1",""
"null","","html-keyboard-response","131","329299","0.0-4.0-2.30","","<div style=""font-size:60px;"">+</div>","null","","","","","","",""
"null","","image-keyboard-response","132","330804","0.0-4.0-0.31","","img/red.png","null","trial","null","true","0.2,0.8","2:nogo_b","",""
"null","","html-keyboard-response","133","331809","0.0-4.0-1.31","","<img src=""img/red-r.png"">","null","trial","null","","0.2,0.8","2:nogo_b","1",""
"null","","html-keyboard-response","134","332813","0.0-4.0-2.31","","<div style=""font-size:60px;"">+</div>","null","","","","","","",""
"368.36999998195097","","image-keyboard-response","135","333182","0.0-4.0-0.32","","img/grey.png","32","trial","32","true","0.8,0.2","1:go_a","",""
"null","","html-keyboard-response","136","334187","0.0-4.0-1.32","","<img src=""img/grey-n.png"" border=""10"">","null","trial","32","","0.8,0.2","1:go_a","0",""
"null","","html-keyboard-response","137","335192","0.0-4.0-2.32","","<div style=""font-size:60px;"">+</div>","null","","","","","","",""
"null","","image-keyboard-response","138","336697","0.0-4.0-0.33","","img/red.png","null","trial","null","true","0.2,0.8","2:nogo_b","",""
"null","","html-keyboard-response","139","337700","0.0-4.0-1.33","","<img src=""img/red-r.png"">","null","trial","null","","0.2,0.8","2:nogo_b","1",""
"null","","html-keyboard-response","140","338705","0.0-4.0-2.33","","<div style=""font-size:60px;"">+</div>","null","","","","","","",""
"null","","image-keyboard-response","141","340210","0.0-4.0-0.34","","img/red.png","null","trial","null","true","0.2,0.8","2:nogo_b","",""
"null","","html-keyboard-response","142","341214","0.0-4.0-1.34","","<img src=""img/red-r.png"">","null","trial","null","","0.2,0.8","2:nogo_b","1",""
"null","","html-keyboard-response","143","342219","0.0-4.0-2.34","","<div style=""font-size:60px;"">+</div>","null","","","","","","",""
"409.0199999627657","","image-keyboard-response","144","342628","0.0-4.0-0.35","","img/grey.png","32","trial","32","true","0.8,0.2","1:go_a","",""
"null","","html-keyboard-response","145","343633","0.0-4.0-1.35","","<img src=""img/grey-r.png"" border=""10"">","null","trial","32","","0.8,0.2","1:go_a","1",""
"null","","html-keyboard-response","146","344638","0.0-4.0-2.35","","<div style=""font-size:60px;"">+</div>","null","","","","","","",""
"null","","image-keyboard-response","147","346141","0.0-4.0-0.36","","img/red.png","null","trial","null","true","0.2,0.8","2:nogo_b","",""
"null","","html-keyboard-response","148","347146","0.0-4.0-1.36","","<img src=""img/red-r.png"">","null","trial","null","","0.2,0.8","2:nogo_b","1",""
"null","","html-keyboard-response","149","348150","0.0-4.0-2.36","","<div style=""font-size:60px;"">+</div>","null","","","","","","",""
"442.2449999838136","","image-keyboard-response","150","348592","0.0-4.0-0.37","","img/grey.png","32","trial","32","true","0.8,0.2","1:go_a","",""
"null","","html-keyboard-response","151","349595","0.0-4.0-1.37","","<img src=""img/grey-r.png"" border=""10"">","null","trial","32","","0.8,0.2","1:go_a","1",""
"null","","html-keyboard-response","152","350599","0.0-4.0-2.37","","<div style=""font-size:60px;"">+</div>","null","","","","","","",""
"null","","image-keyboard-response","153","352102","0.0-4.0-0.38","","img/red.png","null","trial","null","true","0.2,0.8","2:nogo_b","",""
"null","","html-keyboard-response","154","353106","0.0-4.0-1.38","","<img src=""img/red-n.png"">","null","trial","null","","0.2,0.8","2:nogo_b","0",""
"null","","html-keyboard-response","155","354111","0.0-4.0-2.38","","<div style=""font-size:60px;"">+</div>","null","","","","","","",""
"395.93999995850027","","image-keyboard-response","156","354507","0.0-4.0-0.39","","img/grey.png","32","trial","32","true","0.8,0.2","1:go_a","",""
"null","","html-keyboard-response","157","355511","0.0-4.0-1.39","","<img src=""img/grey-r.png"" border=""10"">","null","trial","32","","0.8,0.2","1:go_a","1",""
"null","","html-keyboard-response","158","356514","0.0-4.0-2.39","","<div style=""font-size:60px;"">+</div>","null","","","","","","",""
"592.8450000355951","","image-keyboard-response","159","357107","0.0-4.0-0.40","","img/grey.png","32","trial","32","true","0.8,0.2","1:go_a","",""
"null","","html-keyboard-response","160","358114","0.0-4.0-1.40","","<img src=""img/grey-n.png"" border=""10"">","null","trial","32","","0.8,0.2","1:go_a","0",""
"null","","html-keyboard-response","161","359119","0.0-4.0-2.40","","<div style=""font-size:60px;"">+</div>","null","","","","","","",""
"null","","image-keyboard-response","162","360623","0.0-4.0-0.41","","img/red.png","null","trial","null","true","0.2,0.8","2:nogo_b","",""
"null","","html-keyboard-response","163","361628","0.0-4.0-1.41","","<img src=""img/red-r.png"">","null","trial","null","","0.2,0.8","2:nogo_b","1",""
"null","","html-keyboard-response","164","362633","0.0-4.0-2.41","","<div style=""font-size:60px;"">+</div>","null","","","","","","",""
"null","","image-keyboard-response","165","364138","0.0-4.0-0.42","","img/red.png","null","trial","null","true","0.2,0.8","2:nogo_b","",""
"null","","html-keyboard-response","166","365144","0.0-4.0-1.42","","<img src=""img/red-r.png"">","null","trial","null","","0.2,0.8","2:nogo_b","1",""
"null","","html-keyboard-response","167","366148","0.0-4.0-2.42","","<div style=""font-size:60px;"">+</div>","null","","","","","","",""
"357.3399999877438","","image-keyboard-response","168","366506","0.0-4.0-0.43","","img/grey.png","32","trial","32","true","0.8,0.2","1:go_a","",""
"null","","html-keyboard-response","169","367509","0.0-4.0-1.43","","<img src=""img/grey-n.png"" border=""10"">","null","trial","32","","0.8,0.2","1:go_a","0",""
"null","","html-keyboard-response","170","368514","0.0-4.0-2.43","","<div style=""font-size:60px;"">+</div>","null","","","","","","",""
"null","","image-keyboard-response","171","370019","0.0-4.0-0.44","","img/grey.png","null","trial","32","false","0.8,0.2","1:go_a","",""
"null","","html-keyboard-response","172","371020","0.0-4.0-1.44","","<img src=""img/grey-r.png"">","null","trial","32","","0.8,0.2","1:go_a","1",""
"null","","html-keyboard-response","173","372025","0.0-4.0-2.44","","<div style=""font-size:60px;"">+</div>","null","","","","","","",""
"null","","image-keyboard-response","174","373528","0.0-4.0-0.45","","img/red.png","null","trial","null","true","0.2,0.8","2:nogo_b","",""
"null","","html-keyboard-response","175","374532","0.0-4.0-1.45","","<img src=""img/red-r.png"">","null","trial","null","","0.2,0.8","2:nogo_b","1",""
"null","","html-keyboard-response","176","375536","0.0-4.0-2.45","","<div style=""font-size:60px;"">+</div>","null","","","","","","",""
"391.04999997653067","","image-keyboard-response","177","375928","0.0-4.0-0.46","","img/grey.png","32","trial","32","true","0.8,0.2","1:go_a","",""
"null","","html-keyboard-response","178","376932","0.0-4.0-1.46","","<img src=""img/grey-r.png"" border=""10"">","null","trial","32","","0.8,0.2","1:go_a","1",""
"null","","html-keyboard-response","179","377936","0.0-4.0-2.46","","<div style=""font-size:60px;"">+</div>","null","","","","","","",""
"null","","image-keyboard-response","180","379441","0.0-4.0-0.47","","img/red.png","null","trial","null","true","0.2,0.8","2:nogo_b","",""
"null","","html-keyboard-response","181","380446","0.0-4.0-1.47","","<img src=""img/red-r.png"">","null","trial","null","","0.2,0.8","2:nogo_b","1",""
"null","","html-keyboard-response","182","381449","0.0-4.0-2.47","","<div style=""font-size:60px;"">+</div>","null","","","","","","",""
"512.9450000240467","","image-keyboard-response","183","381963","0.0-4.0-0.48","","img/grey.png","32","trial","32","true","0.8,0.2","1:go_a","",""
"null","","html-keyboard-response","184","382968","0.0-4.0-1.48","","<img src=""img/grey-r.png"" border=""10"">","null","trial","32","","0.8,0.2","1:go_a","1",""
"null","","html-keyboard-response","185","383972","0.0-4.0-2.48","","<div style=""font-size:60px;"">+</div>","null","","","","","","",""
"null","","image-keyboard-response","186","385473","0.0-4.0-0.49","","img/red.png","null","trial","null","true","0.2,0.8","2:nogo_b","",""
"null","","html-keyboard-response","187","386478","0.0-4.0-1.49","","<img src=""img/red-r.png"">","null","trial","null","","0.2,0.8","2:nogo_b","1",""
"null","","html-keyboard-response","188","387481","0.0-4.0-2.49","","<div style=""font-size:60px;"">+</div>","null","","","","","","",""
"null","","image-keyboard-response","189","388984","0.0-4.0-0.50","","img/red.png","null","trial","null","true","0.2,0.8","2:nogo_b","",""
"null","","html-keyboard-response","190","389988","0.0-4.0-1.50","","<img src=""img/red-r.png"">","null","trial","null","","0.2,0.8","2:nogo_b","1",""
"null","","html-keyboard-response","191","390993","0.0-4.0-2.50","","<div style=""font-size:60px;"">+</div>","null","","","","","","",""
"344.6750000002794","","image-keyboard-response","192","391338","0.0-4.0-0.51","","img/grey.png","32","trial","32","true","0.8,0.2","1:go_a","",""
"null","","html-keyboard-response","193","392345","0.0-4.0-1.51","","<img src=""img/grey-n.png"" border=""10"">","null","trial","32","","0.8,0.2","1:go_a","0",""
"null","","html-keyboard-response","194","393349","0.0-4.0-2.51","","<div style=""font-size:60px;"">+</div>","null","","","","","","",""
"659.5150000066496","","image-keyboard-response","195","394009","0.0-4.0-0.52","","img/grey.png","32","trial","32","true","0.8,0.2","1:go_a","",""
"null","","html-keyboard-response","196","395014","0.0-4.0-1.52","","<img src=""img/grey-n.png"" border=""10"">","null","trial","32","","0.8,0.2","1:go_a","0",""
"null","","html-keyboard-response","197","396016","0.0-4.0-2.52","","<div style=""font-size:60px;"">+</div>","null","","","","","","",""
"null","","image-keyboard-response","198","397521","0.0-4.0-0.53","","img/red.png","null","trial","null","true","0.2,0.8","2:nogo_b","",""
"null","","html-keyboard-response","199","398527","0.0-4.0-1.53","","<img src=""img/red-n.png"">","null","trial","null","","0.2,0.8","2:nogo_b","0",""
"null","","html-keyboard-response","200","399532","0.0-4.0-2.53","","<div style=""font-size:60px;"">+</div>","null","","","","","","",""
"null","","image-keyboard-response","201","401036","0.0-4.0-0.54","","img/red.png","null","trial","null","true","0.2,0.8","2:nogo_b","",""
"null","","html-keyboard-response","202","402041","0.0-4.0-1.54","","<img src=""img/red-r.png"">","null","trial","null","","0.2,0.8","2:nogo_b","1",""
"null","","html-keyboard-response","203","403045","0.0-4.0-2.54","","<div style=""font-size:60px;"">+</div>","null","","","","","","",""
"314.7449999814853","","image-keyboard-response","204","403360","0.0-4.0-0.55","","img/grey.png","32","trial","32","true","0.8,0.2","1:go_a","",""
"null","","html-keyboard-response","205","404363","0.0-4.0-1.55","","<img src=""img/grey-r.png"" border=""10"">","null","trial","32","","0.8,0.2","1:go_a","1",""
"null","","html-keyboard-response","206","405368","0.0-4.0-2.55","","<div style=""font-size:60px;"">+</div>","null","","","","","","",""
"689.1499999910593","","image-keyboard-response","207","406058","0.0-4.0-0.56","","img/grey.png","32","trial","32","true","0.8,0.2","1:go_a","",""
"null","","html-keyboard-response","208","407063","0.0-4.0-1.56","","<img src=""img/grey-n.png"" border=""10"">","null","trial","32","","0.8,0.2","1:go_a","0",""
"null","","html-keyboard-response","209","408066","0.0-4.0-2.56","","<div style=""font-size:60px;"">+</div>","null","","","","","","",""
"null","","image-keyboard-response","210","409572","0.0-4.0-0.57","","img/red.png","null","trial","null","true","0.2,0.8","2:nogo_b","",""
"null","","html-keyboard-response","211","410575","0.0-4.0-1.57","","<img src=""img/red-r.png"">","null","trial","null","","0.2,0.8","2:nogo_b","1",""
"null","","html-keyboard-response","212","411579","0.0-4.0-2.57","","<div style=""font-size:60px;"">+</div>","null","","","","","","",""
"320.3850000281818","","image-keyboard-response","213","411900","0.0-4.0-0.58","","img/grey.png","32","trial","32","true","0.8,0.2","1:go_a","",""
"null","","html-keyboard-response","214","412905","0.0-4.0-1.58","","<img src=""img/grey-r.png"" border=""10"">","null","trial","32","","0.8,0.2","1:go_a","1",""
"null","","html-keyboard-response","215","413909","0.0-4.0-2.58","","<div style=""font-size:60px;"">+</div>","null","","","","","","",""
"null","","image-keyboard-response","216","415413","0.0-4.0-0.59","","img/red.png","null","trial","null","true","0.2,0.8","2:nogo_b","",""
"null","","html-keyboard-response","217","416418","0.0-4.0-1.59","","<img src=""img/red-r.png"">","null","trial","null","","0.2,0.8","2:nogo_b","1",""
"null","","html-keyboard-response","218","417423","0.0-4.0-2.59","","<div style=""font-size:60px;"">+</div>","null","","","","","","",""
"18995.840000046883","","instructions","219","436419","0.0-5.0","[{""page_index"":0,""viewing_time"":18995.675000012852}]","","","","","","","","",""
"1074.5699999970384","","image-keyboard-response","220","437494","0.0-6.0-0.0","","img/pink.png","32","trial","32","true","1,0","3:go_c","",""
"null","","html-keyboard-response","221","438498","0.0-6.0-1.0","","<img src=""img/pink-r.png"" border=""10"">","null","trial","32","","1,0","3:go_c","1",""
"null","","html-keyboard-response","222","439503","0.0-6.0-2.0","","<div style=""font-size:60px;"">+</div>","null","","","","","","",""
"830.6800000136718","","image-keyboard-response","223","440334","0.0-6.0-0.1","","img/red.png","32","trial","32","true","0.8,0.2","1:go_a","",""
"null","","html-keyboard-response","224","441336","0.0-6.0-1.1","","<img src=""img/red-r.png"" border=""10"">","null","trial","32","","0.8,0.2","1:go_a","1",""
"null","","html-keyboard-response","225","442341","0.0-6.0-2.1","","<div style=""font-size:60px;"">+</div>","null","","","","","","",""
"925.7000000216067","","image-keyboard-response","226","443267","0.0-6.0-0.2","","img/grey.png","32","trial","null","false","0,1","4:nogo_d","",""
"null","","html-keyboard-response","227","444272","0.0-6.0-1.2","","<img src=""img/grey-n.png"" border=""10"">","null","trial","null","","0,1","4:nogo_d","0",""
"null","","html-keyboard-response","228","445275","0.0-6.0-2.2","","<div style=""font-size:60px;"">+</div>","null","","","","","","",""
"900.5649999598972","","image-keyboard-response","229","446176","0.0-6.0-0.3","","img/blue.png","32","trial","null","false","0.2,0.8","2:nogo_b","",""
"null","","html-keyboard-response","230","447182","0.0-6.0-1.3","","<img src=""img/blue-n.png"" border=""10"">","null","trial","null","","0.2,0.8","2:nogo_b","0",""
"null","","html-keyboard-response","231","448187","0.0-6.0-2.3","","<div style=""font-size:60px;"">+</div>","null","","","","","","",""
"685.7399999862537","","image-keyboard-response","232","448873","0.0-6.0-0.4","","img/pink.png","32","trial","32","true","1,0","3:go_c","",""
"null","","html-keyboard-response","233","449878","0.0-6.0-1.4","","<img src=""img/pink-r.png"" border=""10"">","null","trial","32","","1,0","3:go_c","1",""
"null","","html-keyboard-response","234","450883","0.0-6.0-2.4","","<div style=""font-size:60px;"">+</div>","null","","","","","","",""
"null","","image-keyboard-response","235","452386","0.0-6.0-0.5","","img/blue.png","null","trial","null","true","0.2,0.8","2:nogo_b","",""
"null","","html-keyboard-response","236","453390","0.0-6.0-1.5","","<img src=""img/blue-n.png"">","null","trial","null","","0.2,0.8","2:nogo_b","0",""
"null","","html-keyboard-response","237","454395","0.0-6.0-2.5","","<div style=""font-size:60px;"">+</div>","null","","","","","","",""
"null","","image-keyboard-response","238","455899","0.0-6.0-0.6","","img/grey.png","null","trial","null","true","0,1","4:nogo_d","",""
"null","","html-keyboard-response","239","456902","0.0-6.0-1.6","","<img src=""img/grey-r.png"">","null","trial","null","","0,1","4:nogo_d","1",""
"null","","html-keyboard-response","240","457906","0.0-6.0-2.6","","<div style=""font-size:60px;"">+</div>","null","","","","","","",""
"508.86499998159707","","image-keyboard-response","241","458415","0.0-6.0-0.7","","img/red.png","32","trial","32","true","0.8,0.2","1:go_a","",""
"null","","html-keyboard-response","242","459420","0.0-6.0-1.7","","<img src=""img/red-r.png"" border=""10"">","null","trial","32","","0.8,0.2","1:go_a","1",""
"null","","html-keyboard-response","243","460424","0.0-6.0-2.7","","<div style=""font-size:60px;"">+</div>","null","","","","","","",""
"588.5899999993853","","image-keyboard-response","244","461014","0.0-6.0-0.8","","img/red.png","32","trial","32","true","0.8,0.2","1:go_a","",""
"null","","html-keyboard-response","245","462018","0.0-6.0-1.8","","<img src=""img/red-r.png"" border=""10"">","null","trial","32","","0.8,0.2","1:go_a","1",""
"null","","html-keyboard-response","246","463023","0.0-6.0-2.8","","<div style=""font-size:60px;"">+</div>","null","","","","","","",""
"null","","image-keyboard-response","247","464528","0.0-6.0-0.9","","img/grey.png","null","trial","null","true","0,1","4:nogo_d","",""
"null","","html-keyboard-response","248","465533","0.0-6.0-1.9","","<img src=""img/grey-r.png"">","null","trial","null","","0,1","4:nogo_d","1",""
"null","","html-keyboard-response","249","466538","0.0-6.0-2.9","","<div style=""font-size:60px;"">+</div>","null","","","","","","",""
"461.5099999937229","","image-keyboard-response","250","467000","0.0-6.0-0.10","","img/pink.png","32","trial","32","true","1,0","3:go_c","",""
"null","","html-keyboard-response","251","468005","0.0-6.0-1.10","","<img src=""img/pink-r.png"" border=""10"">","null","trial","32","","1,0","3:go_c","1",""
"null","","html-keyboard-response","252","469009","0.0-6.0-2.10","","<div style=""font-size:60px;"">+</div>","null","","","","","","",""
"null","","image-keyboard-response","253","470513","0.0-6.0-0.11","","img/blue.png","null","trial","null","true","0.2,0.8","2:nogo_b","",""
"null","","html-keyboard-response","254","471517","0.0-6.0-1.11","","<img src=""img/blue-r.png"">","null","trial","null","","0.2,0.8","2:nogo_b","1",""
"null","","html-keyboard-response","255","472521","0.0-6.0-2.11","","<div style=""font-size:60px;"">+</div>","null","","","","","","",""
"657.5149999698624","","image-keyboard-response","256","473179","0.0-6.0-0.12","","img/red.png","32","trial","32","true","0.8,0.2","1:go_a","",""
"null","","html-keyboard-response","257","474184","0.0-6.0-1.12","","<img src=""img/red-r.png"" border=""10"">","null","trial","32","","0.8,0.2","1:go_a","1",""
"null","","html-keyboard-response","258","475187","0.0-6.0-2.12","","<div style=""font-size:60px;"">+</div>","null","","","","","","",""
"685.4299999540672","","image-keyboard-response","259","475873","0.0-6.0-0.13","","img/pink.png","32","trial","32","true","1,0","3:go_c","",""
"null","","html-keyboard-response","260","476877","0.0-6.0-1.13","","<img src=""img/pink-r.png"" border=""10"">","null","trial","32","","1,0","3:go_c","1",""
"null","","html-keyboard-response","261","477881","0.0-6.0-2.13","","<div style=""font-size:60px;"">+</div>","null","","","","","","",""
"null","","image-keyboard-response","262","479385","0.0-6.0-0.14","","img/blue.png","null","trial","null","true","0.2,0.8","2:nogo_b","",""
"null","","html-keyboard-response","263","480390","0.0-6.0-1.14","","<img src=""img/blue-r.png"">","null","trial","null","","0.2,0.8","2:nogo_b","1",""
"null","","html-keyboard-response","264","481393","0.0-6.0-2.14","","<div style=""font-size:60px;"">+</div>","null","","","","","","",""
"null","","image-keyboard-response","265","482897","0.0-6.0-0.15","","img/grey.png","null","trial","null","true","0,1","4:nogo_d","",""
"null","","html-keyboard-response","266","483901","0.0-6.0-1.15","","<img src=""img/grey-r.png"">","null","trial","null","","0,1","4:nogo_d","1",""
"null","","html-keyboard-response","267","484905","0.0-6.0-2.15","","<div style=""font-size:60px;"">+</div>","null","","","","","","",""
"367.7500000339933","","image-keyboard-response","268","485273","0.0-6.0-0.16","","img/red.png","32","trial","32","true","0.8,0.2","1:go_a","",""
"null","","html-keyboard-response","269","486276","0.0-6.0-1.16","","<img src=""img/red-r.png"" border=""10"">","null","trial","32","","0.8,0.2","1:go_a","1",""
"null","","html-keyboard-response","270","487280","0.0-6.0-2.16","","<div style=""font-size:60px;"">+</div>","null","","","","","","",""
"569.3849999806844","","image-keyboard-response","271","487850","0.0-6.0-0.17","","img/pink.png","32","trial","32","true","1,0","3:go_c","",""
"null","","html-keyboard-response","272","488852","0.0-6.0-1.17","","<img src=""img/pink-r.png"" border=""10"">","null","trial","32","","1,0","3:go_c","1",""
"null","","html-keyboard-response","273","489857","0.0-6.0-2.17","","<div style=""font-size:60px;"">+</div>","null","","","","","","",""
"null","","image-keyboard-response","274","491360","0.0-6.0-0.18","","img/grey.png","null","trial","null","true","0,1","4:nogo_d","",""
"null","","html-keyboard-response","275","492362","0.0-6.0-1.18","","<img src=""img/grey-r.png"">","null","trial","null","","0,1","4:nogo_d","1",""
"null","","html-keyboard-response","276","493367","0.0-6.0-2.18","","<div style=""font-size:60px;"">+</div>","null","","","","","","",""
"null","","image-keyboard-response","277","494872","0.0-6.0-0.19","","img/blue.png","null","trial","null","true","0.2,0.8","2:nogo_b","",""
"null","","html-keyboard-response","278","495873","0.0-6.0-1.19","","<img src=""img/blue-r.png"">","null","trial","null","","0.2,0.8","2:nogo_b","1",""
"null","","html-keyboard-response","279","496876","0.0-6.0-2.19","","<div style=""font-size:60px;"">+</div>","null","","","","","","",""
"466.52000001631677","","image-keyboard-response","280","497343","0.0-6.0-0.20","","img/red.png","32","trial","32","true","0.8,0.2","1:go_a","",""
"null","","html-keyboard-response","281","498349","0.0-6.0-1.20","","<img src=""img/red-r.png"" border=""10"">","null","trial","32","","0.8,0.2","1:go_a","1",""
"null","","html-keyboard-response","282","499353","0.0-6.0-2.20","","<div style=""font-size:60px;"">+</div>","null","","","","","","",""
"null","","image-keyboard-response","283","500858","0.0-6.0-0.21","","img/blue.png","null","trial","null","true","0.2,0.8","2:nogo_b","",""
"null","","html-keyboard-response","284","501860","0.0-6.0-1.21","","<img src=""img/blue-r.png"">","null","trial","null","","0.2,0.8","2:nogo_b","1",""
"null","","html-keyboard-response","285","502865","0.0-6.0-2.21","","<div style=""font-size:60px;"">+</div>","null","","","","","","",""
"488.7250000028871","","image-keyboard-response","286","503354","0.0-6.0-0.22","","img/pink.png","32","trial","32","true","1,0","3:go_c","",""
"null","","html-keyboard-response","287","504359","0.0-6.0-1.22","","<img src=""img/pink-r.png"" border=""10"">","null","trial","32","","1,0","3:go_c","1",""
"null","","html-keyboard-response","288","505360","0.0-6.0-2.22","","<div style=""font-size:60px;"">+</div>","null","","","","","","",""
"null","","image-keyboard-response","289","506864","0.0-6.0-0.23","","img/grey.png","null","trial","null","true","0,1","4:nogo_d","",""
"null","","html-keyboard-response","290","507868","0.0-6.0-1.23","","<img src=""img/grey-r.png"">","null","trial","null","","0,1","4:nogo_d","1",""
"null","","html-keyboard-response","291","508872","0.0-6.0-2.23","","<div style=""font-size:60px;"">+</div>","null","","","","","","",""
"373.0050000012852","","image-keyboard-response","292","509246","0.0-6.0-0.24","","img/pink.png","32","trial","32","true","1,0","3:go_c","",""
"null","","html-keyboard-response","293","510251","0.0-6.0-1.24","","<img src=""img/pink-r.png"" border=""10"">","null","trial","32","","1,0","3:go_c","1",""
"null","","html-keyboard-response","294","511254","0.0-6.0-2.24","","<div style=""font-size:60px;"">+</div>","null","","","","","","",""
"877.4799999664538","","image-keyboard-response","295","512132","0.0-6.0-0.25","","img/red.png","32","trial","32","true","0.8,0.2","1:go_a","",""
"null","","html-keyboard-response","296","513137","0.0-6.0-1.25","","<img src=""img/red-r.png"" border=""10"">","null","trial","32","","0.8,0.2","1:go_a","1",""
"null","","html-keyboard-response","297","514142","0.0-6.0-2.25","","<div style=""font-size:60px;"">+</div>","null","","","","","","",""
"null","","image-keyboard-response","298","515647","0.0-6.0-0.26","","img/grey.png","null","trial","null","true","0,1","4:nogo_d","",""
"null","","html-keyboard-response","299","516651","0.0-6.0-1.26","","<img src=""img/grey-r.png"">","null","trial","null","","0,1","4:nogo_d","1",""
"null","","html-keyboard-response","300","517656","0.0-6.0-2.26","","<div style=""font-size:60px;"">+</div>","null","","","","","","",""
"null","","image-keyboard-response","301","519160","0.0-6.0-0.27","","img/blue.png","null","trial","null","true","0.2,0.8","2:nogo_b","",""
"null","","html-keyboard-response","302","520164","0.0-6.0-1.27","","<img src=""img/blue-r.png"">","null","trial","null","","0.2,0.8","2:nogo_b","1",""
"null","","html-keyboard-response","303","521169","0.0-6.0-2.27","","<div style=""font-size:60px;"">+</div>","null","","","","","","",""
"314.829999988433","","image-keyboard-response","304","521484","0.0-6.0-0.28","","img/pink.png","32","trial","32","true","1,0","3:go_c","",""
"null","","html-keyboard-response","305","522489","0.0-6.0-1.28","","<img src=""img/pink-r.png"" border=""10"">","null","trial","32","","1,0","3:go_c","1",""
"null","","html-keyboard-response","306","523493","0.0-6.0-2.28","","<div style=""font-size:60px;"">+</div>","null","","","","","","",""
"null","","image-keyboard-response","307","524998","0.0-6.0-0.29","","img/grey.png","null","trial","null","true","0,1","4:nogo_d","",""
"null","","html-keyboard-response","308","526003","0.0-6.0-1.29","","<img src=""img/grey-r.png"">","null","trial","null","","0,1","4:nogo_d","1",""
"null","","html-keyboard-response","309","527007","0.0-6.0-2.29","","<div style=""font-size:60px;"">+</div>","null","","","","","","",""
"414.5600000047125","","image-keyboard-response","310","527422","0.0-6.0-0.30","","img/red.png","32","trial","32","true","0.8,0.2","1:go_a","",""
"null","","html-keyboard-response","311","528426","0.0-6.0-1.30","","<img src=""img/red-r.png"" border=""10"">","null","trial","32","","0.8,0.2","1:go_a","1",""
"null","","html-keyboard-response","312","529427","0.0-6.0-2.30","","<div style=""font-size:60px;"">+</div>","null","","","","","","",""
"null","","image-keyboard-response","313","530931","0.0-6.0-0.31","","img/blue.png","null","trial","null","true","0.2,0.8","2:nogo_b","",""
"null","","html-keyboard-response","314","531935","0.0-6.0-1.31","","<img src=""img/blue-r.png"">","null","trial","null","","0.2,0.8","2:nogo_b","1",""
"null","","html-keyboard-response","315","532939","0.0-6.0-2.31","","<div style=""font-size:60px;"">+</div>","null","","","","","","",""
"351.51999996742234","","image-keyboard-response","316","533291","0.0-6.0-0.32","","img/pink.png","32","trial","32","true","1,0","3:go_c","",""
"null","","html-keyboard-response","317","534296","0.0-6.0-1.32","","<img src=""img/pink-r.png"" border=""10"">","null","trial","32","","1,0","3:go_c","1",""
"null","","html-keyboard-response","318","535300","0.0-6.0-2.32","","<div style=""font-size:60px;"">+</div>","null","","","","","","",""
"null","","image-keyboard-response","319","536805","0.0-6.0-0.33","","img/blue.png","null","trial","null","true","0.2,0.8","2:nogo_b","",""
"null","","html-keyboard-response","320","537809","0.0-6.0-1.33","","<img src=""img/blue-r.png"">","null","trial","null","","0.2,0.8","2:nogo_b","1",""
"null","","html-keyboard-response","321","538814","0.0-6.0-2.33","","<div style=""font-size:60px;"">+</div>","null","","","","","","",""
"null","","image-keyboard-response","322","540315","0.0-6.0-0.34","","img/grey.png","null","trial","null","true","0,1","4:nogo_d","",""
"null","","html-keyboard-response","323","541317","0.0-6.0-1.34","","<img src=""img/grey-r.png"">","null","trial","null","","0,1","4:nogo_d","1",""
"null","","html-keyboard-response","324","542318","0.0-6.0-2.34","","<div style=""font-size:60px;"">+</div>","null","","","","","","",""
"369.9449999839999","","image-keyboard-response","325","542689","0.0-6.0-0.35","","img/red.png","32","trial","32","true","0.8,0.2","1:go_a","",""
"null","","html-keyboard-response","326","543694","0.0-6.0-1.35","","<img src=""img/red-n.png"" border=""10"">","null","trial","32","","0.8,0.2","1:go_a","0",""
"null","","html-keyboard-response","327","544699","0.0-6.0-2.35","","<div style=""font-size:60px;"">+</div>","null","","","","","","",""
"470.1399999903515","","image-keyboard-response","328","545170","0.0-6.0-0.36","","img/pink.png","32","trial","32","true","1,0","3:go_c","",""
"null","","html-keyboard-response","329","546175","0.0-6.0-1.36","","<img src=""img/pink-r.png"" border=""10"">","null","trial","32","","1,0","3:go_c","1",""
"null","","html-keyboard-response","330","547178","0.0-6.0-2.36","","<div style=""font-size:60px;"">+</div>","null","","","","","","",""
"null","","image-keyboard-response","331","548684","0.0-6.0-0.37","","img/grey.png","null","trial","null","true","0,1","4:nogo_d","",""
"null","","html-keyboard-response","332","549688","0.0-6.0-1.37","","<img src=""img/grey-r.png"">","null","trial","null","","0,1","4:nogo_d","1",""
"null","","html-keyboard-response","333","550693","0.0-6.0-2.37","","<div style=""font-size:60px;"">+</div>","null","","","","","","",""
"null","","image-keyboard-response","334","552198","0.0-6.0-0.38","","img/blue.png","null","trial","null","true","0.2,0.8","2:nogo_b","",""
"null","","html-keyboard-response","335","553203","0.0-6.0-1.38","","<img src=""img/blue-r.png"">","null","trial","null","","0.2,0.8","2:nogo_b","1",""
"null","","html-keyboard-response","336","554207","0.0-6.0-2.38","","<div style=""font-size:60px;"">+</div>","null","","","","","","",""
"574.2499999469146","","image-keyboard-response","337","554781","0.0-6.0-0.39","","img/red.png","32","trial","32","true","0.8,0.2","1:go_a","",""
"null","","html-keyboard-response","338","555786","0.0-6.0-1.39","","<img src=""img/red-r.png"" border=""10"">","null","trial","32","","0.8,0.2","1:go_a","1",""
"null","","html-keyboard-response","339","556791","0.0-6.0-2.39","","<div style=""font-size:60px;"">+</div>","null","","","","","","",""
"519.1050000139512","","image-keyboard-response","340","557310","0.0-6.0-0.40","","img/pink.png","32","trial","32","true","1,0","3:go_c","",""
"null","","html-keyboard-response","341","558311","0.0-6.0-1.40","","<img src=""img/pink-r.png"" border=""10"">","null","trial","32","","1,0","3:go_c","1",""
"null","","html-keyboard-response","342","559312","0.0-6.0-2.40","","<div style=""font-size:60px;"">+</div>","null","","","","","","",""
"null","","image-keyboard-response","343","560815","0.0-6.0-0.41","","img/grey.png","null","trial","null","true","0,1","4:nogo_d","",""
"null","","html-keyboard-response","344","561819","0.0-6.0-1.41","","<img src=""img/grey-r.png"">","null","trial","null","","0,1","4:nogo_d","1",""
"null","","html-keyboard-response","345","562822","0.0-6.0-2.41","","<div style=""font-size:60px;"">+</div>","null","","","","","","",""
"450.3050000057556","","image-keyboard-response","346","563273","0.0-6.0-0.42","","img/red.png","32","trial","32","true","0.8,0.2","1:go_a","",""
"null","","html-keyboard-response","347","564279","0.0-6.0-1.42","","<img src=""img/red-r.png"" border=""10"">","null","trial","32","","0.8,0.2","1:go_a","1",""
"null","","html-keyboard-response","348","565283","0.0-6.0-2.42","","<div style=""font-size:60px;"">+</div>","null","","","","","","",""
"null","","image-keyboard-response","349","566788","0.0-6.0-0.43","","img/blue.png","null","trial","null","true","0.2,0.8","2:nogo_b","",""
"null","","html-keyboard-response","350","567791","0.0-6.0-1.43","","<img src=""img/blue-r.png"">","null","trial","null","","0.2,0.8","2:nogo_b","1",""
"null","","html-keyboard-response","351","568795","0.0-6.0-2.43","","<div style=""font-size:60px;"">+</div>","null","","","","","","",""
"463.930000027176","","image-keyboard-response","352","569260","0.0-6.0-0.44","","img/red.png","32","trial","32","true","0.8,0.2","1:go_a","",""
"null","","html-keyboard-response","353","570266","0.0-6.0-1.44","","<img src=""img/red-r.png"" border=""10"">","null","trial","32","","0.8,0.2","1:go_a","1",""
"null","","html-keyboard-response","354","571271","0.0-6.0-2.44","","<div style=""font-size:60px;"">+</div>","null","","","","","","",""
"445.4699999769218","","image-keyboard-response","355","571717","0.0-6.0-0.45","","img/pink.png","32","trial","32","true","1,0","3:go_c","",""
"null","","html-keyboard-response","356","572722","0.0-6.0-1.45","","<img src=""img/pink-r.png"" border=""10"">","null","trial","32","","1,0","3:go_c","1",""
"null","","html-keyboard-response","357","573724","0.0-6.0-2.45","","<div style=""font-size:60px;"">+</div>","null","","","","","","",""
"null","","image-keyboard-response","358","575228","0.0-6.0-0.46","","img/grey.png","null","trial","null","true","0,1","4:nogo_d","",""
"null","","html-keyboard-response","359","576233","0.0-6.0-1.46","","<img src=""img/grey-r.png"">","null","trial","null","","0,1","4:nogo_d","1",""
"null","","html-keyboard-response","360","577238","0.0-6.0-2.46","","<div style=""font-size:60px;"">+</div>","null","","","","","","",""
"null","","image-keyboard-response","361","578742","0.0-6.0-0.47","","img/blue.png","null","trial","null","true","0.2,0.8","2:nogo_b","",""
"null","","html-keyboard-response","362","579748","0.0-6.0-1.47","","<img src=""img/blue-r.png"">","null","trial","null","","0.2,0.8","2:nogo_b","1",""
"null","","html-keyboard-response","363","580752","0.0-6.0-2.47","","<div style=""font-size:60px;"">+</div>","null","","","","","","",""
"null","","image-keyboard-response","364","582257","0.0-6.0-0.48","","img/blue.png","null","trial","null","true","0.2,0.8","2:nogo_b","",""
"null","","html-keyboard-response","365","583261","0.0-6.0-1.48","","<img src=""img/blue-r.png"">","null","trial","null","","0.2,0.8","2:nogo_b","1",""
"null","","html-keyboard-response","366","584266","0.0-6.0-2.48","","<div style=""font-size:60px;"">+</div>","null","","","","","","",""
"474.6650000452064","","image-keyboard-response","367","584741","0.0-6.0-0.49","","img/red.png","32","trial","32","true","0.8,0.2","1:go_a","",""
"null","","html-keyboard-response","368","585745","0.0-6.0-1.49","","<img src=""img/red-r.png"" border=""10"">","null","trial","32","","0.8,0.2","1:go_a","1",""
"null","","html-keyboard-response","369","586749","0.0-6.0-2.49","","<div style=""font-size:60px;"">+</div>","null","","","","","","",""
"541.5849999990314","","image-keyboard-response","370","587292","0.0-6.0-0.50","","img/pink.png","32","trial","32","true","1,0","3:go_c","",""
"null","","html-keyboard-response","371","588296","0.0-6.0-1.50","","<img src=""img/pink-r.png"" border=""10"">","null","trial","32","","1,0","3:go_c","1",""
"null","","html-keyboard-response","372","589298","0.0-6.0-2.50","","<div style=""font-size:60px;"">+</div>","null","","","","","","",""
"null","","image-keyboard-response","373","590801","0.0-6.0-0.51","","img/grey.png","null","trial","null","true","0,1","4:nogo_d","",""
"null","","html-keyboard-response","374","591805","0.0-6.0-1.51","","<img src=""img/grey-r.png"">","null","trial","null","","0,1","4:nogo_d","1",""
"null","","html-keyboard-response","375","592810","0.0-6.0-2.51","","<div style=""font-size:60px;"">+</div>","null","","","","","","",""
"398.250000027474","","image-keyboard-response","376","593209","0.0-6.0-0.52","","img/red.png","32","trial","32","true","0.8,0.2","1:go_a","",""
"null","","html-keyboard-response","377","594213","0.0-6.0-1.52","","<img src=""img/red-r.png"" border=""10"">","null","trial","32","","0.8,0.2","1:go_a","1",""
"null","","html-keyboard-response","378","595218","0.0-6.0-2.52","","<div style=""font-size:60px;"">+</div>","null","","","","","","",""
"494.69500000122935","","image-keyboard-response","379","595713","0.0-6.0-0.53","","img/pink.png","32","trial","32","true","1,0","3:go_c","",""
"null","","html-keyboard-response","380","596718","0.0-6.0-1.53","","<img src=""img/pink-r.png"" border=""10"">","null","trial","32","","1,0","3:go_c","1",""
"null","","html-keyboard-response","381","597721","0.0-6.0-2.53","","<div style=""font-size:60px;"">+</div>","null","","","","","","",""
"null","","image-keyboard-response","382","599225","0.0-6.0-0.54","","img/blue.png","null","trial","null","true","0.2,0.8","2:nogo_b","",""
"null","","html-keyboard-response","383","600229","0.0-6.0-1.54","","<img src=""img/blue-r.png"">","null","trial","null","","0.2,0.8","2:nogo_b","1",""
"null","","html-keyboard-response","384","601233","0.0-6.0-2.54","","<div style=""font-size:60px;"">+</div>","null","","","","","","",""
"null","","image-keyboard-response","385","602737","0.0-6.0-0.55","","img/grey.png","null","trial","null","true","0,1","4:nogo_d","",""
"null","","html-keyboard-response","386","603741","0.0-6.0-1.55","","<img src=""img/grey-r.png"">","null","trial","null","","0,1","4:nogo_d","1",""
"null","","html-keyboard-response","387","604745","0.0-6.0-2.55","","<div style=""font-size:60px;"">+</div>","null","","","","","","",""
"null","","image-keyboard-response","388","606249","0.0-6.0-0.56","","img/grey.png","null","trial","null","true","0,1","4:nogo_d","",""
"null","","html-keyboard-response","389","607255","0.0-6.0-1.56","","<img src=""img/grey-r.png"">","null","trial","null","","0,1","4:nogo_d","1",""
"null","","html-keyboard-response","390","608257","0.0-6.0-2.56","","<div style=""font-size:60px;"">+</div>","null","","","","","","",""
"null","","image-keyboard-response","391","609763","0.0-6.0-0.57","","img/blue.png","null","trial","null","true","0.2,0.8","2:nogo_b","",""
"null","","html-keyboard-response","392","610768","0.0-6.0-1.57","","<img src=""img/blue-r.png"">","null","trial","null","","0.2,0.8","2:nogo_b","1",""
"null","","html-keyboard-response","393","611773","0.0-6.0-2.57","","<div style=""font-size:60px;"">+</div>","null","","","","","","",""
"384.9950000294484","","image-keyboard-response","394","612158","0.0-6.0-0.58","","img/red.png","32","trial","32","true","0.8,0.2","1:go_a","",""
"null","","html-keyboard-response","395","613162","0.0-6.0-1.58","","<img src=""img/red-r.png"" border=""10"">","null","trial","32","","0.8,0.2","1:go_a","1",""
"null","","html-keyboard-response","396","614166","0.0-6.0-2.58","","<div style=""font-size:60px;"">+</div>","null","","","","","","",""
"820.0100000249222","","image-keyboard-response","397","614986","0.0-6.0-0.59","","img/pink.png","32","trial","32","true","1,0","3:go_c","",""
"null","","html-keyboard-response","398","615988","0.0-6.0-1.59","","<img src=""img/pink-r.png"" border=""10"">","null","trial","32","","1,0","3:go_c","1",""
"null","","html-keyboard-response","399","616993","0.0-6.0-2.59","","<div style=""font-size:60px;"">+</div>","null","","","","","","",""
"null","","image-keyboard-response","400","618496","0.0-6.0-0.60","","img/grey.png","null","trial","null","true","0,1","4:nogo_d","",""
"null","","html-keyboard-response","401","619501","0.0-6.0-1.60","","<img src=""img/grey-r.png"">","null","trial","null","","0,1","4:nogo_d","1",""
"null","","html-keyboard-response","402","620505","0.0-6.0-2.60","","<div style=""font-size:60px;"">+</div>","null","","","","","","",""
"396.63000003201887","","image-keyboard-response","403","620903","0.0-6.0-0.61","","img/pink.png","32","trial","32","true","1,0","3:go_c","",""
"null","","html-keyboard-response","404","621907","0.0-6.0-1.61","","<img src=""img/pink-r.png"" border=""10"">","null","trial","32","","1,0","3:go_c","1",""
"null","","html-keyboard-response","405","622912","0.0-6.0-2.61","","<div style=""font-size:60px;"">+</div>","null","","","","","","",""
"null","","image-keyboard-response","406","624417","0.0-6.0-0.62","","img/blue.png","null","trial","null","true","0.2,0.8","2:nogo_b","",""
"null","","html-keyboard-response","407","625422","0.0-6.0-1.62","","<img src=""img/blue-r.png"">","null","trial","null","","0.2,0.8","2:nogo_b","1",""
"null","","html-keyboard-response","408","626427","0.0-6.0-2.62","","<div style=""font-size:60px;"">+</div>","null","","","","","","",""
"366.79000000003725","","image-keyboard-response","409","626794","0.0-6.0-0.63","","img/red.png","32","trial","32","true","0.8,0.2","1:go_a","",""
"null","","html-keyboard-response","410","627800","0.0-6.0-1.63","","<img src=""img/red-r.png"" border=""10"">","null","trial","32","","0.8,0.2","1:go_a","1",""
"null","","html-keyboard-response","411","628804","0.0-6.0-2.63","","<div style=""font-size:60px;"">+</div>","null","","","","","","",""
"null","","image-keyboard-response","412","630308","0.0-6.0-0.64","","img/grey.png","null","trial","null","true","0,1","4:nogo_d","",""
"null","","html-keyboard-response","413","631309","0.0-6.0-1.64","","<img src=""img/grey-r.png"">","null","trial","null","","0,1","4:nogo_d","1",""
"null","","html-keyboard-response","414","632310","0.0-6.0-2.64","","<div style=""font-size:60px;"">+</div>","null","","","","","","",""
"null","","image-keyboard-response","415","633814","0.0-6.0-0.65","","img/blue.png","null","trial","null","true","0.2,0.8","2:nogo_b","",""
"null","","html-keyboard-response","416","634818","0.0-6.0-1.65","","<img src=""img/blue-r.png"">","null","trial","null","","0.2,0.8","2:nogo_b","1",""
"null","","html-keyboard-response","417","635823","0.0-6.0-2.65","","<div style=""font-size:60px;"">+</div>","null","","","","","","",""
"297.1150000230409","","image-keyboard-response","418","636120","0.0-6.0-0.66","","img/red.png","32","trial","32","true","0.8,0.2","1:go_a","",""
"null","","html-keyboard-response","419","637126","0.0-6.0-1.66","","<img src=""img/red-n.png"" border=""10"">","null","trial","32","","0.8,0.2","1:go_a","0",""
"null","","html-keyboard-response","420","638130","0.0-6.0-2.66","","<div style=""font-size:60px;"">+</div>","null","","","","","","",""
"495.36000000080094","","image-keyboard-response","421","638626","0.0-6.0-0.67","","img/pink.png","32","trial","32","true","1,0","3:go_c","",""
"null","","html-keyboard-response","422","639632","0.0-6.0-1.67","","<img src=""img/pink-r.png"" border=""10"">","null","trial","32","","1,0","3:go_c","1",""
"null","","html-keyboard-response","423","640635","0.0-6.0-2.67","","<div style=""font-size:60px;"">+</div>","null","","","","","","",""
"374.49000001652166","","image-keyboard-response","424","641010","0.0-6.0-0.68","","img/red.png","32","trial","32","true","0.8,0.2","1:go_a","",""
"null","","html-keyboard-response","425","642016","0.0-6.0-1.68","","<img src=""img/red-r.png"" border=""10"">","null","trial","32","","0.8,0.2","1:go_a","1",""
"null","","html-keyboard-response","426","643020","0.0-6.0-2.68","","<div style=""font-size:60px;"">+</div>","null","","","","","","",""
"null","","image-keyboard-response","427","644523","0.0-6.0-0.69","","img/grey.png","null","trial","null","true","0,1","4:nogo_d","",""
"null","","html-keyboard-response","428","645527","0.0-6.0-1.69","","<img src=""img/grey-r.png"">","null","trial","null","","0,1","4:nogo_d","1",""
"null","","html-keyboard-response","429","646532","0.0-6.0-2.69","","<div style=""font-size:60px;"">+</div>","null","","","","","","",""
"417.7250000066124","","image-keyboard-response","430","646950","0.0-6.0-0.70","","img/pink.png","32","trial","32","true","1,0","3:go_c","",""
"null","","html-keyboard-response","431","647956","0.0-6.0-1.70","","<img src=""img/pink-r.png"" border=""10"">","null","trial","32","","1,0","3:go_c","1",""
"null","","html-keyboard-response","432","648960","0.0-6.0-2.70","","<div style=""font-size:60px;"">+</div>","null","","","","","","",""
"null","","image-keyboard-response","433","650464","0.0-6.0-0.71","","img/blue.png","null","trial","null","true","0.2,0.8","2:nogo_b","",""
"null","","html-keyboard-response","434","651467","0.0-6.0-1.71","","<img src=""img/blue-n.png"">","null","trial","null","","0.2,0.8","2:nogo_b","0",""
"null","","html-keyboard-response","435","652472","0.0-6.0-2.71","","<div style=""font-size:60px;"">+</div>","null","","","","","","",""
"null","","image-keyboard-response","436","653977","0.0-6.0-0.72","","img/blue.png","null","trial","null","true","0.2,0.8","2:nogo_b","",""
"null","","html-keyboard-response","437","654982","0.0-6.0-1.72","","<img src=""img/blue-r.png"">","null","trial","null","","0.2,0.8","2:nogo_b","1",""
"null","","html-keyboard-response","438","655987","0.0-6.0-2.72","","<div style=""font-size:60px;"">+</div>","null","","","","","","",""
"null","","image-keyboard-response","439","657491","0.0-6.0-0.73","","img/grey.png","null","trial","null","true","0,1","4:nogo_d","",""
"null","","html-keyboard-response","440","658495","0.0-6.0-1.73","","<img src=""img/grey-r.png"">","null","trial","null","","0,1","4:nogo_d","1",""
"null","","html-keyboard-response","441","659500","0.0-6.0-2.73","","<div style=""font-size:60px;"">+</div>","null","","","","","","",""
"377.924999978859","","image-keyboard-response","442","659878","0.0-6.0-0.74","","img/red.png","32","trial","32","true","0.8,0.2","1:go_a","",""
"null","","html-keyboard-response","443","660883","0.0-6.0-1.74","","<img src=""img/red-r.png"" border=""10"">","null","trial","32","","0.8,0.2","1:go_a","1",""
"null","","html-keyboard-response","444","661887","0.0-6.0-2.74","","<div style=""font-size:60px;"">+</div>","null","","","","","","",""
"590.0450000190176","","image-keyboard-response","445","662477","0.0-6.0-0.75","","img/pink.png","32","trial","32","true","1,0","3:go_c","",""
"null","","html-keyboard-response","446","663482","0.0-6.0-1.75","","<img src=""img/pink-r.png"" border=""10"">","null","trial","32","","1,0","3:go_c","1",""
"null","","html-keyboard-response","447","664486","0.0-6.0-2.75","","<div style=""font-size:60px;"">+</div>","null","","","","","","",""
"542.6699999952689","","image-keyboard-response","448","665030","0.0-6.0-0.76","","img/pink.png","32","trial","32","true","1,0","3:go_c","",""
"null","","html-keyboard-response","449","666033","0.0-6.0-1.76","","<img src=""img/pink-r.png"" border=""10"">","null","trial","32","","1,0","3:go_c","1",""
"null","","html-keyboard-response","450","667036","0.0-6.0-2.76","","<div style=""font-size:60px;"">+</div>","null","","","","","","",""
"1260.4099999880418","","image-keyboard-response","451","668297","0.0-6.0-0.77","","img/red.png","32","trial","32","true","0.8,0.2","1:go_a","",""
"null","","html-keyboard-response","452","669300","0.0-6.0-1.77","","<img src=""img/red-r.png"" border=""10"">","null","trial","32","","0.8,0.2","1:go_a","1",""
"null","","html-keyboard-response","453","670304","0.0-6.0-2.77","","<div style=""font-size:60px;"">+</div>","null","","","","","","",""
"null","","image-keyboard-response","454","671807","0.0-6.0-0.78","","img/blue.png","null","trial","null","true","0.2,0.8","2:nogo_b","",""
"null","","html-keyboard-response","455","672812","0.0-6.0-1.78","","<img src=""img/blue-r.png"">","null","trial","null","","0.2,0.8","2:nogo_b","1",""
"null","","html-keyboard-response","456","673816","0.0-6.0-2.78","","<div style=""font-size:60px;"">+</div>","null","","","","","","",""
"null","","image-keyboard-response","457","675318","0.0-6.0-0.79","","img/grey.png","null","trial","null","true","0,1","4:nogo_d","",""
"null","","html-keyboard-response","458","676319","0.0-6.0-1.79","","<img src=""img/grey-r.png"">","null","trial","null","","0,1","4:nogo_d","1",""
"null","","html-keyboard-response","459","677322","0.0-6.0-2.79","","<div style=""font-size:60px;"">+</div>","null","","","","","","",""
"null","","image-keyboard-response","460","678827","0.0-6.0-0.80","","img/blue.png","null","trial","null","true","0.2,0.8","2:nogo_b","",""
"null","","html-keyboard-response","461","679832","0.0-6.0-1.80","","<img src=""img/blue-r.png"">","null","trial","null","","0.2,0.8","2:nogo_b","1",""
"null","","html-keyboard-response","462","680834","0.0-6.0-2.80","","<div style=""font-size:60px;"">+</div>","null","","","","","","",""
"369.8549999971874","","image-keyboard-response","463","681204","0.0-6.0-0.81","","img/red.png","32","trial","32","true","0.8,0.2","1:go_a","",""
"null","","html-keyboard-response","464","682210","0.0-6.0-1.81","","<img src=""img/red-n.png"" border=""10"">","null","trial","32","","0.8,0.2","1:go_a","0",""
"null","","html-keyboard-response","465","683214","0.0-6.0-2.81","","<div style=""font-size:60px;"">+</div>","null","","","","","","",""
"658.3049999899231","","image-keyboard-response","466","683873","0.0-6.0-0.82","","img/pink.png","32","trial","32","true","1,0","3:go_c","",""
"null","","html-keyboard-response","467","684879","0.0-6.0-1.82","","<img src=""img/pink-r.png"" border=""10"">","null","trial","32","","1,0","3:go_c","1",""
"null","","html-keyboard-response","468","685882","0.0-6.0-2.82","","<div style=""font-size:60px;"">+</div>","null","","","","","","",""
"null","","image-keyboard-response","469","687388","0.0-6.0-0.83","","img/grey.png","null","trial","null","true","0,1","4:nogo_d","",""
"null","","html-keyboard-response","470","688392","0.0-6.0-1.83","","<img src=""img/grey-r.png"">","null","trial","null","","0,1","4:nogo_d","1",""
"null","","html-keyboard-response","471","689396","0.0-6.0-2.83","","<div style=""font-size:60px;"">+</div>","null","","","","","","",""
"416.22000001370907","","image-keyboard-response","472","689813","0.0-6.0-0.84","","img/red.png","32","trial","32","true","0.8,0.2","1:go_a","",""
"null","","html-keyboard-response","473","690817","0.0-6.0-1.84","","<img src=""img/red-n.png"" border=""10"">","null","trial","32","","0.8,0.2","1:go_a","0",""
"null","","html-keyboard-response","474","691820","0.0-6.0-2.84","","<div style=""font-size:60px;"">+</div>","null","","","","","","",""
"null","","image-keyboard-response","475","693324","0.0-6.0-0.85","","img/blue.png","null","trial","null","true","0.2,0.8","2:nogo_b","",""
"null","","html-keyboard-response","476","694328","0.0-6.0-1.85","","<img src=""img/blue-r.png"">","null","trial","null","","0.2,0.8","2:nogo_b","1",""
"null","","html-keyboard-response","477","695333","0.0-6.0-2.85","","<div style=""font-size:60px;"">+</div>","null","","","","","","",""
"null","","image-keyboard-response","478","696834","0.0-6.0-0.86","","img/grey.png","null","trial","null","true","0,1","4:nogo_d","",""
"null","","html-keyboard-response","479","697838","0.0-6.0-1.86","","<img src=""img/grey-r.png"">","null","trial","null","","0,1","4:nogo_d","1",""
"null","","html-keyboard-response","480","698842","0.0-6.0-2.86","","<div style=""font-size:60px;"">+</div>","null","","","","","","",""
"345.03999998560175","","image-keyboard-response","481","699188","0.0-6.0-0.87","","img/pink.png","32","trial","32","true","1,0","3:go_c","",""
"null","","html-keyboard-response","482","700192","0.0-6.0-1.87","","<img src=""img/pink-r.png"" border=""10"">","null","trial","32","","1,0","3:go_c","1",""
"null","","html-keyboard-response","483","701197","0.0-6.0-2.87","","<div style=""font-size:60px;"">+</div>","null","","","","","","",""
"661.7449999903329","","image-keyboard-response","484","701859","0.0-6.0-0.88","","img/red.png","32","trial","32","true","0.8,0.2","1:go_a","",""
"null","","html-keyboard-response","485","702864","0.0-6.0-1.88","","<img src=""img/red-r.png"" border=""10"">","null","trial","32","","0.8,0.2","1:go_a","1",""
"null","","html-keyboard-response","486","703867","0.0-6.0-2.88","","<div style=""font-size:60px;"">+</div>","null","","","","","","",""
"null","","image-keyboard-response","487","705371","0.0-6.0-0.89","","img/blue.png","null","trial","null","true","0.2,0.8","2:nogo_b","",""
"null","","html-keyboard-response","488","706375","0.0-6.0-1.89","","<img src=""img/blue-r.png"">","null","trial","null","","0.2,0.8","2:nogo_b","1",""
"null","","html-keyboard-response","489","707379","0.0-6.0-2.89","","<div style=""font-size:60px;"">+</div>","null","","","","","","",""
"null","","image-keyboard-response","490","708883","0.0-6.0-0.90","","img/grey.png","null","trial","null","true","0,1","4:nogo_d","",""
"null","","html-keyboard-response","491","709887","0.0-6.0-1.90","","<img src=""img/grey-r.png"">","null","trial","null","","0,1","4:nogo_d","1",""
"null","","html-keyboard-response","492","710892","0.0-6.0-2.90","","<div style=""font-size:60px;"">+</div>","null","","","","","","",""
"365.4699999606237","","image-keyboard-response","493","711257","0.0-6.0-0.91","","img/pink.png","32","trial","32","true","1,0","3:go_c","",""
"null","","html-keyboard-response","494","712261","0.0-6.0-1.91","","<img src=""img/pink-r.png"" border=""10"">","null","trial","32","","1,0","3:go_c","1",""
"null","","html-keyboard-response","495","713266","0.0-6.0-2.91","","<div style=""font-size:60px;"">+</div>","null","","","","","","",""
"757.0050000213087","","image-keyboard-response","496","714024","0.0-6.0-0.92","","img/red.png","32","trial","32","true","0.8,0.2","1:go_a","",""
"null","","html-keyboard-response","497","715028","0.0-6.0-1.92","","<img src=""img/red-r.png"" border=""10"">","null","trial","32","","0.8,0.2","1:go_a","1",""
"null","","html-keyboard-response","498","716033","0.0-6.0-2.92","","<div style=""font-size:60px;"">+</div>","null","","","","","","",""
"null","","image-keyboard-response","499","717538","0.0-6.0-0.93","","img/blue.png","null","trial","null","true","0.2,0.8","2:nogo_b","",""
"null","","html-keyboard-response","500","718543","0.0-6.0-1.93","","<img src=""img/blue-r.png"">","null","trial","null","","0.2,0.8","2:nogo_b","1",""
"null","","html-keyboard-response","501","719548","0.0-6.0-2.93","","<div style=""font-size:60px;"">+</div>","null","","","","","","",""
"null","","image-keyboard-response","502","721052","0.0-6.0-0.94","","img/grey.png","null","trial","null","true","0,1","4:nogo_d","",""
"null","","html-keyboard-response","503","722057","0.0-6.0-1.94","","<img src=""img/grey-r.png"">","null","trial","null","","0,1","4:nogo_d","1",""
"null","","html-keyboard-response","504","723062","0.0-6.0-2.94","","<div style=""font-size:60px;"">+</div>","null","","","","","","",""
"384.6849999972619","","image-keyboard-response","505","723447","0.0-6.0-0.95","","img/pink.png","32","trial","32","true","1,0","3:go_c","",""
"null","","html-keyboard-response","506","724448","0.0-6.0-1.95","","<img src=""img/pink-r.png"" border=""10"">","null","trial","32","","1,0","3:go_c","1",""
"null","","html-keyboard-response","507","725450","0.0-6.0-2.95","","<div style=""font-size:60px;"">+</div>","null","","","","","","",""
"501.14000000758097","","image-keyboard-response","508","725952","0.0-6.0-0.96","","img/pink.png","32","trial","32","true","1,0","3:go_c","",""
"null","","html-keyboard-response","509","726955","0.0-6.0-1.96","","<img src=""img/pink-r.png"" border=""10"">","null","trial","32","","1,0","3:go_c","1",""
"null","","html-keyboard-response","510","727959","0.0-6.0-2.96","","<div style=""font-size:60px;"">+</div>","null","","","","","","",""
"639.7949999663979","","image-keyboard-response","511","728599","0.0-6.0-0.97","","img/red.png","32","trial","32","true","0.8,0.2","1:go_a","",""
"null","","html-keyboard-response","512","729605","0.0-6.0-1.97","","<img src=""img/red-r.png"" border=""10"">","null","trial","32","","0.8,0.2","1:go_a","1",""
"null","","html-keyboard-response","513","730609","0.0-6.0-2.97","","<div style=""font-size:60px;"">+</div>","null","","","","","","",""
"null","","image-keyboard-response","514","732114","0.0-6.0-0.98","","img/grey.png","null","trial","null","true","0,1","4:nogo_d","",""
"null","","html-keyboard-response","515","733118","0.0-6.0-1.98","","<img src=""img/grey-r.png"">","null","trial","null","","0,1","4:nogo_d","1",""
"null","","html-keyboard-response","516","734122","0.0-6.0-2.98","","<div style=""font-size:60px;"">+</div>","null","","","","","","",""
"null","","image-keyboard-response","517","735627","0.0-6.0-0.99","","img/blue.png","null","trial","null","true","0.2,0.8","2:nogo_b","",""
"null","","html-keyboard-response","518","736632","0.0-6.0-1.99","","<img src=""img/blue-r.png"">","null","trial","null","","0.2,0.8","2:nogo_b","1",""
"null","","html-keyboard-response","519","737636","0.0-6.0-2.99","","<div style=""font-size:60px;"">+</div>","null","","","","","","",""
"null","","image-keyboard-response","520","739141","0.0-6.0-0.100","","img/blue.png","null","trial","null","true","0.2,0.8","2:nogo_b","",""
"null","","html-keyboard-response","521","740146","0.0-6.0-1.100","","<img src=""img/blue-r.png"">","null","trial","null","","0.2,0.8","2:nogo_b","1",""
"null","","html-keyboard-response","522","741150","0.0-6.0-2.100","","<div style=""font-size:60px;"">+</div>","null","","","","","","",""
"380.44999999692664","","image-keyboard-response","523","741531","0.0-6.0-0.101","","img/pink.png","32","trial","32","true","1,0","3:go_c","",""
"null","","html-keyboard-response","524","742534","0.0-6.0-1.101","","<img src=""img/pink-r.png"" border=""10"">","null","trial","32","","1,0","3:go_c","1",""
"null","","html-keyboard-response","525","743537","0.0-6.0-2.101","","<div style=""font-size:60px;"">+</div>","null","","","","","","",""
"null","","image-keyboard-response","526","745042","0.0-6.0-0.102","","img/grey.png","null","trial","null","true","0,1","4:nogo_d","",""
"null","","html-keyboard-response","527","746048","0.0-6.0-1.102","","<img src=""img/grey-r.png"">","null","trial","null","","0,1","4:nogo_d","1",""
"null","","html-keyboard-response","528","747053","0.0-6.0-2.102","","<div style=""font-size:60px;"">+</div>","null","","","","","","",""
"584.2399999964982","","image-keyboard-response","529","747638","0.0-6.0-0.103","","img/red.png","32","trial","32","true","0.8,0.2","1:go_a","",""
"null","","html-keyboard-response","530","748642","0.0-6.0-1.103","","<img src=""img/red-r.png"" border=""10"">","null","trial","32","","0.8,0.2","1:go_a","1",""
"null","","html-keyboard-response","531","749646","0.0-6.0-2.103","","<div style=""font-size:60px;"">+</div>","null","","","","","","",""
"null","","image-keyboard-response","532","751151","0.0-6.0-0.104","","img/grey.png","null","trial","null","true","0,1","4:nogo_d","",""
"null","","html-keyboard-response","533","752156","0.0-6.0-1.104","","<img src=""img/grey-r.png"">","null","trial","null","","0,1","4:nogo_d","1",""
"null","","html-keyboard-response","534","753160","0.0-6.0-2.104","","<div style=""font-size:60px;"">+</div>","null","","","","","","",""
"487.3399999924004","","image-keyboard-response","535","753648","0.0-6.0-0.105","","img/red.png","32","trial","32","true","0.8,0.2","1:go_a","",""
"null","","html-keyboard-response","536","754652","0.0-6.0-1.105","","<img src=""img/red-r.png"" border=""10"">","null","trial","32","","0.8,0.2","1:go_a","1",""
"null","","html-keyboard-response","537","755656","0.0-6.0-2.105","","<div style=""font-size:60px;"">+</div>","null","","","","","","",""
"448.28999997116625","","image-keyboard-response","538","756105","0.0-6.0-0.106","","img/pink.png","32","trial","32","true","1,0","3:go_c","",""
"null","","html-keyboard-response","539","757110","0.0-6.0-1.106","","<img src=""img/pink-r.png"" border=""10"">","null","trial","32","","1,0","3:go_c","1",""
"null","","html-keyboard-response","540","758113","0.0-6.0-2.106","","<div style=""font-size:60px;"">+</div>","null","","","","","","",""
"null","","image-keyboard-response","541","759618","0.0-6.0-0.107","","img/blue.png","null","trial","null","true","0.2,0.8","2:nogo_b","",""
"null","","html-keyboard-response","542","760621","0.0-6.0-1.107","","<img src=""img/blue-r.png"">","null","trial","null","","0.2,0.8","2:nogo_b","1",""
"null","","html-keyboard-response","543","761625","0.0-6.0-2.107","","<div style=""font-size:60px;"">+</div>","null","","","","","","",""
"394.8349999845959","","image-keyboard-response","544","762020","0.0-6.0-0.108","","img/red.png","32","trial","32","true","0.8,0.2","1:go_a","",""
"null","","html-keyboard-response","545","763024","0.0-6.0-1.108","","<img src=""img/red-r.png"" border=""10"">","null","trial","32","","0.8,0.2","1:go_a","1",""
"null","","html-keyboard-response","546","764028","0.0-6.0-2.108","","<div style=""font-size:60px;"">+</div>","null","","","","","","",""
"425.4150000051595","","image-keyboard-response","547","764454","0.0-6.0-0.109","","img/pink.png","32","trial","32","true","1,0","3:go_c","",""
"null","","html-keyboard-response","548","765456","0.0-6.0-1.109","","<img src=""img/pink-r.png"" border=""10"">","null","trial","32","","1,0","3:go_c","1",""
"null","","html-keyboard-response","549","766460","0.0-6.0-2.109","","<div style=""font-size:60px;"">+</div>","null","","","","","","",""
"null","","image-keyboard-response","550","767964","0.0-6.0-0.110","","img/grey.png","null","trial","null","true","0,1","4:nogo_d","",""
"null","","html-keyboard-response","551","768969","0.0-6.0-1.110","","<img src=""img/grey-r.png"">","null","trial","null","","0,1","4:nogo_d","1",""
"null","","html-keyboard-response","552","769972","0.0-6.0-2.110","","<div style=""font-size:60px;"">+</div>","null","","","","","","",""
"null","","image-keyboard-response","553","771476","0.0-6.0-0.111","","img/blue.png","null","trial","null","true","0.2,0.8","2:nogo_b","",""
"null","","html-keyboard-response","554","772480","0.0-6.0-1.111","","<img src=""img/blue-r.png"">","null","trial","null","","0.2,0.8","2:nogo_b","1",""
"null","","html-keyboard-response","555","773484","0.0-6.0-2.111","","<div style=""font-size:60px;"">+</div>","null","","","","","","",""
"368.4650000068359","","image-keyboard-response","556","773853","0.0-6.0-0.112","","img/pink.png","32","trial","32","true","1,0","3:go_c","",""
"null","","html-keyboard-response","557","774855","0.0-6.0-1.112","","<img src=""img/pink-r.png"" border=""10"">","null","trial","32","","1,0","3:go_c","1",""
"null","","html-keyboard-response","558","775859","0.0-6.0-2.112","","<div style=""font-size:60px;"">+</div>","null","","","","","","",""
"null","","image-keyboard-response","559","777364","0.0-6.0-0.113","","img/grey.png","null","trial","null","true","0,1","4:nogo_d","",""
"null","","html-keyboard-response","560","778369","0.0-6.0-1.113","","<img src=""img/grey-r.png"">","null","trial","null","","0,1","4:nogo_d","1",""
"null","","html-keyboard-response","561","779371","0.0-6.0-2.113","","<div style=""font-size:60px;"">+</div>","null","","","","","","",""
"349.7749999514781","","image-keyboard-response","562","779722","0.0-6.0-0.114","","img/red.png","32","trial","32","true","0.8,0.2","1:go_a","",""
"null","","html-keyboard-response","563","780727","0.0-6.0-1.114","","<img src=""img/red-r.png"" border=""10"">","null","trial","32","","0.8,0.2","1:go_a","1",""
"null","","html-keyboard-response","564","781731","0.0-6.0-2.114","","<div style=""font-size:60px;"">+</div>","null","","","","","","",""
"null","","image-keyboard-response","565","783236","0.0-6.0-0.115","","img/blue.png","null","trial","null","true","0.2,0.8","2:nogo_b","",""
"null","","html-keyboard-response","566","784241","0.0-6.0-1.115","","<img src=""img/blue-r.png"">","null","trial","null","","0.2,0.8","2:nogo_b","1",""
"null","","html-keyboard-response","567","785245","0.0-6.0-2.115","","<div style=""font-size:60px;"">+</div>","null","","","","","","",""
"486.6899999906309","","image-keyboard-response","568","785733","0.0-6.0-0.116","","img/pink.png","32","trial","32","true","1,0","3:go_c","",""
"null","","html-keyboard-response","569","786737","0.0-6.0-1.116","","<img src=""img/pink-r.png"" border=""10"">","null","trial","32","","1,0","3:go_c","1",""
"null","","html-keyboard-response","570","787741","0.0-6.0-2.116","","<div style=""font-size:60px;"">+</div>","null","","","","","","",""
"null","","image-keyboard-response","571","789246","0.0-6.0-0.117","","img/grey.png","null","trial","null","true","0,1","4:nogo_d","",""
"null","","html-keyboard-response","572","790251","0.0-6.0-1.117","","<img src=""img/grey-r.png"">","null","trial","null","","0,1","4:nogo_d","1",""
"null","","html-keyboard-response","573","791256","0.0-6.0-2.117","","<div style=""font-size:60px;"">+</div>","null","","","","","","",""
"null","","image-keyboard-response","574","792761","0.0-6.0-0.118","","img/blue.png","null","trial","null","true","0.2,0.8","2:nogo_b","",""
"null","","html-keyboard-response","575","793767","0.0-6.0-1.118","","<img src=""img/blue-n.png"">","null","trial","null","","0.2,0.8","2:nogo_b","0",""
"null","","html-keyboard-response","576","794771","0.0-6.0-2.118","","<div style=""font-size:60px;"">+</div>","null","","","","","","",""
"574.7749999864027","","image-keyboard-response","577","795346","0.0-6.0-0.119","","img/red.png","32","trial","32","true","0.8,0.2","1:go_a","",""
"null","","html-keyboard-response","578","796350","0.0-6.0-1.119","","<img src=""img/red-r.png"" border=""10"">","null","trial","32","","0.8,0.2","1:go_a","1",""
"null","","html-keyboard-response","579","797355","0.0-6.0-2.119","","<div style=""font-size:60px;"">+</div>","null","","","","","","",""
"69392.67500001006","","instructions","580","866746","0.0-7.0","[{""page_index"":0,""viewing_time"":69391.82000001892}]","","","","","","","","",""
"1092.7500000107102","","image-keyboard-response","581","867840","0.0-8.0-0.0","","img/purple.png","32","trial","null","false","0.2,0.8","4:nogo_d","",""
"null","","html-keyboard-response","582","868842","0.0-8.0-1.0","","<img src=""img/purple-r.png"" border=""10"">","null","trial","null","","0.2,0.8","4:nogo_d","1",""
"null","","html-keyboard-response","583","869845","0.0-8.0-2.0","","<div style=""font-size:60px;"">+</div>","null","","","","","","",""
"569.3149999715388","","image-keyboard-response","584","870415","0.0-8.0-0.1","","img/yellow.png","32","trial","32","true","0.8,0.2","3:go_c","",""
"null","","html-keyboard-response","585","871419","0.0-8.0-1.1","","<img src=""img/yellow-r.png"" border=""10"">","null","trial","32","","0.8,0.2","3:go_c","1",""
"null","","html-keyboard-response","586","872422","0.0-8.0-2.1","","<div style=""font-size:60px;"">+</div>","null","","","","","","",""
"401.93999995244667","","image-keyboard-response","587","872825","0.0-8.0-0.2","","img/grey.png","32","trial","null","false","0.2,0.8","2:nogo_b","",""
"null","","html-keyboard-response","588","873828","0.0-8.0-1.2","","<img src=""img/grey-n.png"" border=""10"">","null","trial","null","","0.2,0.8","2:nogo_b","0",""
"null","","html-keyboard-response","589","874833","0.0-8.0-2.2","","<div style=""font-size:60px;"">+</div>","null","","","","","","",""
"567.6450000028126","","image-keyboard-response","590","875401","0.0-8.0-0.3","","img/pink.png","32","trial","32","true","0.8,0.2","1:go_a","",""
"null","","html-keyboard-response","591","876406","0.0-8.0-1.3","","<img src=""img/pink-n.png"" border=""10"">","null","trial","32","","0.8,0.2","1:go_a","0",""
"null","","html-keyboard-response","592","877412","0.0-8.0-2.3","","<div style=""font-size:60px;"">+</div>","null","","","","","","",""
"null","","image-keyboard-response","593","878917","0.0-8.0-0.4","","img/pink.png","null","trial","32","false","0.8,0.2","1:go_a","",""
"null","","html-keyboard-response","594","879921","0.0-8.0-1.4","","<img src=""img/pink-n.png"">","null","trial","32","","0.8,0.2","1:go_a","0",""
"null","","html-keyboard-response","595","880926","0.0-8.0-2.4","","<div style=""font-size:60px;"">+</div>","null","","","","","","",""
"369.02500002179295","","image-keyboard-response","596","881296","0.0-8.0-0.5","","img/purple.png","32","trial","null","false","0.2,0.8","4:nogo_d","",""
"null","","html-keyboard-response","597","882300","0.0-8.0-1.5","","<img src=""img/purple-n.png"" border=""10"">","null","trial","null","","0.2,0.8","4:nogo_d","0",""
"null","","html-keyboard-response","598","883301","0.0-8.0-2.5","","<div style=""font-size:60px;"">+</div>","null","","","","","","",""
"593.2450000545941","","image-keyboard-response","599","883894","0.0-8.0-0.6","","img/yellow.png","32","trial","32","true","0.8,0.2","3:go_c","",""
"null","","html-keyboard-response","600","884899","0.0-8.0-1.6","","<img src=""img/yellow-r.png"" border=""10"">","null","trial","32","","0.8,0.2","3:go_c","1",""
"null","","html-keyboard-response","601","885902","0.0-8.0-2.6","","<div style=""font-size:60px;"">+</div>","null","","","","","","",""
"null","","image-keyboard-response","602","887406","0.0-8.0-0.7","","img/grey.png","null","trial","null","true","0.2,0.8","2:nogo_b","",""
"null","","html-keyboard-response","603","888412","0.0-8.0-1.7","","<img src=""img/grey-r.png"">","null","trial","null","","0.2,0.8","2:nogo_b","1",""
"null","","html-keyboard-response","604","889416","0.0-8.0-2.7","","<div style=""font-size:60px;"">+</div>","null","","","","","","",""
"583.7150000152178","","image-keyboard-response","605","890000","0.0-8.0-0.8","","img/purple.png","32","trial","null","false","0.2,0.8","4:nogo_d","",""
"null","","html-keyboard-response","606","891004","0.0-8.0-1.8","","<img src=""img/purple-n.png"" border=""10"">","null","trial","null","","0.2,0.8","4:nogo_d","0",""
"null","","html-keyboard-response","607","892008","0.0-8.0-2.8","","<div style=""font-size:60px;"">+</div>","null","","","","","","",""
"498.5400000005029","","image-keyboard-response","608","892507","0.0-8.0-0.9","","img/yellow.png","32","trial","32","true","0.8,0.2","3:go_c","",""
"null","","html-keyboard-response","609","893512","0.0-8.0-1.9","","<img src=""img/yellow-r.png"" border=""10"">","null","trial","32","","0.8,0.2","3:go_c","1",""
"null","","html-keyboard-response","610","894515","0.0-8.0-2.9","","<div style=""font-size:60px;"">+</div>","null","","","","","","",""
"423.1549999676645","","image-keyboard-response","611","894938","0.0-8.0-0.10","","img/pink.png","32","trial","32","true","0.8,0.2","1:go_a","",""
"null","","html-keyboard-response","612","895944","0.0-8.0-1.10","","<img src=""img/pink-n.png"" border=""10"">","null","trial","32","","0.8,0.2","1:go_a","0",""
"null","","html-keyboard-response","613","896948","0.0-8.0-2.10","","<div style=""font-size:60px;"">+</div>","null","","","","","","",""
"null","","image-keyboard-response","614","898450","0.0-8.0-0.11","","img/grey.png","null","trial","null","true","0.2,0.8","2:nogo_b","",""
"null","","html-keyboard-response","615","899452","0.0-8.0-1.11","","<img src=""img/grey-r.png"">","null","trial","null","","0.2,0.8","2:nogo_b","1",""
"null","","html-keyboard-response","616","900457","0.0-8.0-2.11","","<div style=""font-size:60px;"">+</div>","null","","","","","","",""
"301.99499998707324","","image-keyboard-response","617","900759","0.0-8.0-0.12","","img/yellow.png","32","trial","32","true","0.8,0.2","3:go_c","",""
"null","","html-keyboard-response","618","901763","0.0-8.0-1.12","","<img src=""img/yellow-r.png"" border=""10"">","null","trial","32","","0.8,0.2","3:go_c","1",""
"null","","html-keyboard-response","619","902768","0.0-8.0-2.12","","<div style=""font-size:60px;"">+</div>","null","","","","","","",""
"null","","image-keyboard-response","620","904273","0.0-8.0-0.13","","img/grey.png","null","trial","null","true","0.2,0.8","2:nogo_b","",""
"null","","html-keyboard-response","621","905279","0.0-8.0-1.13","","<img src=""img/grey-n.png"">","null","trial","null","","0.2,0.8","2:nogo_b","0",""
"null","","html-keyboard-response","622","906283","0.0-8.0-2.13","","<div style=""font-size:60px;"">+</div>","null","","","","","","",""
"439.6199999609962","","image-keyboard-response","623","906723","0.0-8.0-0.14","","img/purple.png","32","trial","null","false","0.2,0.8","4:nogo_d","",""
"null","","html-keyboard-response","624","907728","0.0-8.0-1.14","","<img src=""img/purple-n.png"" border=""10"">","null","trial","null","","0.2,0.8","4:nogo_d","0",""
"null","","html-keyboard-response","625","908731","0.0-8.0-2.14","","<div style=""font-size:60px;"">+</div>","null","","","","","","",""
"448.20000004256144","","image-keyboard-response","626","909180","0.0-8.0-0.15","","img/pink.png","32","trial","32","true","0.8,0.2","1:go_a","",""
"null","","html-keyboard-response","627","910183","0.0-8.0-1.15","","<img src=""img/pink-r.png"" border=""10"">","null","trial","32","","0.8,0.2","1:go_a","1",""
"null","","html-keyboard-response","628","911186","0.0-8.0-2.15","","<div style=""font-size:60px;"">+</div>","null","","","","","","",""
"927.3050000192598","","image-keyboard-response","629","912114","0.0-8.0-0.16","","img/grey.png","32","trial","null","false","0.2,0.8","2:nogo_b","",""
"null","","html-keyboard-response","630","913120","0.0-8.0-1.16","","<img src=""img/grey-n.png"" border=""10"">","null","trial","null","","0.2,0.8","2:nogo_b","0",""
"null","","html-keyboard-response","631","914125","0.0-8.0-2.16","","<div style=""font-size:60px;"">+</div>","null","","","","","","",""
"827.3699999554083","","image-keyboard-response","632","914952","0.0-8.0-0.17","","img/pink.png","32","trial","32","true","0.8,0.2","1:go_a","",""
"null","","html-keyboard-response","633","915957","0.0-8.0-1.17","","<img src=""img/pink-r.png"" border=""10"">","null","trial","32","","0.8,0.2","1:go_a","1",""
"null","","html-keyboard-response","634","916962","0.0-8.0-2.17","","<div style=""font-size:60px;"">+</div>","null","","","","","","",""
"519.9499999871477","","image-keyboard-response","635","917483","0.0-8.0-0.18","","img/yellow.png","32","trial","32","true","0.8,0.2","3:go_c","",""
"null","","html-keyboard-response","636","918487","0.0-8.0-1.18","","<img src=""img/yellow-n.png"" border=""10"">","null","trial","32","","0.8,0.2","3:go_c","0",""
"null","","html-keyboard-response","637","919491","0.0-8.0-2.18","","<div style=""font-size:60px;"">+</div>","null","","","","","","",""
"520.7149999914691","","image-keyboard-response","638","920012","0.0-8.0-0.19","","img/purple.png","32","trial","null","false","0.2,0.8","4:nogo_d","",""
"null","","html-keyboard-response","639","921017","0.0-8.0-1.19","","<img src=""img/purple-n.png"" border=""10"">","null","trial","null","","0.2,0.8","4:nogo_d","0",""
"null","","html-keyboard-response","640","922022","0.0-8.0-2.19","","<div style=""font-size:60px;"">+</div>","null","","","","","","",""
"993.1649999925867","","image-keyboard-response","641","923015","0.0-8.0-0.20","","img/purple.png","32","trial","null","false","0.2,0.8","4:nogo_d","",""
"null","","html-keyboard-response","642","924021","0.0-8.0-1.20","","<img src=""img/purple-r.png"" border=""10"">","null","trial","null","","0.2,0.8","4:nogo_d","1",""
"null","","html-keyboard-response","643","925025","0.0-8.0-2.20","","<div style=""font-size:60px;"">+</div>","null","","","","","","",""
"null","","image-keyboard-response","644","926530","0.0-8.0-0.21","","img/grey.png","null","trial","null","true","0.2,0.8","2:nogo_b","",""
"null","","html-keyboard-response","645","927535","0.0-8.0-1.21","","<img src=""img/grey-r.png"">","null","trial","null","","0.2,0.8","2:nogo_b","1",""
"null","","html-keyboard-response","646","928540","0.0-8.0-2.21","","<div style=""font-size:60px;"">+</div>","null","","","","","","",""
"null","","image-keyboard-response","647","930044","0.0-8.0-0.22","","img/pink.png","null","trial","32","false","0.8,0.2","1:go_a","",""
"null","","html-keyboard-response","648","931048","0.0-8.0-1.22","","<img src=""img/pink-n.png"">","null","trial","32","","0.8,0.2","1:go_a","0",""
"null","","html-keyboard-response","649","932052","0.0-8.0-2.22","","<div style=""font-size:60px;"">+</div>","null","","","","","","",""
"337.5149999628775","","image-keyboard-response","650","932390","0.0-8.0-0.23","","img/yellow.png","32","trial","32","true","0.8,0.2","3:go_c","",""
"null","","html-keyboard-response","651","933395","0.0-8.0-1.23","","<img src=""img/yellow-r.png"" border=""10"">","null","trial","32","","0.8,0.2","3:go_c","1",""
"null","","html-keyboard-response","652","934399","0.0-8.0-2.23","","<div style=""font-size:60px;"">+</div>","null","","","","","","",""
"null","","image-keyboard-response","653","935904","0.0-8.0-0.24","","img/pink.png","null","trial","32","false","0.8,0.2","1:go_a","",""
"null","","html-keyboard-response","654","936908","0.0-8.0-1.24","","<img src=""img/pink-n.png"">","null","trial","32","","0.8,0.2","1:go_a","0",""
"null","","html-keyboard-response","655","937912","0.0-8.0-2.24","","<div style=""font-size:60px;"">+</div>","null","","","","","","",""
"705.0600000075065","","image-keyboard-response","656","938618","0.0-8.0-0.25","","img/purple.png","32","trial","null","false","0.2,0.8","4:nogo_d","",""
"null","","html-keyboard-response","657","939622","0.0-8.0-1.25","","<img src=""img/purple-r.png"" border=""10"">","null","trial","null","","0.2,0.8","4:nogo_d","1",""
"null","","html-keyboard-response","658","940626","0.0-8.0-2.25","","<div style=""font-size:60px;"">+</div>","null","","","","","","",""
"null","","image-keyboard-response","659","942132","0.0-8.0-0.26","","img/grey.png","null","trial","null","true","0.2,0.8","2:nogo_b","",""
"null","","html-keyboard-response","660","943136","0.0-8.0-1.26","","<img src=""img/grey-r.png"">","null","trial","null","","0.2,0.8","2:nogo_b","1",""
"null","","html-keyboard-response","661","944140","0.0-8.0-2.26","","<div style=""font-size:60px;"">+</div>","null","","","","","","",""
"392.37000001594424","","image-keyboard-response","662","944533","0.0-8.0-0.27","","img/yellow.png","32","trial","32","true","0.8,0.2","3:go_c","",""
"null","","html-keyboard-response","663","945537","0.0-8.0-1.27","","<img src=""img/yellow-n.png"" border=""10"">","null","trial","32","","0.8,0.2","3:go_c","0",""
"null","","html-keyboard-response","664","946542","0.0-8.0-2.27","","<div style=""font-size:60px;"">+</div>","null","","","","","","",""
"471.045000012964","","image-keyboard-response","665","947014","0.0-8.0-0.28","","img/pink.png","32","trial","32","true","0.8,0.2","1:go_a","",""
"null","","html-keyboard-response","666","948018","0.0-8.0-1.28","","<img src=""img/pink-r.png"" border=""10"">","null","trial","32","","0.8,0.2","1:go_a","1",""
"null","","html-keyboard-response","667","949023","0.0-8.0-2.28","","<div style=""font-size:60px;"">+</div>","null","","","","","","",""
"757.7800000435673","","image-keyboard-response","668","949781","0.0-8.0-0.29","","img/purple.png","32","trial","null","false","0.2,0.8","4:nogo_d","",""
"null","","html-keyboard-response","669","950786","0.0-8.0-1.29","","<img src=""img/purple-r.png"" border=""10"">","null","trial","null","","0.2,0.8","4:nogo_d","1",""
"null","","html-keyboard-response","670","951791","0.0-8.0-2.29","","<div style=""font-size:60px;"">+</div>","null","","","","","","",""
"null","","image-keyboard-response","671","953294","0.0-8.0-0.30","","img/grey.png","null","trial","null","true","0.2,0.8","2:nogo_b","",""
"null","","html-keyboard-response","672","954298","0.0-8.0-1.30","","<img src=""img/grey-r.png"">","null","trial","null","","0.2,0.8","2:nogo_b","1",""
"null","","html-keyboard-response","673","955298","0.0-8.0-2.30","","<div style=""font-size:60px;"">+</div>","null","","","","","","",""
"447.22999999066815","","image-keyboard-response","674","955746","0.0-8.0-0.31","","img/yellow.png","32","trial","32","true","0.8,0.2","3:go_c","",""
"null","","html-keyboard-response","675","956750","0.0-8.0-1.31","","<img src=""img/yellow-r.png"" border=""10"">","null","trial","32","","0.8,0.2","3:go_c","1",""
"null","","html-keyboard-response","676","957754","0.0-8.0-2.31","","<div style=""font-size:60px;"">+</div>","null","","","","","","",""
"null","","image-keyboard-response","677","959258","0.0-8.0-0.32","","img/pink.png","null","trial","32","false","0.8,0.2","1:go_a","",""
"null","","html-keyboard-response","678","960262","0.0-8.0-1.32","","<img src=""img/pink-n.png"">","null","trial","32","","0.8,0.2","1:go_a","0",""
"null","","html-keyboard-response","679","961266","0.0-8.0-2.32","","<div style=""font-size:60px;"">+</div>","null","","","","","","",""
"null","","image-keyboard-response","680","962768","0.0-8.0-0.33","","img/grey.png","null","trial","null","true","0.2,0.8","2:nogo_b","",""
"null","","html-keyboard-response","681","963773","0.0-8.0-1.33","","<img src=""img/grey-n.png"">","null","trial","null","","0.2,0.8","2:nogo_b","0",""
"null","","html-keyboard-response","682","964774","0.0-8.0-2.33","","<div style=""font-size:60px;"">+</div>","null","","","","","","",""
"489.55999995814636","","image-keyboard-response","683","965264","0.0-8.0-0.34","","img/yellow.png","32","trial","32","true","0.8,0.2","3:go_c","",""
"null","","html-keyboard-response","684","966269","0.0-8.0-1.34","","<img src=""img/yellow-r.png"" border=""10"">","null","trial","32","","0.8,0.2","3:go_c","1",""
"null","","html-keyboard-response","685","967273","0.0-8.0-2.34","","<div style=""font-size:60px;"">+</div>","null","","","","","","",""
"613.8450000435114","","image-keyboard-response","686","967888","0.0-8.0-0.35","","img/purple.png","32","trial","null","false","0.2,0.8","4:nogo_d","",""
