"rt","url","trial_type","trial_index","time_elapsed","internal_node_id","view_history","stimulus","key_press","test_part","correct_response","correct","use_rew","which_stim","reward","responses"
"88262.30000000075","consent.html","external-html","0","88338","0.0-0.0","","","","","","","","","",""
"130229","","instructions","1","218568","0.0-1.0","[{""page_index"":0,""viewing_time"":7003.699999999255},{""page_index"":1,""viewing_time"":26056.10000000149},{""page_index"":2,""viewing_time"":11680},{""page_index"":3,""viewing_time"":32448},{""page_index"":4,""viewing_time"":19143.89999999851},{""page_index"":5,""viewing_time"":12160.10000000149},{""page_index"":6,""viewing_time"":21736}]","","","","","","","","",""
"null","","image-keyboard-response","2","220070","0.0-2.0-0.0","","img/test3.PNG","null","practice","null","true","","","",""
"null","","html-keyboard-response","3","221072","0.0-2.0-1.0","","<img src=""img/test3-reward.PNG"">","null","","","","","","",""
"null","","html-keyboard-response","4","222073","0.0-2.0-2.0","","<div style=""font-size:60px;"">+</div>","null","","","","","","",""
"348.69999999925494","","image-keyboard-response","5","222423","0.0-2.0-0.1","","img/test1.PNG","32","practice","32","true","","","",""
"null","","html-keyboard-response","6","223424","0.0-2.0-1.1","","<img src=""img/test1-reward.PNG"" border=""10px; grey"">","null","","","","","","",""
"null","","html-keyboard-response","7","224425","0.0-2.0-2.1","","<div style=""font-size:60px;"">+</div>","null","","","","","","",""
"null","","image-keyboard-response","8","225926","0.0-2.0-0.2","","img/test2.PNG","null","practice","null","true","","","",""
"null","","html-keyboard-response","9","226927","0.0-2.0-1.2","","<img src=""img/test2-reward.PNG"">","null","","","","","","",""
"null","","html-keyboard-response","10","227928","0.0-2.0-2.2","","<div style=""font-size:60px;"">+</div>","null","","","","","","",""
"388.80000000074506","","image-keyboard-response","11","228318","0.0-2.0-0.3","","img/test1.PNG","32","practice","32","true","","","",""
"null","","html-keyboard-response","12","229319","0.0-2.0-1.3","","<img src=""img/test1-reward.PNG"" border=""10px; grey"">","null","","","","","","",""
"null","","html-keyboard-response","13","230320","0.0-2.0-2.3","","<div style=""font-size:60px;"">+</div>","null","","","","","","",""
"null","","image-keyboard-response","14","231821","0.0-2.0-0.4","","img/test3.PNG","null","practice","null","true","","","",""
"null","","html-keyboard-response","15","232822","0.0-2.0-1.4","","<img src=""img/test3-reward.PNG"">","null","","","","","","",""
"null","","html-keyboard-response","16","233822","0.0-2.0-2.4","","<div style=""font-size:60px;"">+</div>","null","","","","","","",""
"null","","image-keyboard-response","17","235324","0.0-2.0-0.5","","img/test2.PNG","null","practice","null","true","","","",""
"null","","html-keyboard-response","18","236326","0.0-2.0-1.5","","<img src=""img/test2-reward.PNG"">","null","","","","","","",""
"null","","html-keyboard-response","19","237326","0.0-2.0-2.5","","<div style=""font-size:60px;"">+</div>","null","","","","","","",""
"487.0999999977648","","image-keyboard-response","20","237815","0.0-2.0-0.6","","img/test1.PNG","32","practice","32","true","","","",""
"null","","html-keyboard-response","21","238816","0.0-2.0-1.6","","<img src=""img/test1-reward.PNG"" border=""10px; grey"">","null","","","","","","",""
"null","","html-keyboard-response","22","239817","0.0-2.0-2.6","","<div style=""font-size:60px;"">+</div>","null","","","","","","",""
"null","","image-keyboard-response","23","241318","0.0-2.0-0.7","","img/test3.PNG","null","practice","null","true","","","",""
"null","","html-keyboard-response","24","242319","0.0-2.0-1.7","","<img src=""img/test3-reward.PNG"">","null","","","","","","",""
"null","","html-keyboard-response","25","243320","0.0-2.0-2.7","","<div style=""font-size:60px;"">+</div>","null","","","","","","",""
"null","","image-keyboard-response","26","244821","0.0-2.0-0.8","","img/test2.PNG","null","practice","null","true","","","",""
"null","","html-keyboard-response","27","245822","0.0-2.0-1.8","","<img src=""img/test2-reward.PNG"">","null","","","","","","",""
"null","","html-keyboard-response","28","246823","0.0-2.0-2.8","","<div style=""font-size:60px;"">+</div>","null","","","","","","",""
"null","","image-keyboard-response","29","248324","0.0-2.0-0.9","","img/test2.PNG","null","practice","null","true","","","",""
"null","","html-keyboard-response","30","249325","0.0-2.0-1.9","","<img src=""img/test2-reward.PNG"">","null","","","","","","",""
"null","","html-keyboard-response","31","250326","0.0-2.0-2.9","","<div style=""font-size:60px;"">+</div>","null","","","","","","",""
"639.8999999985099","","image-keyboard-response","32","250967","0.0-2.0-0.10","","img/test1.PNG","32","practice","32","true","","","",""
"null","","html-keyboard-response","33","251968","0.0-2.0-1.10","","<img src=""img/test1-reward.PNG"" border=""10px; grey"">","null","","","","","","",""
"null","","html-keyboard-response","34","252968","0.0-2.0-2.10","","<div style=""font-size:60px;"">+</div>","null","","","","","","",""
"null","","image-keyboard-response","35","254470","0.0-2.0-0.11","","img/test3.PNG","null","practice","null","true","","","",""
"null","","html-keyboard-response","36","255471","0.0-2.0-1.11","","<img src=""img/test3-reward.PNG"">","null","","","","","","",""
"null","","html-keyboard-response","37","256472","0.0-2.0-2.11","","<div style=""font-size:60px;"">+</div>","null","","","","","","",""
"12463.39999999851","","instructions","38","268935","0.0-3.0","[{""page_index"":0,""viewing_time"":12463.099999997765}]","","","","","","","","",""
"null","","image-keyboard-response","39","270438","0.0-4.0-0.0","","img/orange.png","null","trial","null","true","0.2,0.8","2:nogo_b","",""
"null","","html-keyboard-response","40","271440","0.0-4.0-1.0","","<img src=""img/orange-r.png"">","null","trial","null","","0.2,0.8","2:nogo_b","1",""
"null","","html-keyboard-response","41","272441","0.0-4.0-2.0","","<div style=""font-size:60px;"">+</div>","null","","","","","","",""
"null","","image-keyboard-response","42","273942","0.0-4.0-0.1","","img/purple.png","null","trial","32","false","0.8,0.2","1:go_a","",""
"null","","html-keyboard-response","43","274943","0.0-4.0-1.1","","<img src=""img/purple-n.png"">","null","trial","32","","0.8,0.2","1:go_a","0",""
"null","","html-keyboard-response","44","275944","0.0-4.0-2.1","","<div style=""font-size:60px;"">+</div>","null","","","","","","",""
"null","","image-keyboard-response","45","277445","0.0-4.0-0.2","","img/purple.png","null","trial","32","false","0.8,0.2","1:go_a","",""
"null","","html-keyboard-response","46","278446","0.0-4.0-1.2","","<img src=""img/purple-n.png"">","null","trial","32","","0.8,0.2","1:go_a","0",""
"null","","html-keyboard-response","47","279447","0.0-4.0-2.2","","<div style=""font-size:60px;"">+</div>","null","","","","","","",""
"1366.300000000745","","image-keyboard-response","48","280815","0.0-4.0-0.3","","img/orange.png","32","trial","null","false","0.2,0.8","2:nogo_b","",""
"null","","html-keyboard-response","49","281816","0.0-4.0-1.3","","<img src=""img/orange-n.png"" border=""10"">","null","trial","null","","0.2,0.8","2:nogo_b","0",""
"null","","html-keyboard-response","50","282817","0.0-4.0-2.3","","<div style=""font-size:60px;"">+</div>","null","","","","","","",""
"null","","image-keyboard-response","51","284318","0.0-4.0-0.4","","img/orange.png","null","trial","null","true","0.2,0.8","2:nogo_b","",""
"null","","html-keyboard-response","52","285319","0.0-4.0-1.4","","<img src=""img/orange-r.png"">","null","trial","null","","0.2,0.8","2:nogo_b","1",""
"null","","html-keyboard-response","53","286320","0.0-4.0-2.4","","<div style=""font-size:60px;"">+</div>","null","","","","","","",""
"773.3000000007451","","image-keyboard-response","54","287094","0.0-4.0-0.5","","img/purple.png","32","trial","32","true","0.8,0.2","1:go_a","",""
"null","","html-keyboard-response","55","288096","0.0-4.0-1.5","","<img src=""img/purple-r.png"" border=""10"">","null","trial","32","","0.8,0.2","1:go_a","1",""
"null","","html-keyboard-response","56","289097","0.0-4.0-2.5","","<div style=""font-size:60px;"">+</div>","null","","","","","","",""
"604.3000000007451","","image-keyboard-response","57","289702","0.0-4.0-0.6","","img/orange.png","32","trial","null","false","0.2,0.8","2:nogo_b","",""
"null","","html-keyboard-response","58","290704","0.0-4.0-1.6","","<img src=""img/orange-r.png"" border=""10"">","null","trial","null","","0.2,0.8","2:nogo_b","1",""
"null","","html-keyboard-response","59","291705","0.0-4.0-2.6","","<div style=""font-size:60px;"">+</div>","null","","","","","","",""
"652.8999999985099","","image-keyboard-response","60","292359","0.0-4.0-0.7","","img/purple.png","32","trial","32","true","0.8,0.2","1:go_a","",""
"null","","html-keyboard-response","61","293360","0.0-4.0-1.7","","<img src=""img/purple-r.png"" border=""10"">","null","trial","32","","0.8,0.2","1:go_a","1",""
"null","","html-keyboard-response","62","294361","0.0-4.0-2.7","","<div style=""font-size:60px;"">+</div>","null","","","","","","",""
"644.8999999985099","","image-keyboard-response","63","295007","0.0-4.0-0.8","","img/purple.png","32","trial","32","true","0.8,0.2","1:go_a","",""
"null","","html-keyboard-response","64","296008","0.0-4.0-1.8","","<img src=""img/purple-n.png"" border=""10"">","null","trial","32","","0.8,0.2","1:go_a","0",""
"null","","html-keyboard-response","65","297009","0.0-4.0-2.8","","<div style=""font-size:60px;"">+</div>","null","","","","","","",""
"548.3000000007451","","image-keyboard-response","66","297559","0.0-4.0-0.9","","img/orange.png","32","trial","null","false","0.2,0.8","2:nogo_b","",""
"null","","html-keyboard-response","67","298560","0.0-4.0-1.9","","<img src=""img/orange-n.png"" border=""10"">","null","trial","null","","0.2,0.8","2:nogo_b","0",""
"null","","html-keyboard-response","68","299561","0.0-4.0-2.9","","<div style=""font-size:60px;"">+</div>","null","","","","","","",""
"636.5","","image-keyboard-response","69","300199","0.0-4.0-0.10","","img/orange.png","32","trial","null","false","0.2,0.8","2:nogo_b","",""
"null","","html-keyboard-response","70","301202","0.0-4.0-1.10","","<img src=""img/orange-n.png"" border=""10"">","null","trial","null","","0.2,0.8","2:nogo_b","0",""
"null","","html-keyboard-response","71","302203","0.0-4.0-2.10","","<div style=""font-size:60px;"">+</div>","null","","","","","","",""
"570.9000000022352","","image-keyboard-response","72","302775","0.0-4.0-0.11","","img/purple.png","32","trial","32","true","0.8,0.2","1:go_a","",""
"null","","html-keyboard-response","73","303777","0.0-4.0-1.11","","<img src=""img/purple-r.png"" border=""10"">","null","trial","32","","0.8,0.2","1:go_a","1",""
"null","","html-keyboard-response","74","304777","0.0-4.0-2.11","","<div style=""font-size:60px;"">+</div>","null","","","","","","",""
"940.1000000014901","","image-keyboard-response","75","305718","0.0-4.0-0.12","","img/orange.png","32","trial","null","false","0.2,0.8","2:nogo_b","",""
"null","","html-keyboard-response","76","306720","0.0-4.0-1.12","","<img src=""img/orange-r.png"" border=""10"">","null","trial","null","","0.2,0.8","2:nogo_b","1",""
"null","","html-keyboard-response","77","307721","0.0-4.0-2.12","","<div style=""font-size:60px;"">+</div>","null","","","","","","",""
"853.0999999977648","","image-keyboard-response","78","308574","0.0-4.0-0.13","","img/purple.png","32","trial","32","true","0.8,0.2","1:go_a","",""
"null","","html-keyboard-response","79","309576","0.0-4.0-1.13","","<img src=""img/purple-r.png"" border=""10"">","null","trial","32","","0.8,0.2","1:go_a","1",""
"null","","html-keyboard-response","80","310577","0.0-4.0-2.13","","<div style=""font-size:60px;"">+</div>","null","","","","","","",""
"796.6999999992549","","image-keyboard-response","81","311374","0.0-4.0-0.14","","img/purple.png","32","trial","32","true","0.8,0.2","1:go_a","",""
"null","","html-keyboard-response","82","312376","0.0-4.0-1.14","","<img src=""img/purple-n.png"" border=""10"">","null","trial","32","","0.8,0.2","1:go_a","0",""
"null","","html-keyboard-response","83","313377","0.0-4.0-2.14","","<div style=""font-size:60px;"">+</div>","null","","","","","","",""
"549","","image-keyboard-response","84","313927","0.0-4.0-0.15","","img/orange.png","32","trial","null","false","0.2,0.8","2:nogo_b","",""
"null","","html-keyboard-response","85","314928","0.0-4.0-1.15","","<img src=""img/orange-n.png"" border=""10"">","null","trial","null","","0.2,0.8","2:nogo_b","0",""
"null","","html-keyboard-response","86","315929","0.0-4.0-2.15","","<div style=""font-size:60px;"">+</div>","null","","","","","","",""
"428.5","","image-keyboard-response","87","316358","0.0-4.0-0.16","","img/purple.png","32","trial","32","true","0.8,0.2","1:go_a","",""
"null","","html-keyboard-response","88","317360","0.0-4.0-1.16","","<img src=""img/purple-r.png"" border=""10"">","null","trial","32","","0.8,0.2","1:go_a","1",""
"null","","html-keyboard-response","89","318360","0.0-4.0-2.16","","<div style=""font-size:60px;"">+</div>","null","","","","","","",""
"null","","image-keyboard-response","90","319861","0.0-4.0-0.17","","img/orange.png","null","trial","null","true","0.2,0.8","2:nogo_b","",""
"null","","html-keyboard-response","91","320863","0.0-4.0-1.17","","<img src=""img/orange-r.png"">","null","trial","null","","0.2,0.8","2:nogo_b","1",""
"null","","html-keyboard-response","92","321863","0.0-4.0-2.17","","<div style=""font-size:60px;"">+</div>","null","","","","","","",""
"478","","image-keyboard-response","93","322342","0.0-4.0-0.18","","img/purple.png","32","trial","32","true","0.8,0.2","1:go_a","",""
"null","","html-keyboard-response","94","323344","0.0-4.0-1.18","","<img src=""img/purple-r.png"" border=""10"">","null","trial","32","","0.8,0.2","1:go_a","1",""
"null","","html-keyboard-response","95","324344","0.0-4.0-2.18","","<div style=""font-size:60px;"">+</div>","null","","","","","","",""
"869","","image-keyboard-response","96","325214","0.0-4.0-0.19","","img/orange.png","32","trial","null","false","0.2,0.8","2:nogo_b","",""
"null","","html-keyboard-response","97","326216","0.0-4.0-1.19","","<img src=""img/orange-n.png"" border=""10"">","null","trial","null","","0.2,0.8","2:nogo_b","0",""
"null","","html-keyboard-response","98","327217","0.0-4.0-2.19","","<div style=""font-size:60px;"">+</div>","null","","","","","","",""
"588.6999999992549","","image-keyboard-response","99","327806","0.0-4.0-0.20","","img/orange.png","32","trial","null","false","0.2,0.8","2:nogo_b","",""
"null","","html-keyboard-response","100","328808","0.0-4.0-1.20","","<img src=""img/orange-n.png"" border=""10"">","null","trial","null","","0.2,0.8","2:nogo_b","0",""
"null","","html-keyboard-response","101","329808","0.0-4.0-2.20","","<div style=""font-size:60px;"">+</div>","null","","","","","","",""
"413","","image-keyboard-response","102","330222","0.0-4.0-0.21","","img/purple.png","32","trial","32","true","0.8,0.2","1:go_a","",""
"null","","html-keyboard-response","103","331224","0.0-4.0-1.21","","<img src=""img/purple-r.png"" border=""10"">","null","trial","32","","0.8,0.2","1:go_a","1",""
"null","","html-keyboard-response","104","332224","0.0-4.0-2.21","","<div style=""font-size:60px;"">+</div>","null","","","","","","",""
"null","","image-keyboard-response","105","333726","0.0-4.0-0.22","","img/orange.png","null","trial","null","true","0.2,0.8","2:nogo_b","",""
"null","","html-keyboard-response","106","334727","0.0-4.0-1.22","","<img src=""img/orange-n.png"">","null","trial","null","","0.2,0.8","2:nogo_b","0",""
"null","","html-keyboard-response","107","335728","0.0-4.0-2.22","","<div style=""font-size:60px;"">+</div>","null","","","","","","",""
"406.0999999977648","","image-keyboard-response","108","336134","0.0-4.0-0.23","","img/purple.png","32","trial","32","true","0.8,0.2","1:go_a","",""
"null","","html-keyboard-response","109","337136","0.0-4.0-1.23","","<img src=""img/purple-r.png"" border=""10"">","null","trial","32","","0.8,0.2","1:go_a","1",""
"null","","html-keyboard-response","110","338137","0.0-4.0-2.23","","<div style=""font-size:60px;"">+</div>","null","","","","","","",""
"null","","image-keyboard-response","111","339638","0.0-4.0-0.24","","img/orange.png","null","trial","null","true","0.2,0.8","2:nogo_b","",""
"null","","html-keyboard-response","112","340639","0.0-4.0-1.24","","<img src=""img/orange-r.png"">","null","trial","null","","0.2,0.8","2:nogo_b","1",""
"null","","html-keyboard-response","113","341640","0.0-4.0-2.24","","<div style=""font-size:60px;"">+</div>","null","","","","","","",""
"477.29999999701977","","image-keyboard-response","114","342118","0.0-4.0-0.25","","img/purple.png","32","trial","32","true","0.8,0.2","1:go_a","",""
"null","","html-keyboard-response","115","343120","0.0-4.0-1.25","","<img src=""img/purple-r.png"" border=""10"">","null","trial","32","","0.8,0.2","1:go_a","1",""
"null","","html-keyboard-response","116","344121","0.0-4.0-2.25","","<div style=""font-size:60px;"">+</div>","null","","","","","","",""
"668.6000000014901","","image-keyboard-response","117","344790","0.0-4.0-0.26","","img/purple.png","32","trial","32","true","0.8,0.2","1:go_a","",""
"null","","html-keyboard-response","118","345792","0.0-4.0-1.26","","<img src=""img/purple-r.png"" border=""10"">","null","trial","32","","0.8,0.2","1:go_a","1",""
"null","","html-keyboard-response","119","346793","0.0-4.0-2.26","","<div style=""font-size:60px;"">+</div>","null","","","","","","",""
"null","","image-keyboard-response","120","348294","0.0-4.0-0.27","","img/orange.png","null","trial","null","true","0.2,0.8","2:nogo_b","",""
"null","","html-keyboard-response","121","349295","0.0-4.0-1.27","","<img src=""img/orange-r.png"">","null","trial","null","","0.2,0.8","2:nogo_b","1",""
"null","","html-keyboard-response","122","350296","0.0-4.0-2.27","","<div style=""font-size:60px;"">+</div>","null","","","","","","",""
"429.8999999985099","","image-keyboard-response","123","350727","0.0-4.0-0.28","","img/purple.png","32","trial","32","true","0.8,0.2","1:go_a","",""
"null","","html-keyboard-response","124","351728","0.0-4.0-1.28","","<img src=""img/purple-n.png"" border=""10"">","null","trial","32","","0.8,0.2","1:go_a","0",""
"null","","html-keyboard-response","125","352729","0.0-4.0-2.28","","<div style=""font-size:60px;"">+</div>","null","","","","","","",""
"580.5999999977648","","image-keyboard-response","126","353310","0.0-4.0-0.29","","img/orange.png","32","trial","null","false","0.2,0.8","2:nogo_b","",""
"null","","html-keyboard-response","127","354312","0.0-4.0-1.29","","<img src=""img/orange-n.png"" border=""10"">","null","trial","null","","0.2,0.8","2:nogo_b","0",""
"null","","html-keyboard-response","128","355312","0.0-4.0-2.29","","<div style=""font-size:60px;"">+</div>","null","","","","","","",""
"437","","image-keyboard-response","129","355750","0.0-4.0-0.30","","img/purple.png","32","trial","32","true","0.8,0.2","1:go_a","",""
"null","","html-keyboard-response","130","356752","0.0-4.0-1.30","","<img src=""img/purple-r.png"" border=""10"">","null","trial","32","","0.8,0.2","1:go_a","1",""
"null","","html-keyboard-response","131","357753","0.0-4.0-2.30","","<div style=""font-size:60px;"">+</div>","null","","","","","","",""
"null","","image-keyboard-response","132","359254","0.0-4.0-0.31","","img/orange.png","null","trial","null","true","0.2,0.8","2:nogo_b","",""
"null","","html-keyboard-response","133","360255","0.0-4.0-1.31","","<img src=""img/orange-r.png"">","null","trial","null","","0.2,0.8","2:nogo_b","1",""
"null","","html-keyboard-response","134","361256","0.0-4.0-2.31","","<div style=""font-size:60px;"">+</div>","null","","","","","","",""
"494","","image-keyboard-response","135","361751","0.0-4.0-0.32","","img/purple.png","32","trial","32","true","0.8,0.2","1:go_a","",""
"null","","html-keyboard-response","136","362752","0.0-4.0-1.32","","<img src=""img/purple-r.png"" border=""10"">","null","trial","32","","0.8,0.2","1:go_a","1",""
"null","","html-keyboard-response","137","363753","0.0-4.0-2.32","","<div style=""font-size:60px;"">+</div>","null","","","","","","",""
"null","","image-keyboard-response","138","365254","0.0-4.0-0.33","","img/orange.png","null","trial","null","true","0.2,0.8","2:nogo_b","",""
"null","","html-keyboard-response","139","366256","0.0-4.0-1.33","","<img src=""img/orange-r.png"">","null","trial","null","","0.2,0.8","2:nogo_b","1",""
"null","","html-keyboard-response","140","367256","0.0-4.0-2.33","","<div style=""font-size:60px;"">+</div>","null","","","","","","",""
"693.2999999970198","","image-keyboard-response","141","367950","0.0-4.0-0.34","","img/purple.png","32","trial","32","true","0.8,0.2","1:go_a","",""
"null","","html-keyboard-response","142","368951","0.0-4.0-1.34","","<img src=""img/purple-n.png"" border=""10"">","null","trial","32","","0.8,0.2","1:go_a","0",""
"null","","html-keyboard-response","143","369952","0.0-4.0-2.34","","<div style=""font-size:60px;"">+</div>","null","","","","","","",""
"381.5","","image-keyboard-response","144","370334","0.0-4.0-0.35","","img/orange.png","32","trial","null","false","0.2,0.8","2:nogo_b","",""
"null","","html-keyboard-response","145","371337","0.0-4.0-1.35","","<img src=""img/orange-r.png"" border=""10"">","null","trial","null","","0.2,0.8","2:nogo_b","1",""
"null","","html-keyboard-response","146","372337","0.0-4.0-2.35","","<div style=""font-size:60px;"">+</div>","null","","","","","","",""
"588.2000000029802","","image-keyboard-response","147","372926","0.0-4.0-0.36","","img/orange.png","32","trial","null","false","0.2,0.8","2:nogo_b","",""
"null","","html-keyboard-response","148","373928","0.0-4.0-1.36","","<img src=""img/orange-r.png"" border=""10"">","null","trial","null","","0.2,0.8","2:nogo_b","1",""
"null","","html-keyboard-response","149","374929","0.0-4.0-2.36","","<div style=""font-size:60px;"">+</div>","null","","","","","","",""
"876.3999999985099","","image-keyboard-response","150","375806","0.0-4.0-0.37","","img/purple.png","32","trial","32","true","0.8,0.2","1:go_a","",""
"null","","html-keyboard-response","151","376808","0.0-4.0-1.37","","<img src=""img/purple-r.png"" border=""10"">","null","trial","32","","0.8,0.2","1:go_a","1",""
"null","","html-keyboard-response","152","377809","0.0-4.0-2.37","","<div style=""font-size:60px;"">+</div>","null","","","","","","",""
"533","","image-keyboard-response","153","378343","0.0-4.0-0.38","","img/purple.png","32","trial","32","true","0.8,0.2","1:go_a","",""
"null","","html-keyboard-response","154","379344","0.0-4.0-1.38","","<img src=""img/purple-r.png"" border=""10"">","null","trial","32","","0.8,0.2","1:go_a","1",""
"null","","html-keyboard-response","155","380346","0.0-4.0-2.38","","<div style=""font-size:60px;"">+</div>","null","","","","","","",""
"731.1999999992549","","image-keyboard-response","156","381078","0.0-4.0-0.39","","img/orange.png","32","trial","null","false","0.2,0.8","2:nogo_b","",""
"null","","html-keyboard-response","157","382080","0.0-4.0-1.39","","<img src=""img/orange-r.png"" border=""10"">","null","trial","null","","0.2,0.8","2:nogo_b","1",""
"null","","html-keyboard-response","158","383080","0.0-4.0-2.39","","<div style=""font-size:60px;"">+</div>","null","","","","","","",""
"669.5","","image-keyboard-response","159","383750","0.0-4.0-0.40","","img/purple.png","32","trial","32","true","0.8,0.2","1:go_a","",""
"null","","html-keyboard-response","160","384752","0.0-4.0-1.40","","<img src=""img/purple-r.png"" border=""10"">","null","trial","32","","0.8,0.2","1:go_a","1",""
"null","","html-keyboard-response","161","385753","0.0-4.0-2.40","","<div style=""font-size:60px;"">+</div>","null","","","","","","",""
"972.5","","image-keyboard-response","162","386726","0.0-4.0-0.41","","img/orange.png","32","trial","null","false","0.2,0.8","2:nogo_b","",""
"null","","html-keyboard-response","163","387728","0.0-4.0-1.41","","<img src=""img/orange-n.png"" border=""10"">","null","trial","null","","0.2,0.8","2:nogo_b","0",""
"null","","html-keyboard-response","164","388729","0.0-4.0-2.41","","<div style=""font-size:60px;"">+</div>","null","","","","","","",""
"764.8000000007451","","image-keyboard-response","165","389494","0.0-4.0-0.42","","img/orange.png","32","trial","null","false","0.2,0.8","2:nogo_b","",""
"null","","html-keyboard-response","166","390496","0.0-4.0-1.42","","<img src=""img/orange-n.png"" border=""10"">","null","trial","null","","0.2,0.8","2:nogo_b","0",""
"null","","html-keyboard-response","167","391497","0.0-4.0-2.42","","<div style=""font-size:60px;"">+</div>","null","","","","","","",""
"668.6999999992549","","image-keyboard-response","168","392166","0.0-4.0-0.43","","img/purple.png","32","trial","32","true","0.8,0.2","1:go_a","",""
"null","","html-keyboard-response","169","393168","0.0-4.0-1.43","","<img src=""img/purple-n.png"" border=""10"">","null","trial","32","","0.8,0.2","1:go_a","0",""
"null","","html-keyboard-response","170","394168","0.0-4.0-2.43","","<div style=""font-size:60px;"">+</div>","null","","","","","","",""
"813.6999999992549","","image-keyboard-response","171","394983","0.0-4.0-0.44","","img/orange.png","32","trial","null","false","0.2,0.8","2:nogo_b","",""
"null","","html-keyboard-response","172","395984","0.0-4.0-1.44","","<img src=""img/orange-n.png"" border=""10"">","null","trial","null","","0.2,0.8","2:nogo_b","0",""
"null","","html-keyboard-response","173","396985","0.0-4.0-2.44","","<div style=""font-size:60px;"">+</div>","null","","","","","","",""
"null","","image-keyboard-response","174","398486","0.0-4.0-0.45","","img/purple.png","null","trial","32","false","0.8,0.2","1:go_a","",""
"null","","html-keyboard-response","175","399487","0.0-4.0-1.45","","<img src=""img/purple-n.png"">","null","trial","32","","0.8,0.2","1:go_a","0",""
"null","","html-keyboard-response","176","400488","0.0-4.0-2.45","","<div style=""font-size:60px;"">+</div>","null","","","","","","",""
"null","","image-keyboard-response","177","401989","0.0-4.0-0.46","","img/orange.png","null","trial","null","true","0.2,0.8","2:nogo_b","",""
"null","","html-keyboard-response","178","402990","0.0-4.0-1.46","","<img src=""img/orange-r.png"">","null","trial","null","","0.2,0.8","2:nogo_b","1",""
"null","","html-keyboard-response","179","403991","0.0-4.0-2.46","","<div style=""font-size:60px;"">+</div>","null","","","","","","",""
"806.8999999985099","","image-keyboard-response","180","404799","0.0-4.0-0.47","","img/purple.png","32","trial","32","true","0.8,0.2","1:go_a","",""
"null","","html-keyboard-response","181","405800","0.0-4.0-1.47","","<img src=""img/purple-r.png"" border=""10"">","null","trial","32","","0.8,0.2","1:go_a","1",""
"null","","html-keyboard-response","182","406801","0.0-4.0-2.47","","<div style=""font-size:60px;"">+</div>","null","","","","","","",""
"null","","image-keyboard-response","183","408302","0.0-4.0-0.48","","img/orange.png","null","trial","null","true","0.2,0.8","2:nogo_b","",""
"null","","html-keyboard-response","184","409303","0.0-4.0-1.48","","<img src=""img/orange-n.png"">","null","trial","null","","0.2,0.8","2:nogo_b","0",""
"null","","html-keyboard-response","185","410304","0.0-4.0-2.48","","<div style=""font-size:60px;"">+</div>","null","","","","","","",""
"533.8000000007451","","image-keyboard-response","186","410839","0.0-4.0-0.49","","img/purple.png","32","trial","32","true","0.8,0.2","1:go_a","",""
"null","","html-keyboard-response","187","411840","0.0-4.0-1.49","","<img src=""img/purple-r.png"" border=""10"">","null","trial","32","","0.8,0.2","1:go_a","1",""
"null","","html-keyboard-response","188","412841","0.0-4.0-2.49","","<div style=""font-size:60px;"">+</div>","null","","","","","","",""
"844.8000000007451","","image-keyboard-response","189","413686","0.0-4.0-0.50","","img/purple.png","32","trial","32","true","0.8,0.2","1:go_a","",""
"null","","html-keyboard-response","190","414688","0.0-4.0-1.50","","<img src=""img/purple-r.png"" border=""10"">","null","trial","32","","0.8,0.2","1:go_a","1",""
"null","","html-keyboard-response","191","415689","0.0-4.0-2.50","","<div style=""font-size:60px;"">+</div>","null","","","","","","",""
"741.1999999992549","","image-keyboard-response","192","416431","0.0-4.0-0.51","","img/orange.png","32","trial","null","false","0.2,0.8","2:nogo_b","",""
"null","","html-keyboard-response","193","417432","0.0-4.0-1.51","","<img src=""img/orange-n.png"" border=""10"">","null","trial","null","","0.2,0.8","2:nogo_b","0",""
"null","","html-keyboard-response","194","418433","0.0-4.0-2.51","","<div style=""font-size:60px;"">+</div>","null","","","","","","",""
"620.7000000029802","","image-keyboard-response","195","419054","0.0-4.0-0.52","","img/purple.png","32","trial","32","true","0.8,0.2","1:go_a","",""
"null","","html-keyboard-response","196","420056","0.0-4.0-1.52","","<img src=""img/purple-r.png"" border=""10"">","null","trial","32","","0.8,0.2","1:go_a","1",""
"null","","html-keyboard-response","197","421056","0.0-4.0-2.52","","<div style=""font-size:60px;"">+</div>","null","","","","","","",""
"null","","image-keyboard-response","198","422558","0.0-4.0-0.53","","img/orange.png","null","trial","null","true","0.2,0.8","2:nogo_b","",""
"null","","html-keyboard-response","199","423559","0.0-4.0-1.53","","<img src=""img/orange-r.png"">","null","trial","null","","0.2,0.8","2:nogo_b","1",""
"null","","html-keyboard-response","200","424560","0.0-4.0-2.53","","<div style=""font-size:60px;"">+</div>","null","","","","","","",""
"null","","image-keyboard-response","201","426061","0.0-4.0-0.54","","img/orange.png","null","trial","null","true","0.2,0.8","2:nogo_b","",""
"null","","html-keyboard-response","202","427062","0.0-4.0-1.54","","<img src=""img/orange-r.png"">","null","trial","null","","0.2,0.8","2:nogo_b","1",""
"null","","html-keyboard-response","203","428063","0.0-4.0-2.54","","<div style=""font-size:60px;"">+</div>","null","","","","","","",""
"479","","image-keyboard-response","204","428543","0.0-4.0-0.55","","img/purple.png","32","trial","32","true","0.8,0.2","1:go_a","",""
"null","","html-keyboard-response","205","429544","0.0-4.0-1.55","","<img src=""img/purple-n.png"" border=""10"">","null","trial","32","","0.8,0.2","1:go_a","0",""
"null","","html-keyboard-response","206","430545","0.0-4.0-2.55","","<div style=""font-size:60px;"">+</div>","null","","","","","","",""
"null","","image-keyboard-response","207","432046","0.0-4.0-0.56","","img/purple.png","null","trial","32","false","0.8,0.2","1:go_a","",""
"null","","html-keyboard-response","208","433047","0.0-4.0-1.56","","<img src=""img/purple-r.png"">","null","trial","32","","0.8,0.2","1:go_a","1",""
"null","","html-keyboard-response","209","434048","0.0-4.0-2.56","","<div style=""font-size:60px;"">+</div>","null","","","","","","",""
"629.5999999977648","","image-keyboard-response","210","434678","0.0-4.0-0.57","","img/orange.png","32","trial","null","false","0.2,0.8","2:nogo_b","",""
"null","","html-keyboard-response","211","435680","0.0-4.0-1.57","","<img src=""img/orange-n.png"" border=""10"">","null","trial","null","","0.2,0.8","2:nogo_b","0",""
"null","","html-keyboard-response","212","436680","0.0-4.0-2.57","","<div style=""font-size:60px;"">+</div>","null","","","","","","",""
"428.8999999985099","","image-keyboard-response","213","437110","0.0-4.0-0.58","","img/orange.png","32","trial","null","false","0.2,0.8","2:nogo_b","",""
"null","","html-keyboard-response","214","438112","0.0-4.0-1.58","","<img src=""img/orange-n.png"" border=""10"">","null","trial","null","","0.2,0.8","2:nogo_b","0",""
"null","","html-keyboard-response","215","439112","0.0-4.0-2.58","","<div style=""font-size:60px;"">+</div>","null","","","","","","",""
"421.20000000298023","","image-keyboard-response","216","439534","0.0-4.0-0.59","","img/purple.png","32","trial","32","true","0.8,0.2","1:go_a","",""
"null","","html-keyboard-response","217","440536","0.0-4.0-1.59","","<img src=""img/purple-r.png"" border=""10"">","null","trial","32","","0.8,0.2","1:go_a","1",""
"null","","html-keyboard-response","218","441536","0.0-4.0-2.59","","<div style=""font-size:60px;"">+</div>","null","","","","","","",""
"3910.5","","instructions","219","445447","0.0-5.0","[{""page_index"":0,""viewing_time"":3910.199999999255}]","","","","","","","","",""
"845.0999999977648","","image-keyboard-response","220","446294","0.0-6.0-0.0","","img/green.png","32","trial","null","false","0.4,0.6","2:nogo_b","",""
"null","","html-keyboard-response","221","447296","0.0-6.0-1.0","","<img src=""img/green-n.png"" border=""10"">","null","trial","null","","0.4,0.6","2:nogo_b","0",""
"null","","html-keyboard-response","222","448296","0.0-6.0-2.0","","<div style=""font-size:60px;"">+</div>","null","","","","","","",""
"469.1000000014901","","image-keyboard-response","223","448766","0.0-6.0-0.1","","img/yellow.png","32","trial","32","true","0.6,0.4","3:go_c","",""
"null","","html-keyboard-response","224","449768","0.0-6.0-1.1","","<img src=""img/yellow-n.png"" border=""10"">","null","trial","32","","0.6,0.4","3:go_c","0",""
"null","","html-keyboard-response","225","450770","0.0-6.0-2.1","","<div style=""font-size:60px;"">+</div>","null","","","","","","",""
"603.6999999992549","","image-keyboard-response","226","451375","0.0-6.0-0.2","","img/purple.png","32","trial","null","false","0.4,0.6","4:nogo_d","",""
"null","","html-keyboard-response","227","452376","0.0-6.0-1.2","","<img src=""img/purple-r.png"" border=""10"">","null","trial","null","","0.4,0.6","4:nogo_d","1",""
"null","","html-keyboard-response","228","453377","0.0-6.0-2.2","","<div style=""font-size:60px;"">+</div>","null","","","","","","",""
"812.5","","image-keyboard-response","229","454190","0.0-6.0-0.3","","img/grey.png","32","trial","32","true","0.6,0.4","1:go_a","",""
"null","","html-keyboard-response","230","455192","0.0-6.0-1.3","","<img src=""img/grey-r.png"" border=""10"">","null","trial","32","","0.6,0.4","1:go_a","1",""
"null","","html-keyboard-response","231","456192","0.0-6.0-2.3","","<div style=""font-size:60px;"">+</div>","null","","","","","","",""
"null","","image-keyboard-response","232","457693","0.0-6.0-0.4","","img/green.png","null","trial","null","true","0.4,0.6","2:nogo_b","",""
"null","","html-keyboard-response","233","458695","0.0-6.0-1.4","","<img src=""img/green-r.png"">","null","trial","null","","0.4,0.6","2:nogo_b","1",""
"null","","html-keyboard-response","234","459696","0.0-6.0-2.4","","<div style=""font-size:60px;"">+</div>","null","","","","","","",""
"934.0999999977648","","image-keyboard-response","235","460631","0.0-6.0-0.5","","img/purple.png","32","trial","null","false","0.4,0.6","4:nogo_d","",""
"null","","html-keyboard-response","236","461632","0.0-6.0-1.5","","<img src=""img/purple-r.png"" border=""10"">","null","trial","null","","0.4,0.6","4:nogo_d","1",""
"null","","html-keyboard-response","237","462633","0.0-6.0-2.5","","<div style=""font-size:60px;"">+</div>","null","","","","","","",""
"null","","image-keyboard-response","238","464134","0.0-6.0-0.6","","img/yellow.png","null","trial","32","false","0.6,0.4","3:go_c","",""
"null","","html-keyboard-response","239","465135","0.0-6.0-1.6","","<img src=""img/yellow-n.png"">","null","trial","32","","0.6,0.4","3:go_c","0",""
"null","","html-keyboard-response","240","466136","0.0-6.0-2.6","","<div style=""font-size:60px;"">+</div>","null","","","","","","",""
"637.8999999985099","","image-keyboard-response","241","466775","0.0-6.0-0.7","","img/grey.png","32","trial","32","true","0.6,0.4","1:go_a","",""
"null","","html-keyboard-response","242","467776","0.0-6.0-1.7","","<img src=""img/grey-n.png"" border=""10"">","null","trial","32","","0.6,0.4","1:go_a","0",""
"null","","html-keyboard-response","243","468777","0.0-6.0-2.7","","<div style=""font-size:60px;"">+</div>","null","","","","","","",""
"484.5999999977648","","image-keyboard-response","244","469262","0.0-6.0-0.8","","img/purple.png","32","trial","null","false","0.4,0.6","4:nogo_d","",""
"null","","html-keyboard-response","245","470264","0.0-6.0-1.8","","<img src=""img/purple-r.png"" border=""10"">","null","trial","null","","0.4,0.6","4:nogo_d","1",""
"null","","html-keyboard-response","246","471264","0.0-6.0-2.8","","<div style=""font-size:60px;"">+</div>","null","","","","","","",""
"null","","image-keyboard-response","247","472765","0.0-6.0-0.9","","img/yellow.png","null","trial","32","false","0.6,0.4","3:go_c","",""
"null","","html-keyboard-response","248","473767","0.0-6.0-1.9","","<img src=""img/yellow-r.png"">","null","trial","32","","0.6,0.4","3:go_c","1",""
"null","","html-keyboard-response","249","474767","0.0-6.0-2.9","","<div style=""font-size:60px;"">+</div>","null","","","","","","",""
"638.2000000029802","","image-keyboard-response","250","475406","0.0-6.0-0.10","","img/grey.png","32","trial","32","true","0.6,0.4","1:go_a","",""
"null","","html-keyboard-response","251","476408","0.0-6.0-1.10","","<img src=""img/grey-r.png"" border=""10"">","null","trial","32","","0.6,0.4","1:go_a","1",""
"null","","html-keyboard-response","252","477409","0.0-6.0-2.10","","<div style=""font-size:60px;"">+</div>","null","","","","","","",""
"925","","image-keyboard-response","253","478335","0.0-6.0-0.11","","img/green.png","32","trial","null","false","0.4,0.6","2:nogo_b","",""
"null","","html-keyboard-response","254","479336","0.0-6.0-1.11","","<img src=""img/green-r.png"" border=""10"">","null","trial","null","","0.4,0.6","2:nogo_b","1",""
"null","","html-keyboard-response","255","480337","0.0-6.0-2.11","","<div style=""font-size:60px;"">+</div>","null","","","","","","",""
"884.7999999970198","","image-keyboard-response","256","481223","0.0-6.0-0.12","","img/green.png","32","trial","null","false","0.4,0.6","2:nogo_b","",""
"null","","html-keyboard-response","257","482224","0.0-6.0-1.12","","<img src=""img/green-n.png"" border=""10"">","null","trial","null","","0.4,0.6","2:nogo_b","0",""
"null","","html-keyboard-response","258","483225","0.0-6.0-2.12","","<div style=""font-size:60px;"">+</div>","null","","","","","","",""
"452.19999999925494","","image-keyboard-response","259","483678","0.0-6.0-0.13","","img/purple.png","32","trial","null","false","0.4,0.6","4:nogo_d","",""
"null","","html-keyboard-response","260","484680","0.0-6.0-1.13","","<img src=""img/purple-n.png"" border=""10"">","null","trial","null","","0.4,0.6","4:nogo_d","0",""
"null","","html-keyboard-response","261","485680","0.0-6.0-2.13","","<div style=""font-size:60px;"">+</div>","null","","","","","","",""
"null","","image-keyboard-response","262","487181","0.0-6.0-0.14","","img/yellow.png","null","trial","32","false","0.6,0.4","3:go_c","",""
"null","","html-keyboard-response","263","488183","0.0-6.0-1.14","","<img src=""img/yellow-n.png"">","null","trial","32","","0.6,0.4","3:go_c","0",""
"null","","html-keyboard-response","264","489183","0.0-6.0-2.14","","<div style=""font-size:60px;"">+</div>","null","","","","","","",""
"630.4000000022352","","image-keyboard-response","265","489814","0.0-6.0-0.15","","img/grey.png","32","trial","32","true","0.6,0.4","1:go_a","",""
"null","","html-keyboard-response","266","490816","0.0-6.0-1.15","","<img src=""img/grey-n.png"" border=""10"">","null","trial","32","","0.6,0.4","1:go_a","0",""
"null","","html-keyboard-response","267","491817","0.0-6.0-2.15","","<div style=""font-size:60px;"">+</div>","null","","","","","","",""
"844.5999999977648","","image-keyboard-response","268","492663","0.0-6.0-0.16","","img/grey.png","32","trial","32","true","0.6,0.4","1:go_a","",""
"null","","html-keyboard-response","269","493664","0.0-6.0-1.16","","<img src=""img/grey-n.png"" border=""10"">","null","trial","32","","0.6,0.4","1:go_a","0",""
"null","","html-keyboard-response","270","494665","0.0-6.0-2.16","","<div style=""font-size:60px;"">+</div>","null","","","","","","",""
"820.8999999985099","","image-keyboard-response","271","495487","0.0-6.0-0.17","","img/green.png","32","trial","null","false","0.4,0.6","2:nogo_b","",""
"null","","html-keyboard-response","272","496488","0.0-6.0-1.17","","<img src=""img/green-r.png"" border=""10"">","null","trial","null","","0.4,0.6","2:nogo_b","1",""
"null","","html-keyboard-response","273","497489","0.0-6.0-2.17","","<div style=""font-size:60px;"">+</div>","null","","","","","","",""
"484.5","","image-keyboard-response","274","497974","0.0-6.0-0.18","","img/purple.png","32","trial","null","false","0.4,0.6","4:nogo_d","",""
"null","","html-keyboard-response","275","498976","0.0-6.0-1.18","","<img src=""img/purple-r.png"" border=""10"">","null","trial","null","","0.4,0.6","4:nogo_d","1",""
"null","","html-keyboard-response","276","499976","0.0-6.0-2.18","","<div style=""font-size:60px;"">+</div>","null","","","","","","",""
"null","","image-keyboard-response","277","501477","0.0-6.0-0.19","","img/yellow.png","null","trial","32","false","0.6,0.4","3:go_c","",""
"null","","html-keyboard-response","278","502479","0.0-6.0-1.19","","<img src=""img/yellow-n.png"">","null","trial","32","","0.6,0.4","3:go_c","0",""
"null","","html-keyboard-response","279","503480","0.0-6.0-2.19","","<div style=""font-size:60px;"">+</div>","null","","","","","","",""
"null","","image-keyboard-response","280","504981","0.0-6.0-0.20","","img/yellow.png","null","trial","32","false","0.6,0.4","3:go_c","",""
"null","","html-keyboard-response","281","505982","0.0-6.0-1.20","","<img src=""img/yellow-r.png"">","null","trial","32","","0.6,0.4","3:go_c","1",""
"null","","html-keyboard-response","282","506983","0.0-6.0-2.20","","<div style=""font-size:60px;"">+</div>","null","","","","","","",""
"1031.199999999255","","image-keyboard-response","283","508015","0.0-6.0-0.21","","img/purple.png","32","trial","null","false","0.4,0.6","4:nogo_d","",""
"null","","html-keyboard-response","284","509016","0.0-6.0-1.21","","<img src=""img/purple-r.png"" border=""10"">","null","trial","null","","0.4,0.6","4:nogo_d","1",""
"null","","html-keyboard-response","285","510017","0.0-6.0-2.21","","<div style=""font-size:60px;"">+</div>","null","","","","","","",""
"740.3999999985099","","image-keyboard-response","286","510758","0.0-6.0-0.22","","img/grey.png","32","trial","32","true","0.6,0.4","1:go_a","",""
"null","","html-keyboard-response","287","511760","0.0-6.0-1.22","","<img src=""img/grey-n.png"" border=""10"">","null","trial","32","","0.6,0.4","1:go_a","0",""
"null","","html-keyboard-response","288","512760","0.0-6.0-2.22","","<div style=""font-size:60px;"">+</div>","null","","","","","","",""
"685.3000000007451","","image-keyboard-response","289","513447","0.0-6.0-0.23","","img/green.png","32","trial","null","false","0.4,0.6","2:nogo_b","",""
"null","","html-keyboard-response","290","514448","0.0-6.0-1.23","","<img src=""img/green-n.png"" border=""10"">","null","trial","null","","0.4,0.6","2:nogo_b","0",""
"null","","html-keyboard-response","291","515449","0.0-6.0-2.23","","<div style=""font-size:60px;"">+</div>","null","","","","","","",""
"null","","image-keyboard-response","292","516950","0.0-6.0-0.24","","img/grey.png","null","trial","32","false","0.6,0.4","1:go_a","",""
"null","","html-keyboard-response","293","517951","0.0-6.0-1.24","","<img src=""img/grey-n.png"">","null","trial","32","","0.6,0.4","1:go_a","0",""
"null","","html-keyboard-response","294","518952","0.0-6.0-2.24","","<div style=""font-size:60px;"">+</div>","null","","","","","","",""
"476.9000000022352","","image-keyboard-response","295","519430","0.0-6.0-0.25","","img/purple.png","32","trial","null","false","0.4,0.6","4:nogo_d","",""
"null","","html-keyboard-response","296","520432","0.0-6.0-1.25","","<img src=""img/purple-n.png"" border=""10"">","null","trial","null","","0.4,0.6","4:nogo_d","0",""
"null","","html-keyboard-response","297","521433","0.0-6.0-2.25","","<div style=""font-size:60px;"">+</div>","null","","","","","","",""
"null","","image-keyboard-response","298","522934","0.0-6.0-0.26","","img/green.png","null","trial","null","true","0.4,0.6","2:nogo_b","",""
"null","","html-keyboard-response","299","523935","0.0-6.0-1.26","","<img src=""img/green-r.png"">","null","trial","null","","0.4,0.6","2:nogo_b","1",""
"null","","html-keyboard-response","300","524936","0.0-6.0-2.26","","<div style=""font-size:60px;"">+</div>","null","","","","","","",""
"893.6999999992549","","image-keyboard-response","301","525830","0.0-6.0-0.27","","img/yellow.png","32","trial","32","true","0.6,0.4","3:go_c","",""
"null","","html-keyboard-response","302","526832","0.0-6.0-1.27","","<img src=""img/yellow-r.png"" border=""10"">","null","trial","32","","0.6,0.4","3:go_c","1",""
"null","","html-keyboard-response","303","527833","0.0-6.0-2.27","","<div style=""font-size:60px;"">+</div>","null","","","","","","",""
"null","","image-keyboard-response","304","529334","0.0-6.0-0.28","","img/yellow.png","null","trial","32","false","0.6,0.4","3:go_c","",""
"null","","html-keyboard-response","305","530335","0.0-6.0-1.28","","<img src=""img/yellow-n.png"">","null","trial","32","","0.6,0.4","3:go_c","0",""
"null","","html-keyboard-response","306","531336","0.0-6.0-2.28","","<div style=""font-size:60px;"">+</div>","null","","","","","","",""
"741.9000000022352","","image-keyboard-response","307","532079","0.0-6.0-0.29","","img/grey.png","32","trial","32","true","0.6,0.4","1:go_a","",""
"null","","html-keyboard-response","308","533080","0.0-6.0-1.29","","<img src=""img/grey-r.png"" border=""10"">","null","trial","32","","0.6,0.4","1:go_a","1",""
"null","","html-keyboard-response","309","534081","0.0-6.0-2.29","","<div style=""font-size:60px;"">+</div>","null","","","","","","",""
"668.3999999985099","","image-keyboard-response","310","534750","0.0-6.0-0.30","","img/purple.png","32","trial","null","false","0.4,0.6","4:nogo_d","",""
"null","","html-keyboard-response","311","535752","0.0-6.0-1.30","","<img src=""img/purple-n.png"" border=""10"">","null","trial","null","","0.4,0.6","4:nogo_d","0",""
"null","","html-keyboard-response","312","536752","0.0-6.0-2.30","","<div style=""font-size:60px;"">+</div>","null","","","","","","",""
"null","","image-keyboard-response","313","538253","0.0-6.0-0.31","","img/green.png","null","trial","null","true","0.4,0.6","2:nogo_b","",""
"null","","html-keyboard-response","314","539255","0.0-6.0-1.31","","<img src=""img/green-r.png"">","null","trial","null","","0.4,0.6","2:nogo_b","1",""
"null","","html-keyboard-response","315","540256","0.0-6.0-2.31","","<div style=""font-size:60px;"">+</div>","null","","","","","","",""
"693.8999999985099","","image-keyboard-response","316","540950","0.0-6.0-0.32","","img/grey.png","32","trial","32","true","0.6,0.4","1:go_a","",""
"null","","html-keyboard-response","317","541952","0.0-6.0-1.32","","<img src=""img/grey-r.png"" border=""10"">","null","trial","32","","0.6,0.4","1:go_a","1",""
"null","","html-keyboard-response","318","542953","0.0-6.0-2.32","","<div style=""font-size:60px;"">+</div>","null","","","","","","",""
"1485","","image-keyboard-response","319","544439","0.0-6.0-0.33","","img/green.png","32","trial","null","false","0.4,0.6","2:nogo_b","",""
"null","","html-keyboard-response","320","545440","0.0-6.0-1.33","","<img src=""img/green-n.png"" border=""10"">","null","trial","null","","0.4,0.6","2:nogo_b","0",""
"null","","html-keyboard-response","321","546441","0.0-6.0-2.33","","<div style=""font-size:60px;"">+</div>","null","","","","","","",""
"484.5","","image-keyboard-response","322","546926","0.0-6.0-0.34","","img/purple.png","32","trial","null","false","0.4,0.6","4:nogo_d","",""
"null","","html-keyboard-response","323","547928","0.0-6.0-1.34","","<img src=""img/purple-n.png"" border=""10"">","null","trial","null","","0.4,0.6","4:nogo_d","0",""
"null","","html-keyboard-response","324","548928","0.0-6.0-2.34","","<div style=""font-size:60px;"">+</div>","null","","","","","","",""
"null","","image-keyboard-response","325","550429","0.0-6.0-0.35","","img/yellow.png","null","trial","32","false","0.6,0.4","3:go_c","",""
"null","","html-keyboard-response","326","551431","0.0-6.0-1.35","","<img src=""img/yellow-r.png"">","null","trial","32","","0.6,0.4","3:go_c","1",""
"null","","html-keyboard-response","327","552431","0.0-6.0-2.35","","<div style=""font-size:60px;"">+</div>","null","","","","","","",""
"null","","image-keyboard-response","328","553932","0.0-6.0-0.36","","img/grey.png","null","trial","32","false","0.6,0.4","1:go_a","",""
"null","","html-keyboard-response","329","554934","0.0-6.0-1.36","","<img src=""img/grey-r.png"">","null","trial","32","","0.6,0.4","1:go_a","1",""
"null","","html-keyboard-response","330","555934","0.0-6.0-2.36","","<div style=""font-size:60px;"">+</div>","null","","","","","","",""
"null","","image-keyboard-response","331","557435","0.0-6.0-0.37","","img/green.png","null","trial","null","true","0.4,0.6","2:nogo_b","",""
"null","","html-keyboard-response","332","558437","0.0-6.0-1.37","","<img src=""img/green-r.png"">","null","trial","null","","0.4,0.6","2:nogo_b","1",""
"null","","html-keyboard-response","333","559438","0.0-6.0-2.37","","<div style=""font-size:60px;"">+</div>","null","","","","","","",""
"440","","image-keyboard-response","334","559878","0.0-6.0-0.38","","img/purple.png","32","trial","null","false","0.4,0.6","4:nogo_d","",""
"null","","html-keyboard-response","335","560880","0.0-6.0-1.38","","<img src=""img/purple-r.png"" border=""10"">","null","trial","null","","0.4,0.6","4:nogo_d","1",""
"null","","html-keyboard-response","336","561881","0.0-6.0-2.38","","<div style=""font-size:60px;"">+</div>","null","","","","","","",""
"540.4000000022352","","image-keyboard-response","337","562422","0.0-6.0-0.39","","img/yellow.png","32","trial","32","true","0.6,0.4","3:go_c","",""
"null","","html-keyboard-response","338","563423","0.0-6.0-1.39","","<img src=""img/yellow-r.png"" border=""10"">","null","trial","32","","0.6,0.4","3:go_c","1",""
"null","","html-keyboard-response","339","564424","0.0-6.0-2.39","","<div style=""font-size:60px;"">+</div>","null","","","","","","",""
"557.3000000007451","","image-keyboard-response","340","564982","0.0-6.0-0.40","","img/green.png","32","trial","null","false","0.4,0.6","2:nogo_b","",""
"null","","html-keyboard-response","341","565984","0.0-6.0-1.40","","<img src=""img/green-n.png"" border=""10"">","null","trial","null","","0.4,0.6","2:nogo_b","0",""
"null","","html-keyboard-response","342","566985","0.0-6.0-2.40","","<div style=""font-size:60px;"">+</div>","null","","","","","","",""
"556.5999999977648","","image-keyboard-response","343","567542","0.0-6.0-0.41","","img/grey.png","32","trial","32","true","0.6,0.4","1:go_a","",""
"null","","html-keyboard-response","344","568544","0.0-6.0-1.41","","<img src=""img/grey-r.png"" border=""10"">","null","trial","32","","0.6,0.4","1:go_a","1",""
"null","","html-keyboard-response","345","569544","0.0-6.0-2.41","","<div style=""font-size:60px;"">+</div>","null","","","","","","",""
"830","","image-keyboard-response","346","570375","0.0-6.0-0.42","","img/yellow.png","32","trial","32","true","0.6,0.4","3:go_c","",""
"null","","html-keyboard-response","347","571377","0.0-6.0-1.42","","<img src=""img/yellow-r.png"" border=""10"">","null","trial","32","","0.6,0.4","3:go_c","1",""
"null","","html-keyboard-response","348","572377","0.0-6.0-2.42","","<div style=""font-size:60px;"">+</div>","null","","","","","","",""
"684.3000000007451","","image-keyboard-response","349","573062","0.0-6.0-0.43","","img/purple.png","32","trial","null","false","0.4,0.6","4:nogo_d","",""
"null","","html-keyboard-response","350","574064","0.0-6.0-1.43","","<img src=""img/purple-r.png"" border=""10"">","null","trial","null","","0.4,0.6","4:nogo_d","1",""
"null","","html-keyboard-response","351","575064","0.0-6.0-2.43","","<div style=""font-size:60px;"">+</div>","null","","","","","","",""
"1068.8999999985099","","image-keyboard-response","352","576134","0.0-6.0-0.44","","img/yellow.png","32","trial","32","true","0.6,0.4","3:go_c","",""
"null","","html-keyboard-response","353","577136","0.0-6.0-1.44","","<img src=""img/yellow-r.png"" border=""10"">","null","trial","32","","0.6,0.4","3:go_c","1",""
"null","","html-keyboard-response","354","578136","0.0-6.0-2.44","","<div style=""font-size:60px;"">+</div>","null","","","","","","",""
"645","","image-keyboard-response","355","578782","0.0-6.0-0.45","","img/green.png","32","trial","null","false","0.4,0.6","2:nogo_b","",""
"null","","html-keyboard-response","356","579784","0.0-6.0-1.45","","<img src=""img/green-r.png"" border=""10"">","null","trial","null","","0.4,0.6","2:nogo_b","1",""
"null","","html-keyboard-response","357","580785","0.0-6.0-2.45","","<div style=""font-size:60px;"">+</div>","null","","","","","","",""
"781.1999999992549","","image-keyboard-response","358","581567","0.0-6.0-0.46","","img/grey.png","32","trial","32","true","0.6,0.4","1:go_a","",""
"null","","html-keyboard-response","359","582568","0.0-6.0-1.46","","<img src=""img/grey-n.png"" border=""10"">","null","trial","32","","0.6,0.4","1:go_a","0",""
"null","","html-keyboard-response","360","583569","0.0-6.0-2.46","","<div style=""font-size:60px;"">+</div>","null","","","","","","",""
"692.3999999985099","","image-keyboard-response","361","584262","0.0-6.0-0.47","","img/purple.png","32","trial","null","false","0.4,0.6","4:nogo_d","",""
"null","","html-keyboard-response","362","585264","0.0-6.0-1.47","","<img src=""img/purple-n.png"" border=""10"">","null","trial","null","","0.4,0.6","4:nogo_d","0",""
"null","","html-keyboard-response","363","586265","0.0-6.0-2.47","","<div style=""font-size:60px;"">+</div>","null","","","","","","",""
"669","","image-keyboard-response","364","586934","0.0-6.0-0.48","","img/yellow.png","32","trial","32","true","0.6,0.4","3:go_c","",""
"null","","html-keyboard-response","365","587936","0.0-6.0-1.48","","<img src=""img/yellow-r.png"" border=""10"">","null","trial","32","","0.6,0.4","3:go_c","1",""
"null","","html-keyboard-response","366","588937","0.0-6.0-2.48","","<div style=""font-size:60px;"">+</div>","null","","","","","","",""
"null","","image-keyboard-response","367","590438","0.0-6.0-0.49","","img/grey.png","null","trial","32","false","0.6,0.4","1:go_a","",""
"null","","html-keyboard-response","368","591439","0.0-6.0-1.49","","<img src=""img/grey-n.png"">","null","trial","32","","0.6,0.4","1:go_a","0",""
"null","","html-keyboard-response","369","592440","0.0-6.0-2.49","","<div style=""font-size:60px;"">+</div>","null","","","","","","",""
"null","","image-keyboard-response","370","593941","0.0-6.0-0.50","","img/green.png","null","trial","null","true","0.4,0.6","2:nogo_b","",""
"null","","html-keyboard-response","371","594942","0.0-6.0-1.50","","<img src=""img/green-n.png"">","null","trial","null","","0.4,0.6","2:nogo_b","0",""
"null","","html-keyboard-response","372","595943","0.0-6.0-2.50","","<div style=""font-size:60px;"">+</div>","null","","","","","","",""
"null","","image-keyboard-response","373","597444","0.0-6.0-0.51","","img/purple.png","null","trial","null","true","0.4,0.6","4:nogo_d","",""
"null","","html-keyboard-response","374","598446","0.0-6.0-1.51","","<img src=""img/purple-r.png"">","null","trial","null","","0.4,0.6","4:nogo_d","1",""
"null","","html-keyboard-response","375","599446","0.0-6.0-2.51","","<div style=""font-size:60px;"">+</div>","null","","","","","","",""
"null","","image-keyboard-response","376","600947","0.0-6.0-0.52","","img/yellow.png","null","trial","32","false","0.6,0.4","3:go_c","",""
"null","","html-keyboard-response","377","601949","0.0-6.0-1.52","","<img src=""img/yellow-r.png"">","null","trial","32","","0.6,0.4","3:go_c","1",""
"null","","html-keyboard-response","378","602950","0.0-6.0-2.52","","<div style=""font-size:60px;"">+</div>","null","","","","","","",""
"495.8999999985099","","image-keyboard-response","379","603447","0.0-6.0-0.53","","img/green.png","32","trial","null","false","0.4,0.6","2:nogo_b","",""
"null","","html-keyboard-response","380","604448","0.0-6.0-1.53","","<img src=""img/green-n.png"" border=""10"">","null","trial","null","","0.4,0.6","2:nogo_b","0",""
"null","","html-keyboard-response","381","605449","0.0-6.0-2.53","","<div style=""font-size:60px;"">+</div>","null","","","","","","",""
"556.8000000007451","","image-keyboard-response","382","606006","0.0-6.0-0.54","","img/purple.png","32","trial","null","false","0.4,0.6","4:nogo_d","",""
"null","","html-keyboard-response","383","607008","0.0-6.0-1.54","","<img src=""img/purple-r.png"" border=""10"">","null","trial","null","","0.4,0.6","4:nogo_d","1",""
"null","","html-keyboard-response","384","608009","0.0-6.0-2.54","","<div style=""font-size:60px;"">+</div>","null","","","","","","",""
"null","","image-keyboard-response","385","609510","0.0-6.0-0.55","","img/grey.png","null","trial","32","false","0.6,0.4","1:go_a","",""
"null","","html-keyboard-response","386","610512","0.0-6.0-1.55","","<img src=""img/grey-n.png"">","null","trial","32","","0.6,0.4","1:go_a","0",""
"null","","html-keyboard-response","387","611513","0.0-6.0-2.55","","<div style=""font-size:60px;"">+</div>","null","","","","","","",""
"null","","image-keyboard-response","388","613014","0.0-6.0-0.56","","img/green.png","null","trial","null","true","0.4,0.6","2:nogo_b","",""
"null","","html-keyboard-response","389","614016","0.0-6.0-1.56","","<img src=""img/green-n.png"">","null","trial","null","","0.4,0.6","2:nogo_b","0",""
"null","","html-keyboard-response","390","615017","0.0-6.0-2.56","","<div style=""font-size:60px;"">+</div>","null","","","","","","",""
"948.8000000007451","","image-keyboard-response","391","615966","0.0-6.0-0.57","","img/purple.png","32","trial","null","false","0.4,0.6","4:nogo_d","",""
"null","","html-keyboard-response","392","616968","0.0-6.0-1.57","","<img src=""img/purple-n.png"" border=""10"">","null","trial","null","","0.4,0.6","4:nogo_d","0",""
"null","","html-keyboard-response","393","617970","0.0-6.0-2.57","","<div style=""font-size:60px;"">+</div>","null","","","","","","",""
"null","","image-keyboard-response","394","619471","0.0-6.0-0.58","","img/grey.png","null","trial","32","false","0.6,0.4","1:go_a","",""
"null","","html-keyboard-response","395","620473","0.0-6.0-1.58","","<img src=""img/grey-n.png"">","null","trial","32","","0.6,0.4","1:go_a","0",""
"null","","html-keyboard-response","396","621473","0.0-6.0-2.58","","<div style=""font-size:60px;"">+</div>","null","","","","","","",""
"null","","image-keyboard-response","397","622974","0.0-6.0-0.59","","img/yellow.png","null","trial","32","false","0.6,0.4","3:go_c","",""
"null","","html-keyboard-response","398","623976","0.0-6.0-1.59","","<img src=""img/yellow-n.png"">","null","trial","32","","0.6,0.4","3:go_c","0",""
"null","","html-keyboard-response","399","624977","0.0-6.0-2.59","","<div style=""font-size:60px;"">+</div>","null","","","","","","",""
"1341","","image-keyboard-response","400","626319","0.0-6.0-0.60","","img/yellow.png","32","trial","32","true","0.6,0.4","3:go_c","",""
"null","","html-keyboard-response","401","627320","0.0-6.0-1.60","","<img src=""img/yellow-r.png"" border=""10"">","null","trial","32","","0.6,0.4","3:go_c","1",""
"null","","html-keyboard-response","402","628321","0.0-6.0-2.60","","<div style=""font-size:60px;"">+</div>","null","","","","","","",""
"null","","image-keyboard-response","403","629822","0.0-6.0-0.61","","img/grey.png","null","trial","32","false","0.6,0.4","1:go_a","",""
"null","","html-keyboard-response","404","630824","0.0-6.0-1.61","","<img src=""img/grey-r.png"">","null","trial","32","","0.6,0.4","1:go_a","1",""
"null","","html-keyboard-response","405","631824","0.0-6.0-2.61","","<div style=""font-size:60px;"">+</div>","null","","","","","","",""
"1005","","image-keyboard-response","406","632830","0.0-6.0-0.62","","img/green.png","32","trial","null","false","0.4,0.6","2:nogo_b","",""
"null","","html-keyboard-response","407","633832","0.0-6.0-1.62","","<img src=""img/green-n.png"" border=""10"">","null","trial","null","","0.4,0.6","2:nogo_b","0",""
"null","","html-keyboard-response","408","634832","0.0-6.0-2.62","","<div style=""font-size:60px;"">+</div>","null","","","","","","",""
"541.1999999992549","","image-keyboard-response","409","635374","0.0-6.0-0.63","","img/purple.png","32","trial","null","false","0.4,0.6","4:nogo_d","",""
"null","","html-keyboard-response","410","636376","0.0-6.0-1.63","","<img src=""img/purple-r.png"" border=""10"">","null","trial","null","","0.4,0.6","4:nogo_d","1",""
"null","","html-keyboard-response","411","637377","0.0-6.0-2.63","","<div style=""font-size:60px;"">+</div>","null","","","","","","",""
"684.8999999985099","","image-keyboard-response","412","638063","0.0-6.0-0.64","","img/purple.png","32","trial","null","false","0.4,0.6","4:nogo_d","",""
"null","","html-keyboard-response","413","639064","0.0-6.0-1.64","","<img src=""img/purple-n.png"" border=""10"">","null","trial","null","","0.4,0.6","4:nogo_d","0",""
"null","","html-keyboard-response","414","640065","0.0-6.0-2.64","","<div style=""font-size:60px;"">+</div>","null","","","","","","",""
"820.8000000007451","","image-keyboard-response","415","640887","0.0-6.0-0.65","","img/yellow.png","32","trial","32","true","0.6,0.4","3:go_c","",""
"null","","html-keyboard-response","416","641888","0.0-6.0-1.65","","<img src=""img/yellow-r.png"" border=""10"">","null","trial","32","","0.6,0.4","3:go_c","1",""
"null","","html-keyboard-response","417","642889","0.0-6.0-2.65","","<div style=""font-size:60px;"">+</div>","null","","","","","","",""
"null","","image-keyboard-response","418","644390","0.0-6.0-0.66","","img/grey.png","null","trial","32","false","0.6,0.4","1:go_a","",""
"null","","html-keyboard-response","419","645392","0.0-6.0-1.66","","<img src=""img/grey-r.png"">","null","trial","32","","0.6,0.4","1:go_a","1",""
"null","","html-keyboard-response","420","646392","0.0-6.0-2.66","","<div style=""font-size:60px;"">+</div>","null","","","","","","",""
"796.8999999985099","","image-keyboard-response","421","647190","0.0-6.0-0.67","","img/green.png","32","trial","null","false","0.4,0.6","2:nogo_b","",""
"null","","html-keyboard-response","422","648192","0.0-6.0-1.67","","<img src=""img/green-r.png"" border=""10"">","null","trial","null","","0.4,0.6","2:nogo_b","1",""
"null","","html-keyboard-response","423","649192","0.0-6.0-2.67","","<div style=""font-size:60px;"">+</div>","null","","","","","","",""
"757.1999999992549","","image-keyboard-response","424","649951","0.0-6.0-0.68","","img/yellow.png","32","trial","32","true","0.6,0.4","3:go_c","",""
"null","","html-keyboard-response","425","650952","0.0-6.0-1.68","","<img src=""img/yellow-r.png"" border=""10"">","null","trial","32","","0.6,0.4","3:go_c","1",""
"null","","html-keyboard-response","426","651953","0.0-6.0-2.68","","<div style=""font-size:60px;"">+</div>","null","","","","","","",""
"null","","image-keyboard-response","427","653454","0.0-6.0-0.69","","img/grey.png","null","trial","32","false","0.6,0.4","1:go_a","",""
"null","","html-keyboard-response","428","654456","0.0-6.0-1.69","","<img src=""img/grey-n.png"">","null","trial","32","","0.6,0.4","1:go_a","0",""
"null","","html-keyboard-response","429","655457","0.0-6.0-2.69","","<div style=""font-size:60px;"">+</div>","null","","","","","","",""
"693","","image-keyboard-response","430","656151","0.0-6.0-0.70","","img/green.png","32","trial","null","false","0.4,0.6","2:nogo_b","",""
"null","","html-keyboard-response","431","657152","0.0-6.0-1.70","","<img src=""img/green-r.png"" border=""10"">","null","trial","null","","0.4,0.6","2:nogo_b","1",""
"null","","html-keyboard-response","432","658153","0.0-6.0-2.70","","<div style=""font-size:60px;"">+</div>","null","","","","","","",""
"828.8999999985099","","image-keyboard-response","433","658982","0.0-6.0-0.71","","img/purple.png","32","trial","null","false","0.4,0.6","4:nogo_d","",""
"null","","html-keyboard-response","434","659984","0.0-6.0-1.71","","<img src=""img/purple-n.png"" border=""10"">","null","trial","null","","0.4,0.6","4:nogo_d","0",""
"null","","html-keyboard-response","435","660985","0.0-6.0-2.71","","<div style=""font-size:60px;"">+</div>","null","","","","","","",""
"636.8999999985099","","image-keyboard-response","436","661623","0.0-6.0-0.72","","img/purple.png","32","trial","null","false","0.4,0.6","4:nogo_d","",""
"null","","html-keyboard-response","437","662624","0.0-6.0-1.72","","<img src=""img/purple-n.png"" border=""10"">","null","trial","null","","0.4,0.6","4:nogo_d","0",""
"null","","html-keyboard-response","438","663625","0.0-6.0-2.72","","<div style=""font-size:60px;"">+</div>","null","","","","","","",""
"1348.3999999985099","","image-keyboard-response","439","664974","0.0-6.0-0.73","","img/green.png","32","trial","null","false","0.4,0.6","2:nogo_b","",""
"null","","html-keyboard-response","440","665976","0.0-6.0-1.73","","<img src=""img/green-n.png"" border=""10"">","null","trial","null","","0.4,0.6","2:nogo_b","0",""
"null","","html-keyboard-response","441","666977","0.0-6.0-2.73","","<div style=""font-size:60px;"">+</div>","null","","","","","","",""
"null","","image-keyboard-response","442","668478","0.0-6.0-0.74","","img/yellow.png","null","trial","32","false","0.6,0.4","3:go_c","",""
"null","","html-keyboard-response","443","669479","0.0-6.0-1.74","","<img src=""img/yellow-n.png"">","null","trial","32","","0.6,0.4","3:go_c","0",""
"null","","html-keyboard-response","444","670479","0.0-6.0-2.74","","<div style=""font-size:60px;"">+</div>","null","","","","","","",""
"null","","image-keyboard-response","445","671981","0.0-6.0-0.75","","img/grey.png","null","trial","32","false","0.6,0.4","1:go_a","",""
"null","","html-keyboard-response","446","672982","0.0-6.0-1.75","","<img src=""img/grey-n.png"">","null","trial","32","","0.6,0.4","1:go_a","0",""
"null","","html-keyboard-response","447","673983","0.0-6.0-2.75","","<div style=""font-size:60px;"">+</div>","null","","","","","","",""
"934.3000000007451","","image-keyboard-response","448","674919","0.0-6.0-0.76","","img/green.png","32","trial","null","false","0.4,0.6","2:nogo_b","",""
"null","","html-keyboard-response","449","675920","0.0-6.0-1.76","","<img src=""img/green-n.png"" border=""10"">","null","trial","null","","0.4,0.6","2:nogo_b","0",""
"null","","html-keyboard-response","450","676921","0.0-6.0-2.76","","<div style=""font-size:60px;"">+</div>","null","","","","","","",""
"null","","image-keyboard-response","451","678422","0.0-6.0-0.77","","img/yellow.png","null","trial","32","false","0.6,0.4","3:go_c","",""
"null","","html-keyboard-response","452","679423","0.0-6.0-1.77","","<img src=""img/yellow-r.png"">","null","trial","32","","0.6,0.4","3:go_c","1",""
"null","","html-keyboard-response","453","680424","0.0-6.0-2.77","","<div style=""font-size:60px;"">+</div>","null","","","","","","",""
"517.0999999977648","","image-keyboard-response","454","680942","0.0-6.0-0.78","","img/purple.png","32","trial","null","false","0.4,0.6","4:nogo_d","",""
"null","","html-keyboard-response","455","681944","0.0-6.0-1.78","","<img src=""img/purple-n.png"" border=""10"">","null","trial","null","","0.4,0.6","4:nogo_d","0",""
"null","","html-keyboard-response","456","682945","0.0-6.0-2.78","","<div style=""font-size:60px;"">+</div>","null","","","","","","",""
"908.8000000007451","","image-keyboard-response","457","683854","0.0-6.0-0.79","","img/grey.png","32","trial","32","true","0.6,0.4","1:go_a","",""
"null","","html-keyboard-response","458","684856","0.0-6.0-1.79","","<img src=""img/grey-r.png"" border=""10"">","null","trial","32","","0.6,0.4","1:go_a","1",""
"null","","html-keyboard-response","459","685857","0.0-6.0-2.79","","<div style=""font-size:60px;"">+</div>","null","","","","","","",""
"789","","image-keyboard-response","460","686647","0.0-6.0-0.80","","img/yellow.png","32","trial","32","true","0.6,0.4","3:go_c","",""
"null","","html-keyboard-response","461","687648","0.0-6.0-1.80","","<img src=""img/yellow-n.png"" border=""10"">","null","trial","32","","0.6,0.4","3:go_c","0",""
"null","","html-keyboard-response","462","688649","0.0-6.0-2.80","","<div style=""font-size:60px;"">+</div>","null","","","","","","",""
"null","","image-keyboard-response","463","690150","0.0-6.0-0.81","","img/green.png","null","trial","null","true","0.4,0.6","2:nogo_b","",""
"null","","html-keyboard-response","464","691152","0.0-6.0-1.81","","<img src=""img/green-n.png"">","null","trial","null","","0.4,0.6","2:nogo_b","0",""
"null","","html-keyboard-response","465","692153","0.0-6.0-2.81","","<div style=""font-size:60px;"">+</div>","null","","","","","","",""
"445","","image-keyboard-response","466","692599","0.0-6.0-0.82","","img/purple.png","32","trial","null","false","0.4,0.6","4:nogo_d","",""
"null","","html-keyboard-response","467","693600","0.0-6.0-1.82","","<img src=""img/purple-r.png"" border=""10"">","null","trial","null","","0.4,0.6","4:nogo_d","1",""
"null","","html-keyboard-response","468","694601","0.0-6.0-2.82","","<div style=""font-size:60px;"">+</div>","null","","","","","","",""
"null","","image-keyboard-response","469","696102","0.0-6.0-0.83","","img/grey.png","null","trial","32","false","0.6,0.4","1:go_a","",""
"null","","html-keyboard-response","470","697103","0.0-6.0-1.83","","<img src=""img/grey-r.png"">","null","trial","32","","0.6,0.4","1:go_a","1",""
"null","","html-keyboard-response","471","698104","0.0-6.0-2.83","","<div style=""font-size:60px;"">+</div>","null","","","","","","",""
"837.6999999992549","","image-keyboard-response","472","698943","0.0-6.0-0.84","","img/purple.png","32","trial","null","false","0.4,0.6","4:nogo_d","",""
"null","","html-keyboard-response","473","699944","0.0-6.0-1.84","","<img src=""img/purple-r.png"" border=""10"">","null","trial","null","","0.4,0.6","4:nogo_d","1",""
"null","","html-keyboard-response","474","700945","0.0-6.0-2.84","","<div style=""font-size:60px;"">+</div>","null","","","","","","",""
"null","","image-keyboard-response","475","702446","0.0-6.0-0.85","","img/grey.png","null","trial","32","false","0.6,0.4","1:go_a","",""
"null","","html-keyboard-response","476","703447","0.0-6.0-1.85","","<img src=""img/grey-n.png"">","null","trial","32","","0.6,0.4","1:go_a","0",""
"null","","html-keyboard-response","477","704448","0.0-6.0-2.85","","<div style=""font-size:60px;"">+</div>","null","","","","","","",""
"1093.1000000014901","","image-keyboard-response","478","705542","0.0-6.0-0.86","","img/green.png","32","trial","null","false","0.4,0.6","2:nogo_b","",""
"null","","html-keyboard-response","479","706544","0.0-6.0-1.86","","<img src=""img/green-r.png"" border=""10"">","null","trial","null","","0.4,0.6","2:nogo_b","1",""
"null","","html-keyboard-response","480","707545","0.0-6.0-2.86","","<div style=""font-size:60px;"">+</div>","null","","","","","","",""
"null","","image-keyboard-response","481","709046","0.0-6.0-0.87","","img/yellow.png","null","trial","32","false","0.6,0.4","3:go_c","",""
"null","","html-keyboard-response","482","710047","0.0-6.0-1.87","","<img src=""img/yellow-n.png"">","null","trial","32","","0.6,0.4","3:go_c","0",""
"null","","html-keyboard-response","483","711048","0.0-6.0-2.87","","<div style=""font-size:60px;"">+</div>","null","","","","","","",""
"773.7999999970198","","image-keyboard-response","484","711823","0.0-6.0-0.88","","img/green.png","32","trial","null","false","0.4,0.6","2:nogo_b","",""
"null","","html-keyboard-response","485","712824","0.0-6.0-1.88","","<img src=""img/green-n.png"" border=""10"">","null","trial","null","","0.4,0.6","2:nogo_b","0",""
"null","","html-keyboard-response","486","713825","0.0-6.0-2.88","","<div style=""font-size:60px;"">+</div>","null","","","","","","",""
"748.4000000022352","","image-keyboard-response","487","714574","0.0-6.0-0.89","","img/grey.png","32","trial","32","true","0.6,0.4","1:go_a","",""
"null","","html-keyboard-response","488","715576","0.0-6.0-1.89","","<img src=""img/grey-r.png"" border=""10"">","null","trial","32","","0.6,0.4","1:go_a","1",""
"null","","html-keyboard-response","489","716577","0.0-6.0-2.89","","<div style=""font-size:60px;"">+</div>","null","","","","","","",""
"null","","image-keyboard-response","490","718078","0.0-6.0-0.90","","img/purple.png","null","trial","null","true","0.4,0.6","4:nogo_d","",""
"null","","html-keyboard-response","491","719079","0.0-6.0-1.90","","<img src=""img/purple-r.png"">","null","trial","null","","0.4,0.6","4:nogo_d","1",""
"null","","html-keyboard-response","492","720080","0.0-6.0-2.90","","<div style=""font-size:60px;"">+</div>","null","","","","","","",""
"653.6999999992549","","image-keyboard-response","493","720735","0.0-6.0-0.91","","img/yellow.png","32","trial","32","true","0.6,0.4","3:go_c","",""
"null","","html-keyboard-response","494","721736","0.0-6.0-1.91","","<img src=""img/yellow-n.png"" border=""10"">","null","trial","32","","0.6,0.4","3:go_c","0",""
"null","","html-keyboard-response","495","722737","0.0-6.0-2.91","","<div style=""font-size:60px;"">+</div>","null","","","","","","",""
"null","","image-keyboard-response","496","724238","0.0-6.0-0.92","","img/grey.png","null","trial","32","false","0.6,0.4","1:go_a","",""
"null","","html-keyboard-response","497","725240","0.0-6.0-1.92","","<img src=""img/grey-n.png"">","null","trial","32","","0.6,0.4","1:go_a","0",""
"null","","html-keyboard-response","498","726240","0.0-6.0-2.92","","<div style=""font-size:60px;"">+</div>","null","","","","","","",""
"null","","image-keyboard-response","499","727742","0.0-6.0-0.93","","img/yellow.png","null","trial","32","false","0.6,0.4","3:go_c","",""
"null","","html-keyboard-response","500","728743","0.0-6.0-1.93","","<img src=""img/yellow-n.png"">","null","trial","32","","0.6,0.4","3:go_c","0",""
"null","","html-keyboard-response","501","729744","0.0-6.0-2.93","","<div style=""font-size:60px;"">+</div>","null","","","","","","",""
"685.6000000014901","","image-keyboard-response","502","730431","0.0-6.0-0.94","","img/green.png","32","trial","null","false","0.4,0.6","2:nogo_b","",""
"null","","html-keyboard-response","503","731432","0.0-6.0-1.94","","<img src=""img/green-n.png"" border=""10"">","null","trial","null","","0.4,0.6","2:nogo_b","0",""
"null","","html-keyboard-response","504","732433","0.0-6.0-2.94","","<div style=""font-size:60px;"">+</div>","null","","","","","","",""
"null","","image-keyboard-response","505","733934","0.0-6.0-0.95","","img/purple.png","null","trial","null","true","0.4,0.6","4:nogo_d","",""
"null","","html-keyboard-response","506","734936","0.0-6.0-1.95","","<img src=""img/purple-r.png"">","null","trial","null","","0.4,0.6","4:nogo_d","1",""
"null","","html-keyboard-response","507","735936","0.0-6.0-2.95","","<div style=""font-size:60px;"">+</div>","null","","","","","","",""
"null","","image-keyboard-response","508","737438","0.0-6.0-0.96","","img/green.png","null","trial","null","true","0.4,0.6","2:nogo_b","",""
"null","","html-keyboard-response","509","738439","0.0-6.0-1.96","","<img src=""img/green-r.png"">","null","trial","null","","0.4,0.6","2:nogo_b","1",""
"null","","html-keyboard-response","510","739440","0.0-6.0-2.96","","<div style=""font-size:60px;"">+</div>","null","","","","","","",""
"405.69999999925494","","image-keyboard-response","511","739846","0.0-6.0-0.97","","img/purple.png","32","trial","null","false","0.4,0.6","4:nogo_d","",""
"null","","html-keyboard-response","512","740848","0.0-6.0-1.97","","<img src=""img/purple-r.png"" border=""10"">","null","trial","null","","0.4,0.6","4:nogo_d","1",""
"null","","html-keyboard-response","513","741849","0.0-6.0-2.97","","<div style=""font-size:60px;"">+</div>","null","","","","","","",""
"null","","image-keyboard-response","514","743350","0.0-6.0-0.98","","img/yellow.png","null","trial","32","false","0.6,0.4","3:go_c","",""
"null","","html-keyboard-response","515","744351","0.0-6.0-1.98","","<img src=""img/yellow-n.png"">","null","trial","32","","0.6,0.4","3:go_c","0",""
"null","","html-keyboard-response","516","745352","0.0-6.0-2.98","","<div style=""font-size:60px;"">+</div>","null","","","","","","",""
"765.7999999970198","","image-keyboard-response","517","746119","0.0-6.0-0.99","","img/grey.png","32","trial","32","true","0.6,0.4","1:go_a","",""
"null","","html-keyboard-response","518","747120","0.0-6.0-1.99","","<img src=""img/grey-n.png"" border=""10"">","null","trial","32","","0.6,0.4","1:go_a","0",""
"null","","html-keyboard-response","519","748121","0.0-6.0-2.99","","<div style=""font-size:60px;"">+</div>","null","","","","","","",""
"764.5","","image-keyboard-response","520","748886","0.0-6.0-0.100","","img/green.png","32","trial","null","false","0.4,0.6","2:nogo_b","",""
"null","","html-keyboard-response","521","749888","0.0-6.0-1.100","","<img src=""img/green-r.png"" border=""10"">","null","trial","null","","0.4,0.6","2:nogo_b","1",""
"null","","html-keyboard-response","522","750889","0.0-6.0-2.100","","<div style=""font-size:60px;"">+</div>","null","","","","","","",""
"null","","image-keyboard-response","523","752390","0.0-6.0-0.101","","img/yellow.png","null","trial","32","false","0.6,0.4","3:go_c","",""
"null","","html-keyboard-response","524","753392","0.0-6.0-1.101","","<img src=""img/yellow-r.png"">","null","trial","32","","0.6,0.4","3:go_c","1",""
"null","","html-keyboard-response","525","754393","0.0-6.0-2.101","","<div style=""font-size:60px;"">+</div>","null","","","","","","",""
"893.1000000014901","","image-keyboard-response","526","755287","0.0-6.0-0.102","","img/purple.png","32","trial","null","false","0.4,0.6","4:nogo_d","",""
"null","","html-keyboard-response","527","756288","0.0-6.0-1.102","","<img src=""img/purple-n.png"" border=""10"">","null","trial","null","","0.4,0.6","4:nogo_d","0",""
"null","","html-keyboard-response","528","757289","0.0-6.0-2.102","","<div style=""font-size:60px;"">+</div>","null","","","","","","",""
"null","","image-keyboard-response","529","758790","0.0-6.0-0.103","","img/grey.png","null","trial","32","false","0.6,0.4","1:go_a","",""
"null","","html-keyboard-response","530","759791","0.0-6.0-1.103","","<img src=""img/grey-r.png"">","null","trial","32","","0.6,0.4","1:go_a","1",""
"null","","html-keyboard-response","531","760792","0.0-6.0-2.103","","<div style=""font-size:60px;"">+</div>","null","","","","","","",""
"845.7999999970198","","image-keyboard-response","532","761639","0.0-6.0-0.104","","img/green.png","32","trial","null","false","0.4,0.6","2:nogo_b","",""
"null","","html-keyboard-response","533","762640","0.0-6.0-1.104","","<img src=""img/green-r.png"" border=""10"">","null","trial","null","","0.4,0.6","2:nogo_b","1",""
"null","","html-keyboard-response","534","763641","0.0-6.0-2.104","","<div style=""font-size:60px;"">+</div>","null","","","","","","",""
"900.5","","image-keyboard-response","535","764542","0.0-6.0-0.105","","img/grey.png","32","trial","32","true","0.6,0.4","1:go_a","",""
"null","","html-keyboard-response","536","765544","0.0-6.0-1.105","","<img src=""img/grey-r.png"" border=""10"">","null","trial","32","","0.6,0.4","1:go_a","1",""
"null","","html-keyboard-response","537","766545","0.0-6.0-2.105","","<div style=""font-size:60px;"">+</div>","null","","","","","","",""
"916.8000000007451","","image-keyboard-response","538","767462","0.0-6.0-0.106","","img/yellow.png","32","trial","32","true","0.6,0.4","3:go_c","",""
"null","","html-keyboard-response","539","768464","0.0-6.0-1.106","","<img src=""img/yellow-r.png"" border=""10"">","null","trial","32","","0.6,0.4","3:go_c","1",""
"null","","html-keyboard-response","540","769465","0.0-6.0-2.106","","<div style=""font-size:60px;"">+</div>","null","","","","","","",""
"813","","image-keyboard-response","541","770279","0.0-6.0-0.107","","img/purple.png","32","trial","null","false","0.4,0.6","4:nogo_d","",""
"null","","html-keyboard-response","542","771280","0.0-6.0-1.107","","<img src=""img/purple-n.png"" border=""10"">","null","trial","null","","0.4,0.6","4:nogo_d","0",""
"null","","html-keyboard-response","543","772281","0.0-6.0-2.107","","<div style=""font-size:60px;"">+</div>","null","","","","","","",""
"null","","image-keyboard-response","544","773782","0.0-6.0-0.108","","img/green.png","null","trial","null","true","0.4,0.6","2:nogo_b","",""
"null","","html-keyboard-response","545","774784","0.0-6.0-1.108","","<img src=""img/green-n.png"">","null","trial","null","","0.4,0.6","2:nogo_b","0",""
"null","","html-keyboard-response","546","775784","0.0-6.0-2.108","","<div style=""font-size:60px;"">+</div>","null","","","","","","",""
"null","","image-keyboard-response","547","777285","0.0-6.0-0.109","","img/grey.png","null","trial","32","false","0.6,0.4","1:go_a","",""
"null","","html-keyboard-response","548","778287","0.0-6.0-1.109","","<img src=""img/grey-n.png"">","null","trial","32","","0.6,0.4","1:go_a","0",""
"null","","html-keyboard-response","549","779287","0.0-6.0-2.109","","<div style=""font-size:60px;"">+</div>","null","","","","","","",""
"null","","image-keyboard-response","550","780789","0.0-6.0-0.110","","img/yellow.png","null","trial","32","false","0.6,0.4","3:go_c","",""
"null","","html-keyboard-response","551","781790","0.0-6.0-1.110","","<img src=""img/yellow-n.png"">","null","trial","32","","0.6,0.4","3:go_c","0",""
"null","","html-keyboard-response","552","782791","0.0-6.0-2.110","","<div style=""font-size:60px;"">+</div>","null","","","","","","",""
"815","","image-keyboard-response","553","783607","0.0-6.0-0.111","","img/purple.png","32","trial","null","false","0.4,0.6","4:nogo_d","",""
"null","","html-keyboard-response","554","784608","0.0-6.0-1.111","","<img src=""img/purple-n.png"" border=""10"">","null","trial","null","","0.4,0.6","4:nogo_d","0",""
"null","","html-keyboard-response","555","785609","0.0-6.0-2.111","","<div style=""font-size:60px;"">+</div>","null","","","","","","",""
"812.3000000007451","","image-keyboard-response","556","786423","0.0-6.0-0.112","","img/green.png","32","trial","null","false","0.4,0.6","2:nogo_b","",""
"null","","html-keyboard-response","557","787424","0.0-6.0-1.112","","<img src=""img/green-r.png"" border=""10"">","null","trial","null","","0.4,0.6","2:nogo_b","1",""
"null","","html-keyboard-response","558","788425","0.0-6.0-2.112","","<div style=""font-size:60px;"">+</div>","null","","","","","","",""
"596.6999999992549","","image-keyboard-response","559","789023","0.0-6.0-0.113","","img/yellow.png","32","trial","32","true","0.6,0.4","3:go_c","",""
"null","","html-keyboard-response","560","790024","0.0-6.0-1.113","","<img src=""img/yellow-n.png"" border=""10"">","null","trial","32","","0.6,0.4","3:go_c","0",""
"null","","html-keyboard-response","561","791025","0.0-6.0-2.113","","<div style=""font-size:60px;"">+</div>","null","","","","","","",""
"716.5","","image-keyboard-response","562","791742","0.0-6.0-0.114","","img/grey.png","32","trial","32","true","0.6,0.4","1:go_a","",""
"null","","html-keyboard-response","563","792744","0.0-6.0-1.114","","<img src=""img/grey-n.png"" border=""10"">","null","trial","32","","0.6,0.4","1:go_a","0",""
"null","","html-keyboard-response","564","793745","0.0-6.0-2.114","","<div style=""font-size:60px;"">+</div>","null","","","","","","",""
"733.4000000022352","","image-keyboard-response","565","794479","0.0-6.0-0.115","","img/purple.png","32","trial","null","false","0.4,0.6","4:nogo_d","",""
"null","","html-keyboard-response","566","795481","0.0-6.0-1.115","","<img src=""img/purple-n.png"" border=""10"">","null","trial","null","","0.4,0.6","4:nogo_d","0",""
"null","","html-keyboard-response","567","796483","0.0-6.0-2.115","","<div style=""font-size:60px;"">+</div>","null","","","","","","",""
"531","","image-keyboard-response","568","797015","0.0-6.0-0.116","","img/purple.png","32","trial","null","false","0.4,0.6","4:nogo_d","",""
"null","","html-keyboard-response","569","798016","0.0-6.0-1.116","","<img src=""img/purple-n.png"" border=""10"">","null","trial","null","","0.4,0.6","4:nogo_d","0",""
"null","","html-keyboard-response","570","799017","0.0-6.0-2.116","","<div style=""font-size:60px;"">+</div>","null","","","","","","",""
"556.5999999977648","","image-keyboard-response","571","799575","0.0-6.0-0.117","","img/green.png","32","trial","null","false","0.4,0.6","2:nogo_b","",""
"null","","html-keyboard-response","572","800576","0.0-6.0-1.117","","<img src=""img/green-n.png"" border=""10"">","null","trial","null","","0.4,0.6","2:nogo_b","0",""
"null","","html-keyboard-response","573","801578","0.0-6.0-2.117","","<div style=""font-size:60px;"">+</div>","null","","","","","","",""
"null","","image-keyboard-response","574","803079","0.0-6.0-0.118","","img/yellow.png","null","trial","32","false","0.6,0.4","3:go_c","",""
"null","","html-keyboard-response","575","804080","0.0-6.0-1.118","","<img src=""img/yellow-n.png"">","null","trial","32","","0.6,0.4","3:go_c","0",""
"null","","html-keyboard-response","576","805081","0.0-6.0-2.118","","<div style=""font-size:60px;"">+</div>","null","","","","","","",""
"null","","image-keyboard-response","577","806582","0.0-6.0-0.119","","img/grey.png","null","trial","32","false","0.6,0.4","1:go_a","",""
"null","","html-keyboard-response","578","807584","0.0-6.0-1.119","","<img src=""img/grey-n.png"">","null","trial","32","","0.6,0.4","1:go_a","0",""
"null","","html-keyboard-response","579","808584","0.0-6.0-2.119","","<div style=""font-size:60px;"">+</div>","null","","","","","","",""
"17382.60000000149","","instructions","580","825968","0.0-7.0","[{""page_index"":0,""viewing_time"":17382.400000002235}]","","","","","","","","",""
"789.1000000014901","","image-keyboard-response","581","826758","0.0-8.0-0.0","","img/orange.png","32","trial","32","true","0.8,0.2","1:go_a","",""
"null","","html-keyboard-response","582","827760","0.0-8.0-1.0","","<img src=""img/orange-r.png"" border=""10"">","null","trial","32","","0.8,0.2","1:go_a","1",""
"null","","html-keyboard-response","583","828761","0.0-8.0-2.0","","<div style=""font-size:60px;"">+</div>","null","","","","","","",""
"620.8000000007451","","image-keyboard-response","584","829383","0.0-8.0-0.1","","img/grey.png","32","trial","null","false","0.2,0.8","2:nogo_b","",""
"null","","html-keyboard-response","585","830384","0.0-8.0-1.1","","<img src=""img/grey-n.png"" border=""10"">","null","trial","null","","0.2,0.8","2:nogo_b","0",""
"null","","html-keyboard-response","586","831385","0.0-8.0-2.1","","<div style=""font-size:60px;"">+</div>","null","","","","","","",""
"756.6999999992549","","image-keyboard-response","587","832143","0.0-8.0-0.2","","img/pink.png","32","trial","null","false","0.4,0.6","4:nogo_d","",""
"null","","html-keyboard-response","588","833144","0.0-8.0-1.2","","<img src=""img/pink-n.png"" border=""10"">","null","trial","null","","0.4,0.6","4:nogo_d","0",""
"null","","html-keyboard-response","589","834145","0.0-8.0-2.2","","<div style=""font-size:60px;"">+</div>","null","","","","","","",""
"644.6999999992549","","image-keyboard-response","590","834791","0.0-8.0-0.3","","img/purple.png","32","trial","32","true","0.6,0.4","3:go_c","",""
"null","","html-keyboard-response","591","835792","0.0-8.0-1.3","","<img src=""img/purple-r.png"" border=""10"">","null","trial","32","","0.6,0.4","3:go_c","1",""
"null","","html-keyboard-response","592","836793","0.0-8.0-2.3","","<div style=""font-size:60px;"">+</div>","null","","","","","","",""
"652.8000000007451","","image-keyboard-response","593","837447","0.0-8.0-0.4","","img/pink.png","32","trial","null","false","0.4,0.6","4:nogo_d","",""
"null","","html-keyboard-response","594","838448","0.0-8.0-1.4","","<img src=""img/pink-r.png"" border=""10"">","null","trial","null","","0.4,0.6","4:nogo_d","1",""
"null","","html-keyboard-response","595","839449","0.0-8.0-2.4","","<div style=""font-size:60px;"">+</div>","null","","","","","","",""
"820.3999999985099","","image-keyboard-response","596","840271","0.0-8.0-0.5","","img/orange.png","32","trial","32","true","0.8,0.2","1:go_a","",""
"null","","html-keyboard-response","597","841272","0.0-8.0-1.5","","<img src=""img/orange-r.png"" border=""10"">","null","trial","32","","0.8,0.2","1:go_a","1",""
"null","","html-keyboard-response","598","842273","0.0-8.0-2.5","","<div style=""font-size:60px;"">+</div>","null","","","","","","",""
"836.6000000014901","","image-keyboard-response","599","843111","0.0-8.0-0.6","","img/purple.png","32","trial","32","true","0.6,0.4","3:go_c","",""
"null","","html-keyboard-response","600","844112","0.0-8.0-1.6","","<img src=""img/purple-r.png"" border=""10"">","null","trial","32","","0.6,0.4","3:go_c","1",""
"null","","html-keyboard-response","601","845113","0.0-8.0-2.6","","<div style=""font-size:60px;"">+</div>","null","","","","","","",""
"null","","image-keyboard-response","602","846614","0.0-8.0-0.7","","img/grey.png","null","trial","null","true","0.2,0.8","2:nogo_b","",""
"null","","html-keyboard-response","603","847615","0.0-8.0-1.7","","<img src=""img/grey-n.png"">","null","trial","null","","0.2,0.8","2:nogo_b","0",""
"null","","html-keyboard-response","604","848616","0.0-8.0-2.7","","<div style=""font-size:60px;"">+</div>","null","","","","","","",""
"null","","image-keyboard-response","605","850117","0.0-8.0-0.8","","img/grey.png","null","trial","null","true","0.2,0.8","2:nogo_b","",""
"null","","html-keyboard-response","606","851118","0.0-8.0-1.8","","<img src=""img/grey-n.png"">","null","trial","null","","0.2,0.8","2:nogo_b","0",""
"null","","html-keyboard-response","607","852119","0.0-8.0-2.8","","<div style=""font-size:60px;"">+</div>","null","","","","","","",""
"null","","image-keyboard-response","608","853620","0.0-8.0-0.9","","img/orange.png","null","trial","32","false","0.8,0.2","1:go_a","",""
"null","","html-keyboard-response","609","854622","0.0-8.0-1.9","","<img src=""img/orange-r.png"">","null","trial","32","","0.8,0.2","1:go_a","1",""
"null","","html-keyboard-response","610","855623","0.0-8.0-2.9","","<div style=""font-size:60px;"">+</div>","null","","","","","","",""
"711.5","","image-keyboard-response","611","856335","0.0-8.0-0.10","","img/purple.png","32","trial","32","true","0.6,0.4","3:go_c","",""
"null","","html-keyboard-response","612","857337","0.0-8.0-1.10","","<img src=""img/purple-n.png"" border=""10"">","null","trial","32","","0.6,0.4","3:go_c","0",""
"null","","html-keyboard-response","613","858338","0.0-8.0-2.10","","<div style=""font-size:60px;"">+</div>","null","","","","","","",""
"667.6000000014901","","image-keyboard-response","614","859007","0.0-8.0-0.11","","img/pink.png","32","trial","null","false","0.4,0.6","4:nogo_d","",""
"null","","html-keyboard-response","615","860008","0.0-8.0-1.11","","<img src=""img/pink-n.png"" border=""10"">","null","trial","null","","0.4,0.6","4:nogo_d","0",""
"null","","html-keyboard-response","616","861009","0.0-8.0-2.11","","<div style=""font-size:60px;"">+</div>","null","","","","","","",""
"708.6999999992549","","image-keyboard-response","617","861719","0.0-8.0-0.12","","img/purple.png","32","trial","32","true","0.6,0.4","3:go_c","",""
"null","","html-keyboard-response","618","862720","0.0-8.0-1.12","","<img src=""img/purple-n.png"" border=""10"">","null","trial","32","","0.6,0.4","3:go_c","0",""
"null","","html-keyboard-response","619","863721","0.0-8.0-2.12","","<div style=""font-size:60px;"">+</div>","null","","","","","","",""
"733.0999999977648","","image-keyboard-response","620","864455","0.0-8.0-0.13","","img/pink.png","32","trial","null","false","0.4,0.6","4:nogo_d","",""
"null","","html-keyboard-response","621","865456","0.0-8.0-1.13","","<img src=""img/pink-r.png"" border=""10"">","null","trial","null","","0.4,0.6","4:nogo_d","1",""
"null","","html-keyboard-response","622","866457","0.0-8.0-2.13","","<div style=""font-size:60px;"">+</div>","null","","","","","","",""
"773.1999999992549","","image-keyboard-response","623","867231","0.0-8.0-0.14","","img/grey.png","32","trial","null","false","0.2,0.8","2:nogo_b","",""
"null","","html-keyboard-response","624","868232","0.0-8.0-1.14","","<img src=""img/grey-n.png"" border=""10"">","null","trial","null","","0.2,0.8","2:nogo_b","0",""
"null","","html-keyboard-response","625","869233","0.0-8.0-2.14","","<div style=""font-size:60px;"">+</div>","null","","","","","","",""
"null","","image-keyboard-response","626","870735","0.0-8.0-0.15","","img/orange.png","null","trial","32","false","0.8,0.2","1:go_a","",""
"null","","html-keyboard-response","627","871736","0.0-8.0-1.15","","<img src=""img/orange-n.png"">","null","trial","32","","0.8,0.2","1:go_a","0",""
"null","","html-keyboard-response","628","872737","0.0-8.0-2.15","","<div style=""font-size:60px;"">+</div>","null","","","","","","",""
"836.8999999985099","","image-keyboard-response","629","873575","0.0-8.0-0.16","","img/purple.png","32","trial","32","true","0.6,0.4","3:go_c","",""
"null","","html-keyboard-response","630","874576","0.0-8.0-1.16","","<img src=""img/purple-n.png"" border=""10"">","null","trial","32","","0.6,0.4","3:go_c","0",""
"null","","html-keyboard-response","631","875577","0.0-8.0-2.16","","<div style=""font-size:60px;"">+</div>","null","","","","","","",""
"1012.6000000014901","","image-keyboard-response","632","876591","0.0-8.0-0.17","","img/grey.png","32","trial","null","false","0.2,0.8","2:nogo_b","",""
"null","","html-keyboard-response","633","877592","0.0-8.0-1.17","","<img src=""img/grey-n.png"" border=""10"">","null","trial","null","","0.2,0.8","2:nogo_b","0",""
"null","","html-keyboard-response","634","878593","0.0-8.0-2.17","","<div style=""font-size:60px;"">+</div>","null","","","","","","",""
"null","","image-keyboard-response","635","880094","0.0-8.0-0.18","","img/pink.png","null","trial","null","true","0.4,0.6","4:nogo_d","",""
"null","","html-keyboard-response","636","881096","0.0-8.0-1.18","","<img src=""img/pink-r.png"">","null","trial","null","","0.4,0.6","4:nogo_d","1",""
"null","","html-keyboard-response","637","882097","0.0-8.0-2.18","","<div style=""font-size:60px;"">+</div>","null","","","","","","",""
"645.3000000007451","","image-keyboard-response","638","882743","0.0-8.0-0.19","","img/orange.png","32","trial","32","true","0.8,0.2","1:go_a","",""
"null","","html-keyboard-response","639","883745","0.0-8.0-1.19","","<img src=""img/orange-r.png"" border=""10"">","null","trial","32","","0.8,0.2","1:go_a","1",""
"null","","html-keyboard-response","640","884745","0.0-8.0-2.19","","<div style=""font-size:60px;"">+</div>","null","","","","","","",""
"700.0999999977648","","image-keyboard-response","641","885447","0.0-8.0-0.20","","img/pink.png","32","trial","null","false","0.4,0.6","4:nogo_d","",""
"null","","html-keyboard-response","642","886448","0.0-8.0-1.20","","<img src=""img/pink-r.png"" border=""10"">","null","trial","null","","0.4,0.6","4:nogo_d","1",""
"null","","html-keyboard-response","643","887449","0.0-8.0-2.20","","<div style=""font-size:60px;"">+</div>","null","","","","","","",""
"732.6000000014901","","image-keyboard-response","644","888183","0.0-8.0-0.21","","img/purple.png","32","trial","32","true","0.6,0.4","3:go_c","",""
"null","","html-keyboard-response","645","889184","0.0-8.0-1.21","","<img src=""img/purple-r.png"" border=""10"">","null","trial","32","","0.6,0.4","3:go_c","1",""
"null","","html-keyboard-response","646","890185","0.0-8.0-2.21","","<div style=""font-size:60px;"">+</div>","null","","","","","","",""
"null","","image-keyboard-response","647","891686","0.0-8.0-0.22","","img/grey.png","null","trial","null","true","0.2,0.8","2:nogo_b","",""
"null","","html-keyboard-response","648","892688","0.0-8.0-1.22","","<img src=""img/grey-r.png"">","null","trial","null","","0.2,0.8","2:nogo_b","1",""
"null","","html-keyboard-response","649","893689","0.0-8.0-2.22","","<div style=""font-size:60px;"">+</div>","null","","","","","","",""
"null","","image-keyboard-response","650","895190","0.0-8.0-0.23","","img/orange.png","null","trial","32","false","0.8,0.2","1:go_a","",""
"null","","html-keyboard-response","651","896191","0.0-8.0-1.23","","<img src=""img/orange-n.png"">","null","trial","32","","0.8,0.2","1:go_a","0",""
"null","","html-keyboard-response","652","897192","0.0-8.0-2.23","","<div style=""font-size:60px;"">+</div>","null","","","","","","",""
"null","","image-keyboard-response","653","898693","0.0-8.0-0.24","","img/pink.png","null","trial","null","true","0.4,0.6","4:nogo_d","",""
"null","","html-keyboard-response","654","899694","0.0-8.0-1.24","","<img src=""img/pink-r.png"">","null","trial","null","","0.4,0.6","4:nogo_d","1",""
"null","","html-keyboard-response","655","900696","0.0-8.0-2.24","","<div style=""font-size:60px;"">+</div>","null","","","","","","",""
"null","","image-keyboard-response","656","902197","0.0-8.0-0.25","","img/grey.png","null","trial","null","true","0.2,0.8","2:nogo_b","",""
"null","","html-keyboard-response","657","903198","0.0-8.0-1.25","","<img src=""img/grey-r.png"">","null","trial","null","","0.2,0.8","2:nogo_b","1",""
"null","","html-keyboard-response","658","904199","0.0-8.0-2.25","","<div style=""font-size:60px;"">+</div>","null","","","","","","",""
"487","","image-keyboard-response","659","904687","0.0-8.0-0.26","","img/purple.png","32","trial","32","true","0.6,0.4","3:go_c","",""
"null","","html-keyboard-response","660","905689","0.0-8.0-1.26","","<img src=""img/purple-r.png"" border=""10"">","null","trial","32","","0.6,0.4","3:go_c","1",""
"null","","html-keyboard-response","661","906690","0.0-8.0-2.26","","<div style=""font-size:60px;"">+</div>","null","","","","","","",""
"660.1999999992549","","image-keyboard-response","662","907351","0.0-8.0-0.27","","img/orange.png","32","trial","32","true","0.8,0.2","1:go_a","",""
"null","","html-keyboard-response","663","908352","0.0-8.0-1.27","","<img src=""img/orange-r.png"" border=""10"">","null","trial","32","","0.8,0.2","1:go_a","1",""
"null","","html-keyboard-response","664","909353","0.0-8.0-2.27","","<div style=""font-size:60px;"">+</div>","null","","","","","","",""
"null","","image-keyboard-response","665","910855","0.0-8.0-0.28","","img/grey.png","null","trial","null","true","0.2,0.8","2:nogo_b","",""
"null","","html-keyboard-response","666","911856","0.0-8.0-1.28","","<img src=""img/grey-r.png"">","null","trial","null","","0.2,0.8","2:nogo_b","1",""
"null","","html-keyboard-response","667","912857","0.0-8.0-2.28","","<div style=""font-size:60px;"">+</div>","null","","","","","","",""
"837","","image-keyboard-response","668","913695","0.0-8.0-0.29","","img/orange.png","32","trial","32","true","0.8,0.2","1:go_a","",""
"null","","html-keyboard-response","669","914696","0.0-8.0-1.29","","<img src=""img/orange-r.png"" border=""10"">","null","trial","32","","0.8,0.2","1:go_a","1",""
"null","","html-keyboard-response","670","915697","0.0-8.0-2.29","","<div style=""font-size:60px;"">+</div>","null","","","","","","",""
"700.8999999985099","","image-keyboard-response","671","916399","0.0-8.0-0.30","","img/purple.png","32","trial","32","true","0.6,0.4","3:go_c","",""
"null","","html-keyboard-response","672","917401","0.0-8.0-1.30","","<img src=""img/purple-n.png"" border=""10"">","null","trial","32","","0.6,0.4","3:go_c","0",""
"null","","html-keyboard-response","673","918401","0.0-8.0-2.30","","<div style=""font-size:60px;"">+</div>","null","","","","","","",""
"null","","image-keyboard-response","674","919902","0.0-8.0-0.31","","img/pink.png","null","trial","null","true","0.4,0.6","4:nogo_d","",""
"null","","html-keyboard-response","675","920904","0.0-8.0-1.31","","<img src=""img/pink-r.png"">","null","trial","null","","0.4,0.6","4:nogo_d","1",""
"null","","html-keyboard-response","676","921905","0.0-8.0-2.31","","<div style=""font-size:60px;"">+</div>","null","","","","","","",""
"660.8000000007451","","image-keyboard-response","677","922567","0.0-8.0-0.32","","img/pink.png","32","trial","null","false","0.4,0.6","4:nogo_d","",""
