"rt","url","trial_type","trial_index","time_elapsed","internal_node_id","view_history","stimulus","key_press","test_part","correct_response","correct","use_rew","which_stim","reward","responses"
"4846.299999999814","consent.html","external-html","0","4916","0.0-0.0","","","","","","","","","",""
"2387637.000000001","","instructions","1","2392557","0.0-1.0","[{""page_index"":0,""viewing_time"":2282533.1000000006},{""page_index"":1,""viewing_time"":28211.599999999627},{""page_index"":2,""viewing_time"":9887.900000000373},{""page_index"":3,""viewing_time"":28189.599999999627},{""page_index"":4,""viewing_time"":16626.099999999627},{""page_index"":5,""viewing_time"":8273.900000000373},{""page_index"":6,""viewing_time"":13914.099999999627}]","","","","","","","","",""
"545.1999999992549","","image-keyboard-response","2","2393104","0.0-2.0-0.0","","img/test1.PNG","32","practice","32","true","","","",""
"null","","html-keyboard-response","3","2394115","0.0-2.0-1.0","","<img src=""img/test1-reward.PNG"" border=""10px; grey"">","null","","","","","","",""
"null","","html-keyboard-response","4","2395118","0.0-2.0-2.0","","<div style=""font-size:60px;"">+</div>","null","","","","","","",""
"null","","image-keyboard-response","5","2396628","0.0-2.0-0.1","","img/test2.PNG","null","practice","null","true","","","",""
"null","","html-keyboard-response","6","2397631","0.0-2.0-1.1","","<img src=""img/test2-reward.PNG"">","null","","","","","","",""
"null","","html-keyboard-response","7","2398642","0.0-2.0-2.1","","<div style=""font-size:60px;"">+</div>","null","","","","","","",""
"null","","image-keyboard-response","8","2400145","0.0-2.0-0.2","","img/test3.PNG","null","practice","null","true","","","",""
"null","","html-keyboard-response","9","2401155","0.0-2.0-1.2","","<img src=""img/test3-reward.PNG"">","null","","","","","","",""
"null","","html-keyboard-response","10","2402158","0.0-2.0-2.2","","<div style=""font-size:60px;"">+</div>","null","","","","","","",""
"480","","image-keyboard-response","11","2402639","0.0-2.0-0.3","","img/test1.PNG","32","practice","32","true","","","",""
"null","","html-keyboard-response","12","2403646","0.0-2.0-1.3","","<img src=""img/test1-reward.PNG"" border=""10px; grey"">","null","","","","","","",""
"null","","html-keyboard-response","13","2404648","0.0-2.0-2.3","","<div style=""font-size:60px;"">+</div>","null","","","","","","",""
"null","","image-keyboard-response","14","2406160","0.0-2.0-0.4","","img/test2.PNG","null","practice","null","true","","","",""
"null","","html-keyboard-response","15","2407164","0.0-2.0-1.4","","<img src=""img/test2-reward.PNG"">","null","","","","","","",""
"null","","html-keyboard-response","16","2408168","0.0-2.0-2.4","","<div style=""font-size:60px;"">+</div>","null","","","","","","",""
"null","","image-keyboard-response","17","2409676","0.0-2.0-0.5","","img/test3.PNG","null","practice","null","true","","","",""
"null","","html-keyboard-response","18","2410684","0.0-2.0-1.5","","<img src=""img/test3-reward.PNG"">","null","","","","","","",""
"null","","html-keyboard-response","19","2411687","0.0-2.0-2.5","","<div style=""font-size:60px;"">+</div>","null","","","","","","",""
"null","","image-keyboard-response","20","2413190","0.0-2.0-0.6","","img/test3.PNG","null","practice","null","true","","","",""
"null","","html-keyboard-response","21","2414198","0.0-2.0-1.6","","<img src=""img/test3-reward.PNG"">","null","","","","","","",""
"null","","html-keyboard-response","22","2415213","0.0-2.0-2.6","","<div style=""font-size:60px;"">+</div>","null","","","","","","",""
"434","","image-keyboard-response","23","2415648","0.0-2.0-0.7","","img/test1.PNG","32","practice","32","true","","","",""
"null","","html-keyboard-response","24","2416664","0.0-2.0-1.7","","<img src=""img/test1-reward.PNG"" border=""10px; grey"">","null","","","","","","",""
"null","","html-keyboard-response","25","2417680","0.0-2.0-2.7","","<div style=""font-size:60px;"">+</div>","null","","","","","","",""
"null","","image-keyboard-response","26","2419193","0.0-2.0-0.8","","img/test2.PNG","null","practice","null","true","","","",""
"null","","html-keyboard-response","27","2420195","0.0-2.0-1.8","","<img src=""img/test2-reward.PNG"">","null","","","","","","",""
"null","","html-keyboard-response","28","2421203","0.0-2.0-2.8","","<div style=""font-size:60px;"">+</div>","null","","","","","","",""
"507.6000000014901","","image-keyboard-response","29","2421711","0.0-2.0-0.9","","img/test1.PNG","32","practice","32","true","","","",""
"null","","html-keyboard-response","30","2422715","0.0-2.0-1.9","","<img src=""img/test1-reward.PNG"" border=""10px; grey"">","null","","","","","","",""
"null","","html-keyboard-response","31","2423718","0.0-2.0-2.9","","<div style=""font-size:60px;"">+</div>","null","","","","","","",""
"null","","image-keyboard-response","32","2425224","0.0-2.0-0.10","","img/test3.PNG","null","practice","null","true","","","",""
"null","","html-keyboard-response","33","2426228","0.0-2.0-1.10","","<img src=""img/test3-reward.PNG"">","null","","","","","","",""
"null","","html-keyboard-response","34","2427234","0.0-2.0-2.10","","<div style=""font-size:60px;"">+</div>","null","","","","","","",""
"null","","image-keyboard-response","35","2428745","0.0-2.0-0.11","","img/test2.PNG","null","practice","null","true","","","",""
"null","","html-keyboard-response","36","2429753","0.0-2.0-1.11","","<img src=""img/test2-reward.PNG"">","null","","","","","","",""
"null","","html-keyboard-response","37","2430757","0.0-2.0-2.11","","<div style=""font-size:60px;"">+</div>","null","","","","","","",""
"3303.5999999996275","","instructions","38","2434061","0.0-3.0","[{""page_index"":0,""viewing_time"":3303.2999999988824}]","","","","","","","","",""
"872.9000000003725","","image-keyboard-response","39","2434936","0.0-4.0-0.0","","img/orange.png","32","trial","32","true","0.8,0.2","1:go_a","",""
"null","","html-keyboard-response","40","2435947","0.0-4.0-1.0","","<img src=""img/orange-r.png"" border=""10"">","null","trial","32","","0.8,0.2","1:go_a","1",""
"null","","html-keyboard-response","41","2436950","0.0-4.0-2.0","","<div style=""font-size:60px;"">+</div>","null","","","","","","",""
"776.9000000003725","","image-keyboard-response","42","2437727","0.0-4.0-0.1","","img/grey.png","32","trial","null","false","0.2,0.8","2:nogo_b","",""
"null","","html-keyboard-response","43","2438743","0.0-4.0-1.1","","<img src=""img/grey-r.png"" border=""10"">","null","trial","null","","0.2,0.8","2:nogo_b","1",""
"null","","html-keyboard-response","44","2439748","0.0-4.0-2.1","","<div style=""font-size:60px;"">+</div>","null","","","","","","",""
"602.4000000003725","","image-keyboard-response","45","2440351","0.0-4.0-0.2","","img/orange.png","32","trial","32","true","0.8,0.2","1:go_a","",""
"null","","html-keyboard-response","46","2441368","0.0-4.0-1.2","","<img src=""img/orange-r.png"" border=""10"">","null","trial","32","","0.8,0.2","1:go_a","1",""
"null","","html-keyboard-response","47","2442372","0.0-4.0-2.2","","<div style=""font-size:60px;"">+</div>","null","","","","","","",""
"562.5999999996275","","image-keyboard-response","48","2442935","0.0-4.0-0.3","","img/grey.png","32","trial","null","false","0.2,0.8","2:nogo_b","",""
"null","","html-keyboard-response","49","2443949","0.0-4.0-1.3","","<img src=""img/grey-r.png"" border=""10"">","null","trial","null","","0.2,0.8","2:nogo_b","1",""
"null","","html-keyboard-response","50","2444955","0.0-4.0-2.3","","<div style=""font-size:60px;"">+</div>","null","","","","","","",""
"524","","image-keyboard-response","51","2445479","0.0-4.0-0.4","","img/grey.png","32","trial","null","false","0.2,0.8","2:nogo_b","",""
"null","","html-keyboard-response","52","2446488","0.0-4.0-1.4","","<img src=""img/grey-n.png"" border=""10"">","null","trial","null","","0.2,0.8","2:nogo_b","0",""
"null","","html-keyboard-response","53","2447497","0.0-4.0-2.4","","<div style=""font-size:60px;"">+</div>","null","","","","","","",""
"477.40000000037253","","image-keyboard-response","54","2447975","0.0-4.0-0.5","","img/orange.png","32","trial","32","true","0.8,0.2","1:go_a","",""
"null","","html-keyboard-response","55","2448986","0.0-4.0-1.5","","<img src=""img/orange-r.png"" border=""10"">","null","trial","32","","0.8,0.2","1:go_a","1",""
"null","","html-keyboard-response","56","2449989","0.0-4.0-2.5","","<div style=""font-size:60px;"">+</div>","null","","","","","","",""
"424.59999999962747","","image-keyboard-response","57","2450415","0.0-4.0-0.6","","img/orange.png","32","trial","32","true","0.8,0.2","1:go_a","",""
"null","","html-keyboard-response","58","2451430","0.0-4.0-1.6","","<img src=""img/orange-r.png"" border=""10"">","null","trial","32","","0.8,0.2","1:go_a","1",""
"null","","html-keyboard-response","59","2452436","0.0-4.0-2.6","","<div style=""font-size:60px;"">+</div>","null","","","","","","",""
"null","","image-keyboard-response","60","2453938","0.0-4.0-0.7","","img/grey.png","null","trial","null","true","0.2,0.8","2:nogo_b","",""
"null","","html-keyboard-response","61","2454951","0.0-4.0-1.7","","<img src=""img/grey-r.png"">","null","trial","null","","0.2,0.8","2:nogo_b","1",""
"null","","html-keyboard-response","62","2455952","0.0-4.0-2.7","","<div style=""font-size:60px;"">+</div>","null","","","","","","",""
"358.7999999988824","","image-keyboard-response","63","2456312","0.0-4.0-0.8","","img/orange.png","32","trial","32","true","0.8,0.2","1:go_a","",""
"null","","html-keyboard-response","64","2457318","0.0-4.0-1.8","","<img src=""img/orange-n.png"" border=""10"">","null","trial","32","","0.8,0.2","1:go_a","0",""
"null","","html-keyboard-response","65","2458333","0.0-4.0-2.8","","<div style=""font-size:60px;"">+</div>","null","","","","","","",""
"569.2999999988824","","image-keyboard-response","66","2458903","0.0-4.0-0.9","","img/grey.png","32","trial","null","false","0.2,0.8","2:nogo_b","",""
"null","","html-keyboard-response","67","2459910","0.0-4.0-1.9","","<img src=""img/grey-n.png"" border=""10"">","null","trial","null","","0.2,0.8","2:nogo_b","0",""
"null","","html-keyboard-response","68","2460916","0.0-4.0-2.9","","<div style=""font-size:60px;"">+</div>","null","","","","","","",""
"561.7000000011176","","image-keyboard-response","69","2461479","0.0-4.0-0.10","","img/grey.png","32","trial","null","false","0.2,0.8","2:nogo_b","",""
"null","","html-keyboard-response","70","2462497","0.0-4.0-1.10","","<img src=""img/grey-n.png"" border=""10"">","null","trial","null","","0.2,0.8","2:nogo_b","0",""
"null","","html-keyboard-response","71","2463499","0.0-4.0-2.10","","<div style=""font-size:60px;"">+</div>","null","","","","","","",""
"394.90000000037253","","image-keyboard-response","72","2463895","0.0-4.0-0.11","","img/orange.png","32","trial","32","true","0.8,0.2","1:go_a","",""
"null","","html-keyboard-response","73","2464904","0.0-4.0-1.11","","<img src=""img/orange-r.png"" border=""10"">","null","trial","32","","0.8,0.2","1:go_a","1",""
"null","","html-keyboard-response","74","2465906","0.0-4.0-2.11","","<div style=""font-size:60px;"">+</div>","null","","","","","","",""
"null","","image-keyboard-response","75","2467415","0.0-4.0-0.12","","img/grey.png","null","trial","null","true","0.2,0.8","2:nogo_b","",""
"null","","html-keyboard-response","76","2468422","0.0-4.0-1.12","","<img src=""img/grey-r.png"">","null","trial","null","","0.2,0.8","2:nogo_b","1",""
"null","","html-keyboard-response","77","2469425","0.0-4.0-2.12","","<div style=""font-size:60px;"">+</div>","null","","","","","","",""
"301.19999999925494","","image-keyboard-response","78","2469727","0.0-4.0-0.13","","img/orange.png","32","trial","32","true","0.8,0.2","1:go_a","",""
"null","","html-keyboard-response","79","2470728","0.0-4.0-1.13","","<img src=""img/orange-n.png"" border=""10"">","null","trial","32","","0.8,0.2","1:go_a","0",""
"null","","html-keyboard-response","80","2471736","0.0-4.0-2.13","","<div style=""font-size:60px;"">+</div>","null","","","","","","",""
"366.30000000074506","","image-keyboard-response","81","2472103","0.0-4.0-0.14","","img/orange.png","32","trial","32","true","0.8,0.2","1:go_a","",""
"null","","html-keyboard-response","82","2473113","0.0-4.0-1.14","","<img src=""img/orange-r.png"" border=""10"">","null","trial","32","","0.8,0.2","1:go_a","1",""
"null","","html-keyboard-response","83","2474126","0.0-4.0-2.14","","<div style=""font-size:60px;"">+</div>","null","","","","","","",""
"null","","image-keyboard-response","84","2475643","0.0-4.0-0.15","","img/grey.png","null","trial","null","true","0.2,0.8","2:nogo_b","",""
"null","","html-keyboard-response","85","2476651","0.0-4.0-1.15","","<img src=""img/grey-r.png"">","null","trial","null","","0.2,0.8","2:nogo_b","1",""
"null","","html-keyboard-response","86","2477659","0.0-4.0-2.15","","<div style=""font-size:60px;"">+</div>","null","","","","","","",""
"330.90000000037253","","image-keyboard-response","87","2477991","0.0-4.0-0.16","","img/orange.png","32","trial","32","true","0.8,0.2","1:go_a","",""
"null","","html-keyboard-response","88","2479002","0.0-4.0-1.16","","<img src=""img/orange-r.png"" border=""10"">","null","trial","32","","0.8,0.2","1:go_a","1",""
"null","","html-keyboard-response","89","2480006","0.0-4.0-2.16","","<div style=""font-size:60px;"">+</div>","null","","","","","","",""
"null","","image-keyboard-response","90","2481521","0.0-4.0-0.17","","img/grey.png","null","trial","null","true","0.2,0.8","2:nogo_b","",""
"null","","html-keyboard-response","91","2482535","0.0-4.0-1.17","","<img src=""img/grey-r.png"">","null","trial","null","","0.2,0.8","2:nogo_b","1",""
"null","","html-keyboard-response","92","2483542","0.0-4.0-2.17","","<div style=""font-size:60px;"">+</div>","null","","","","","","",""
"392.40000000037253","","image-keyboard-response","93","2483935","0.0-4.0-0.18","","img/orange.png","32","trial","32","true","0.8,0.2","1:go_a","",""
"null","","html-keyboard-response","94","2484943","0.0-4.0-1.18","","<img src=""img/orange-r.png"" border=""10"">","null","trial","32","","0.8,0.2","1:go_a","1",""
"null","","html-keyboard-response","95","2485949","0.0-4.0-2.18","","<div style=""font-size:60px;"">+</div>","null","","","","","","",""
"null","","image-keyboard-response","96","2487462","0.0-4.0-0.19","","img/grey.png","null","trial","null","true","0.2,0.8","2:nogo_b","",""
"null","","html-keyboard-response","97","2488466","0.0-4.0-1.19","","<img src=""img/grey-r.png"">","null","trial","null","","0.2,0.8","2:nogo_b","1",""
"null","","html-keyboard-response","98","2489470","0.0-4.0-2.19","","<div style=""font-size:60px;"">+</div>","null","","","","","","",""
"368.40000000037253","","image-keyboard-response","99","2489839","0.0-4.0-0.20","","img/orange.png","32","trial","32","true","0.8,0.2","1:go_a","",""
"null","","html-keyboard-response","100","2490845","0.0-4.0-1.20","","<img src=""img/orange-r.png"" border=""10"">","null","trial","32","","0.8,0.2","1:go_a","1",""
"null","","html-keyboard-response","101","2491849","0.0-4.0-2.20","","<div style=""font-size:60px;"">+</div>","null","","","","","","",""
"null","","image-keyboard-response","102","2493361","0.0-4.0-0.21","","img/grey.png","null","trial","null","true","0.2,0.8","2:nogo_b","",""
"null","","html-keyboard-response","103","2494365","0.0-4.0-1.21","","<img src=""img/grey-r.png"">","null","trial","null","","0.2,0.8","2:nogo_b","1",""
"null","","html-keyboard-response","104","2495369","0.0-4.0-2.21","","<div style=""font-size:60px;"">+</div>","null","","","","","","",""
"null","","image-keyboard-response","105","2496872","0.0-4.0-0.22","","img/grey.png","null","trial","null","true","0.2,0.8","2:nogo_b","",""
"null","","html-keyboard-response","106","2497882","0.0-4.0-1.22","","<img src=""img/grey-r.png"">","null","trial","null","","0.2,0.8","2:nogo_b","1",""
"null","","html-keyboard-response","107","2498886","0.0-4.0-2.22","","<div style=""font-size:60px;"">+</div>","null","","","","","","",""
"303.7000000011176","","image-keyboard-response","108","2499191","0.0-4.0-0.23","","img/orange.png","32","trial","32","true","0.8,0.2","1:go_a","",""
"null","","html-keyboard-response","109","2500198","0.0-4.0-1.23","","<img src=""img/orange-n.png"" border=""10"">","null","trial","32","","0.8,0.2","1:go_a","0",""
"null","","html-keyboard-response","110","2501200","0.0-4.0-2.23","","<div style=""font-size:60px;"">+</div>","null","","","","","","",""
"461.90000000037253","","image-keyboard-response","111","2501663","0.0-4.0-0.24","","img/orange.png","32","trial","32","true","0.8,0.2","1:go_a","",""
"null","","html-keyboard-response","112","2502671","0.0-4.0-1.24","","<img src=""img/orange-r.png"" border=""10"">","null","trial","32","","0.8,0.2","1:go_a","1",""
"null","","html-keyboard-response","113","2503673","0.0-4.0-2.24","","<div style=""font-size:60px;"">+</div>","null","","","","","","",""
"null","","image-keyboard-response","114","2505175","0.0-4.0-0.25","","img/grey.png","null","trial","null","true","0.2,0.8","2:nogo_b","",""
"null","","html-keyboard-response","115","2506186","0.0-4.0-1.25","","<img src=""img/grey-r.png"">","null","trial","null","","0.2,0.8","2:nogo_b","1",""
"null","","html-keyboard-response","116","2507191","0.0-4.0-2.25","","<div style=""font-size:60px;"">+</div>","null","","","","","","",""
"335.40000000037253","","image-keyboard-response","117","2507527","0.0-4.0-0.26","","img/orange.png","32","trial","32","true","0.8,0.2","1:go_a","",""
"null","","html-keyboard-response","118","2508541","0.0-4.0-1.26","","<img src=""img/orange-r.png"" border=""10"">","null","trial","32","","0.8,0.2","1:go_a","1",""
"null","","html-keyboard-response","119","2509550","0.0-4.0-2.26","","<div style=""font-size:60px;"">+</div>","null","","","","","","",""
"null","","image-keyboard-response","120","2511051","0.0-4.0-0.27","","img/grey.png","null","trial","null","true","0.2,0.8","2:nogo_b","",""
"null","","html-keyboard-response","121","2512055","0.0-4.0-1.27","","<img src=""img/grey-n.png"">","null","trial","null","","0.2,0.8","2:nogo_b","0",""
"null","","html-keyboard-response","122","2513059","0.0-4.0-2.27","","<div style=""font-size:60px;"">+</div>","null","","","","","","",""
"339.2999999988824","","image-keyboard-response","123","2513399","0.0-4.0-0.28","","img/orange.png","32","trial","32","true","0.8,0.2","1:go_a","",""
"null","","html-keyboard-response","124","2514412","0.0-4.0-1.28","","<img src=""img/orange-r.png"" border=""10"">","null","trial","32","","0.8,0.2","1:go_a","1",""
"null","","html-keyboard-response","125","2515417","0.0-4.0-2.28","","<div style=""font-size:60px;"">+</div>","null","","","","","","",""
"null","","image-keyboard-response","126","2516927","0.0-4.0-0.29","","img/grey.png","null","trial","null","true","0.2,0.8","2:nogo_b","",""
"null","","html-keyboard-response","127","2517931","0.0-4.0-1.29","","<img src=""img/grey-n.png"">","null","trial","null","","0.2,0.8","2:nogo_b","0",""
"null","","html-keyboard-response","128","2518939","0.0-4.0-2.29","","<div style=""font-size:60px;"">+</div>","null","","","","","","",""
"394.90000000037253","","image-keyboard-response","129","2519334","0.0-4.0-0.30","","img/orange.png","32","trial","32","true","0.8,0.2","1:go_a","",""
"null","","html-keyboard-response","130","2520343","0.0-4.0-1.30","","<img src=""img/orange-r.png"" border=""10"">","null","trial","32","","0.8,0.2","1:go_a","1",""
"null","","html-keyboard-response","131","2521349","0.0-4.0-2.30","","<div style=""font-size:60px;"">+</div>","null","","","","","","",""
"null","","image-keyboard-response","132","2522863","0.0-4.0-0.31","","img/grey.png","null","trial","null","true","0.2,0.8","2:nogo_b","",""
"null","","html-keyboard-response","133","2523868","0.0-4.0-1.31","","<img src=""img/grey-n.png"">","null","trial","null","","0.2,0.8","2:nogo_b","0",""
"null","","html-keyboard-response","134","2524885","0.0-4.0-2.31","","<div style=""font-size:60px;"">+</div>","null","","","","","","",""
"361.59999999962747","","image-keyboard-response","135","2525247","0.0-4.0-0.32","","img/orange.png","32","trial","32","true","0.8,0.2","1:go_a","",""
"null","","html-keyboard-response","136","2526257","0.0-4.0-1.32","","<img src=""img/orange-r.png"" border=""10"">","null","trial","32","","0.8,0.2","1:go_a","1",""
"null","","html-keyboard-response","137","2527262","0.0-4.0-2.32","","<div style=""font-size:60px;"">+</div>","null","","","","","","",""
"null","","image-keyboard-response","138","2528774","0.0-4.0-0.33","","img/grey.png","null","trial","null","true","0.2,0.8","2:nogo_b","",""
"null","","html-keyboard-response","139","2529777","0.0-4.0-1.33","","<img src=""img/grey-r.png"">","null","trial","null","","0.2,0.8","2:nogo_b","1",""
"null","","html-keyboard-response","140","2530782","0.0-4.0-2.33","","<div style=""font-size:60px;"">+</div>","null","","","","","","",""
"335.80000000074506","","image-keyboard-response","141","2531118","0.0-4.0-0.34","","img/orange.png","32","trial","32","true","0.8,0.2","1:go_a","",""
"null","","html-keyboard-response","142","2532126","0.0-4.0-1.34","","<img src=""img/orange-r.png"" border=""10"">","null","trial","32","","0.8,0.2","1:go_a","1",""
"null","","html-keyboard-response","143","2533129","0.0-4.0-2.34","","<div style=""font-size:60px;"">+</div>","null","","","","","","",""
"null","","image-keyboard-response","144","2534641","0.0-4.0-0.35","","img/grey.png","null","trial","null","true","0.2,0.8","2:nogo_b","",""
"null","","html-keyboard-response","145","2535644","0.0-4.0-1.35","","<img src=""img/grey-r.png"">","null","trial","null","","0.2,0.8","2:nogo_b","1",""
"null","","html-keyboard-response","146","2536650","0.0-4.0-2.35","","<div style=""font-size:60px;"">+</div>","null","","","","","","",""
"null","","image-keyboard-response","147","2538164","0.0-4.0-0.36","","img/grey.png","null","trial","null","true","0.2,0.8","2:nogo_b","",""
"null","","html-keyboard-response","148","2539169","0.0-4.0-1.36","","<img src=""img/grey-r.png"">","null","trial","null","","0.2,0.8","2:nogo_b","1",""
"null","","html-keyboard-response","149","2540174","0.0-4.0-2.36","","<div style=""font-size:60px;"">+</div>","null","","","","","","",""
"328","","image-keyboard-response","150","2540502","0.0-4.0-0.37","","img/orange.png","32","trial","32","true","0.8,0.2","1:go_a","",""
"null","","html-keyboard-response","151","2541512","0.0-4.0-1.37","","<img src=""img/orange-r.png"" border=""10"">","null","trial","32","","0.8,0.2","1:go_a","1",""
"null","","html-keyboard-response","152","2542514","0.0-4.0-2.37","","<div style=""font-size:60px;"">+</div>","null","","","","","","",""
"null","","image-keyboard-response","153","2544017","0.0-4.0-0.38","","img/grey.png","null","trial","null","true","0.2,0.8","2:nogo_b","",""
"null","","html-keyboard-response","154","2545024","0.0-4.0-1.38","","<img src=""img/grey-r.png"">","null","trial","null","","0.2,0.8","2:nogo_b","1",""
"null","","html-keyboard-response","155","2546026","0.0-4.0-2.38","","<div style=""font-size:60px;"">+</div>","null","","","","","","",""
"427.5","","image-keyboard-response","156","2546454","0.0-4.0-0.39","","img/orange.png","32","trial","32","true","0.8,0.2","1:go_a","",""
"null","","html-keyboard-response","157","2547461","0.0-4.0-1.39","","<img src=""img/orange-n.png"" border=""10"">","null","trial","32","","0.8,0.2","1:go_a","0",""
"null","","html-keyboard-response","158","2548466","0.0-4.0-2.39","","<div style=""font-size:60px;"">+</div>","null","","","","","","",""
"null","","image-keyboard-response","159","2549974","0.0-4.0-0.40","","img/grey.png","null","trial","null","true","0.2,0.8","2:nogo_b","",""
"null","","html-keyboard-response","160","2550977","0.0-4.0-1.40","","<img src=""img/grey-r.png"">","null","trial","null","","0.2,0.8","2:nogo_b","1",""
"null","","html-keyboard-response","161","2551984","0.0-4.0-2.40","","<div style=""font-size:60px;"">+</div>","null","","","","","","",""
"325.90000000037253","","image-keyboard-response","162","2552310","0.0-4.0-0.41","","img/orange.png","32","trial","32","true","0.8,0.2","1:go_a","",""
"null","","html-keyboard-response","163","2553324","0.0-4.0-1.41","","<img src=""img/orange-r.png"" border=""10"">","null","trial","32","","0.8,0.2","1:go_a","1",""
"null","","html-keyboard-response","164","2554340","0.0-4.0-2.41","","<div style=""font-size:60px;"">+</div>","null","","","","","","",""
"null","","image-keyboard-response","165","2555843","0.0-4.0-0.42","","img/grey.png","null","trial","null","true","0.2,0.8","2:nogo_b","",""
"null","","html-keyboard-response","166","2556854","0.0-4.0-1.42","","<img src=""img/grey-r.png"">","null","trial","null","","0.2,0.8","2:nogo_b","1",""
"null","","html-keyboard-response","167","2557857","0.0-4.0-2.42","","<div style=""font-size:60px;"">+</div>","null","","","","","","",""
"396.5","","image-keyboard-response","168","2558254","0.0-4.0-0.43","","img/orange.png","32","trial","32","true","0.8,0.2","1:go_a","",""
"null","","html-keyboard-response","169","2559264","0.0-4.0-1.43","","<img src=""img/orange-n.png"" border=""10"">","null","trial","32","","0.8,0.2","1:go_a","0",""
"null","","html-keyboard-response","170","2560272","0.0-4.0-2.43","","<div style=""font-size:60px;"">+</div>","null","","","","","","",""
"null","","image-keyboard-response","171","2561783","0.0-4.0-0.44","","img/grey.png","null","trial","null","true","0.2,0.8","2:nogo_b","",""
"null","","html-keyboard-response","172","2562788","0.0-4.0-1.44","","<img src=""img/grey-r.png"">","null","trial","null","","0.2,0.8","2:nogo_b","1",""
"null","","html-keyboard-response","173","2563796","0.0-4.0-2.44","","<div style=""font-size:60px;"">+</div>","null","","","","","","",""
"361.69999999925494","","image-keyboard-response","174","2564158","0.0-4.0-0.45","","img/orange.png","32","trial","32","true","0.8,0.2","1:go_a","",""
"null","","html-keyboard-response","175","2565162","0.0-4.0-1.45","","<img src=""img/orange-r.png"" border=""10"">","null","trial","32","","0.8,0.2","1:go_a","1",""
"null","","html-keyboard-response","176","2566168","0.0-4.0-2.45","","<div style=""font-size:60px;"">+</div>","null","","","","","","",""
"null","","image-keyboard-response","177","2567675","0.0-4.0-0.46","","img/grey.png","null","trial","null","true","0.2,0.8","2:nogo_b","",""
"null","","html-keyboard-response","178","2568683","0.0-4.0-1.46","","<img src=""img/grey-r.png"">","null","trial","null","","0.2,0.8","2:nogo_b","1",""
"null","","html-keyboard-response","179","2569688","0.0-4.0-2.46","","<div style=""font-size:60px;"">+</div>","null","","","","","","",""
"333","","image-keyboard-response","180","2570022","0.0-4.0-0.47","","img/orange.png","32","trial","32","true","0.8,0.2","1:go_a","",""
"null","","html-keyboard-response","181","2571028","0.0-4.0-1.47","","<img src=""img/orange-r.png"" border=""10"">","null","trial","32","","0.8,0.2","1:go_a","1",""
"null","","html-keyboard-response","182","2572032","0.0-4.0-2.47","","<div style=""font-size:60px;"">+</div>","null","","","","","","",""
"null","","image-keyboard-response","183","2573543","0.0-4.0-0.48","","img/grey.png","null","trial","null","true","0.2,0.8","2:nogo_b","",""
"null","","html-keyboard-response","184","2574546","0.0-4.0-1.48","","<img src=""img/grey-n.png"">","null","trial","null","","0.2,0.8","2:nogo_b","0",""
"null","","html-keyboard-response","185","2575553","0.0-4.0-2.48","","<div style=""font-size:60px;"">+</div>","null","","","","","","",""
"332.40000000037253","","image-keyboard-response","186","2575887","0.0-4.0-0.49","","img/orange.png","32","trial","32","true","0.8,0.2","1:go_a","",""
"null","","html-keyboard-response","187","2576895","0.0-4.0-1.49","","<img src=""img/orange-r.png"" border=""10"">","null","trial","32","","0.8,0.2","1:go_a","1",""
"null","","html-keyboard-response","188","2577901","0.0-4.0-2.49","","<div style=""font-size:60px;"">+</div>","null","","","","","","",""
"472.30000000074506","","image-keyboard-response","189","2578374","0.0-4.0-0.50","","img/orange.png","32","trial","32","true","0.8,0.2","1:go_a","",""
"null","","html-keyboard-response","190","2579381","0.0-4.0-1.50","","<img src=""img/orange-r.png"" border=""10"">","null","trial","32","","0.8,0.2","1:go_a","1",""
"null","","html-keyboard-response","191","2580396","0.0-4.0-2.50","","<div style=""font-size:60px;"">+</div>","null","","","","","","",""
"null","","image-keyboard-response","192","2581911","0.0-4.0-0.51","","img/grey.png","null","trial","null","true","0.2,0.8","2:nogo_b","",""
"null","","html-keyboard-response","193","2582917","0.0-4.0-1.51","","<img src=""img/grey-n.png"">","null","trial","null","","0.2,0.8","2:nogo_b","0",""
"null","","html-keyboard-response","194","2583923","0.0-4.0-2.51","","<div style=""font-size:60px;"">+</div>","null","","","","","","",""
"null","","image-keyboard-response","195","2585437","0.0-4.0-0.52","","img/grey.png","null","trial","null","true","0.2,0.8","2:nogo_b","",""
"null","","html-keyboard-response","196","2586440","0.0-4.0-1.52","","<img src=""img/grey-r.png"">","null","trial","null","","0.2,0.8","2:nogo_b","1",""
"null","","html-keyboard-response","197","2587447","0.0-4.0-2.52","","<div style=""font-size:60px;"">+</div>","null","","","","","","",""
"334.5","","image-keyboard-response","198","2587782","0.0-4.0-0.53","","img/orange.png","32","trial","32","true","0.8,0.2","1:go_a","",""
"null","","html-keyboard-response","199","2588792","0.0-4.0-1.53","","<img src=""img/orange-r.png"" border=""10"">","null","trial","32","","0.8,0.2","1:go_a","1",""
"null","","html-keyboard-response","200","2589795","0.0-4.0-2.53","","<div style=""font-size:60px;"">+</div>","null","","","","","","",""
"441.90000000037253","","image-keyboard-response","201","2590238","0.0-4.0-0.54","","img/orange.png","32","trial","32","true","0.8,0.2","1:go_a","",""
"null","","html-keyboard-response","202","2591243","0.0-4.0-1.54","","<img src=""img/orange-r.png"" border=""10"">","null","trial","32","","0.8,0.2","1:go_a","1",""
"null","","html-keyboard-response","203","2592258","0.0-4.0-2.54","","<div style=""font-size:60px;"">+</div>","null","","","","","","",""
"null","","image-keyboard-response","204","2593770","0.0-4.0-0.55","","img/grey.png","null","trial","null","true","0.2,0.8","2:nogo_b","",""
"null","","html-keyboard-response","205","2594787","0.0-4.0-1.55","","<img src=""img/grey-r.png"">","null","trial","null","","0.2,0.8","2:nogo_b","1",""
"null","","html-keyboard-response","206","2595789","0.0-4.0-2.55","","<div style=""font-size:60px;"">+</div>","null","","","","","","",""
"null","","image-keyboard-response","207","2597291","0.0-4.0-0.56","","img/grey.png","null","trial","null","true","0.2,0.8","2:nogo_b","",""
"null","","html-keyboard-response","208","2598294","0.0-4.0-1.56","","<img src=""img/grey-r.png"">","null","trial","null","","0.2,0.8","2:nogo_b","1",""
"null","","html-keyboard-response","209","2599298","0.0-4.0-2.56","","<div style=""font-size:60px;"">+</div>","null","","","","","","",""
"306.7000000011176","","image-keyboard-response","210","2599606","0.0-4.0-0.57","","img/orange.png","32","trial","32","true","0.8,0.2","1:go_a","",""
"null","","html-keyboard-response","211","2600612","0.0-4.0-1.57","","<img src=""img/orange-n.png"" border=""10"">","null","trial","32","","0.8,0.2","1:go_a","0",""
"null","","html-keyboard-response","212","2601618","0.0-4.0-2.57","","<div style=""font-size:60px;"">+</div>","null","","","","","","",""
"null","","image-keyboard-response","213","2603128","0.0-4.0-0.58","","img/grey.png","null","trial","null","true","0.2,0.8","2:nogo_b","",""
"null","","html-keyboard-response","214","2604141","0.0-4.0-1.58","","<img src=""img/grey-r.png"">","null","trial","null","","0.2,0.8","2:nogo_b","1",""
"null","","html-keyboard-response","215","2605143","0.0-4.0-2.58","","<div style=""font-size:60px;"">+</div>","null","","","","","","",""
"349.40000000037253","","image-keyboard-response","216","2605493","0.0-4.0-0.59","","img/orange.png","32","trial","32","true","0.8,0.2","1:go_a","",""
"null","","html-keyboard-response","217","2606496","0.0-4.0-1.59","","<img src=""img/orange-n.png"" border=""10"">","null","trial","32","","0.8,0.2","1:go_a","0",""
"null","","html-keyboard-response","218","2607502","0.0-4.0-2.59","","<div style=""font-size:60px;"">+</div>","null","","","","","","",""
"4288.800000000745","","instructions","219","2611792","0.0-5.0","[{""page_index"":0,""viewing_time"":4288.5}]","","","","","","","","",""
"788.8000000007451","","image-keyboard-response","220","2612582","0.0-6.0-0.0","","img/purple.png","32","trial","32","true","0.6,0.4","3:go_c","",""
"null","","html-keyboard-response","221","2613587","0.0-6.0-1.0","","<img src=""img/purple-r.png"" border=""10"">","null","trial","32","","0.6,0.4","3:go_c","1",""
"null","","html-keyboard-response","222","2614592","0.0-6.0-2.0","","<div style=""font-size:60px;"">+</div>","null","","","","","","",""
"405","","image-keyboard-response","223","2614997","0.0-6.0-0.1","","img/grey.png","32","trial","null","false","0.2,0.8","2:nogo_b","",""
"null","","html-keyboard-response","224","2616003","0.0-6.0-1.1","","<img src=""img/grey-r.png"" border=""10"">","null","trial","null","","0.2,0.8","2:nogo_b","1",""
"null","","html-keyboard-response","225","2617006","0.0-6.0-2.1","","<div style=""font-size:60px;"">+</div>","null","","","","","","",""
"679.0999999996275","","image-keyboard-response","226","2617685","0.0-6.0-0.2","","img/green.png","32","trial","32","true","0.8,0.2","1:go_a","",""
"null","","html-keyboard-response","227","2618691","0.0-6.0-1.2","","<img src=""img/green-n.png"" border=""10"">","null","trial","32","","0.8,0.2","1:go_a","0",""
"null","","html-keyboard-response","228","2619703","0.0-6.0-2.2","","<div style=""font-size:60px;"">+</div>","null","","","","","","",""
"613.8000000007451","","image-keyboard-response","229","2620317","0.0-6.0-0.3","","img/red.png","32","trial","null","false","0.4,0.6","4:nogo_d","",""
"null","","html-keyboard-response","230","2621333","0.0-6.0-1.3","","<img src=""img/red-r.png"" border=""10"">","null","trial","null","","0.4,0.6","4:nogo_d","1",""
"null","","html-keyboard-response","231","2622339","0.0-6.0-2.3","","<div style=""font-size:60px;"">+</div>","null","","","","","","",""
"457.2999999988824","","image-keyboard-response","232","2622797","0.0-6.0-0.4","","img/red.png","32","trial","null","false","0.4,0.6","4:nogo_d","",""
"null","","html-keyboard-response","233","2623802","0.0-6.0-1.4","","<img src=""img/red-n.png"" border=""10"">","null","trial","null","","0.4,0.6","4:nogo_d","0",""
"null","","html-keyboard-response","234","2624804","0.0-6.0-2.4","","<div style=""font-size:60px;"">+</div>","null","","","","","","",""
"null","","image-keyboard-response","235","2626319","0.0-6.0-0.5","","img/green.png","null","trial","32","false","0.8,0.2","1:go_a","",""
"null","","html-keyboard-response","236","2627324","0.0-6.0-1.5","","<img src=""img/green-n.png"">","null","trial","32","","0.8,0.2","1:go_a","0",""
"null","","html-keyboard-response","237","2628336","0.0-6.0-2.5","","<div style=""font-size:60px;"">+</div>","null","","","","","","",""
"460.59999999962747","","image-keyboard-response","238","2628797","0.0-6.0-0.6","","img/purple.png","32","trial","32","true","0.6,0.4","3:go_c","",""
"null","","html-keyboard-response","239","2629806","0.0-6.0-1.6","","<img src=""img/purple-n.png"" border=""10"">","null","trial","32","","0.6,0.4","3:go_c","0",""
"null","","html-keyboard-response","240","2630814","0.0-6.0-2.6","","<div style=""font-size:60px;"">+</div>","null","","","","","","",""
"446.80000000074506","","image-keyboard-response","241","2631261","0.0-6.0-0.7","","img/grey.png","32","trial","null","false","0.2,0.8","2:nogo_b","",""
"null","","html-keyboard-response","242","2632273","0.0-6.0-1.7","","<img src=""img/grey-n.png"" border=""10"">","null","trial","null","","0.2,0.8","2:nogo_b","0",""
"null","","html-keyboard-response","243","2633280","0.0-6.0-2.7","","<div style=""font-size:60px;"">+</div>","null","","","","","","",""
"null","","image-keyboard-response","244","2634794","0.0-6.0-0.8","","img/green.png","null","trial","32","false","0.8,0.2","1:go_a","",""
"null","","html-keyboard-response","245","2635801","0.0-6.0-1.8","","<img src=""img/green-n.png"">","null","trial","32","","0.8,0.2","1:go_a","0",""
"null","","html-keyboard-response","246","2636811","0.0-6.0-2.8","","<div style=""font-size:60px;"">+</div>","null","","","","","","",""
"633.8000000007451","","image-keyboard-response","247","2637445","0.0-6.0-0.9","","img/red.png","32","trial","null","false","0.4,0.6","4:nogo_d","",""
"null","","html-keyboard-response","248","2638458","0.0-6.0-1.9","","<img src=""img/red-n.png"" border=""10"">","null","trial","null","","0.4,0.6","4:nogo_d","0",""
"null","","html-keyboard-response","249","2639462","0.0-6.0-2.9","","<div style=""font-size:60px;"">+</div>","null","","","","","","",""
"478.7999999988824","","image-keyboard-response","250","2639941","0.0-6.0-0.10","","img/grey.png","32","trial","null","false","0.2,0.8","2:nogo_b","",""
"null","","html-keyboard-response","251","2640943","0.0-6.0-1.10","","<img src=""img/grey-n.png"" border=""10"">","null","trial","null","","0.2,0.8","2:nogo_b","0",""
"null","","html-keyboard-response","252","2641948","0.0-6.0-2.10","","<div style=""font-size:60px;"">+</div>","null","","","","","","",""
"408.1000000014901","","image-keyboard-response","253","2642357","0.0-6.0-0.11","","img/purple.png","32","trial","32","true","0.6,0.4","3:go_c","",""
"null","","html-keyboard-response","254","2643368","0.0-6.0-1.11","","<img src=""img/purple-r.png"" border=""10"">","null","trial","32","","0.6,0.4","3:go_c","1",""
"null","","html-keyboard-response","255","2644373","0.0-6.0-2.11","","<div style=""font-size:60px;"">+</div>","null","","","","","","",""
"null","","image-keyboard-response","256","2645882","0.0-6.0-0.12","","img/red.png","null","trial","null","true","0.4,0.6","4:nogo_d","",""
"null","","html-keyboard-response","257","2646889","0.0-6.0-1.12","","<img src=""img/red-n.png"">","null","trial","null","","0.4,0.6","4:nogo_d","0",""
"null","","html-keyboard-response","258","2647895","0.0-6.0-2.12","","<div style=""font-size:60px;"">+</div>","null","","","","","","",""
"893.7000000011176","","image-keyboard-response","259","2648789","0.0-6.0-0.13","","img/grey.png","32","trial","null","false","0.2,0.8","2:nogo_b","",""
"null","","html-keyboard-response","260","2649795","0.0-6.0-1.13","","<img src=""img/grey-n.png"" border=""10"">","null","trial","null","","0.2,0.8","2:nogo_b","0",""
"null","","html-keyboard-response","261","2650804","0.0-6.0-2.13","","<div style=""font-size:60px;"">+</div>","null","","","","","","",""
"408.8999999985099","","image-keyboard-response","262","2651213","0.0-6.0-0.14","","img/purple.png","32","trial","32","true","0.6,0.4","3:go_c","",""
"null","","html-keyboard-response","263","2652218","0.0-6.0-1.14","","<img src=""img/purple-r.png"" border=""10"">","null","trial","32","","0.6,0.4","3:go_c","1",""
"null","","html-keyboard-response","264","2653233","0.0-6.0-2.14","","<div style=""font-size:60px;"">+</div>","null","","","","","","",""
"null","","image-keyboard-response","265","2654747","0.0-6.0-0.15","","img/green.png","null","trial","32","false","0.8,0.2","1:go_a","",""
"null","","html-keyboard-response","266","2655749","0.0-6.0-1.15","","<img src=""img/green-n.png"">","null","trial","32","","0.8,0.2","1:go_a","0",""
"null","","html-keyboard-response","267","2656752","0.0-6.0-2.15","","<div style=""font-size:60px;"">+</div>","null","","","","","","",""
"null","","image-keyboard-response","268","2658267","0.0-6.0-0.16","","img/red.png","null","trial","null","true","0.4,0.6","4:nogo_d","",""
"null","","html-keyboard-response","269","2659281","0.0-6.0-1.16","","<img src=""img/red-r.png"">","null","trial","null","","0.4,0.6","4:nogo_d","1",""
"null","","html-keyboard-response","270","2660296","0.0-6.0-2.16","","<div style=""font-size:60px;"">+</div>","null","","","","","","",""
"396.19999999925494","","image-keyboard-response","271","2660693","0.0-6.0-0.17","","img/purple.png","32","trial","32","true","0.6,0.4","3:go_c","",""
"null","","html-keyboard-response","272","2661700","0.0-6.0-1.17","","<img src=""img/purple-r.png"" border=""10"">","null","trial","32","","0.6,0.4","3:go_c","1",""
"null","","html-keyboard-response","273","2662707","0.0-6.0-2.17","","<div style=""font-size:60px;"">+</div>","null","","","","","","",""
"null","","image-keyboard-response","274","2664211","0.0-6.0-0.18","","img/green.png","null","trial","32","false","0.8,0.2","1:go_a","",""
"null","","html-keyboard-response","275","2665215","0.0-6.0-1.18","","<img src=""img/green-n.png"">","null","trial","32","","0.8,0.2","1:go_a","0",""
"null","","html-keyboard-response","276","2666218","0.0-6.0-2.18","","<div style=""font-size:60px;"">+</div>","null","","","","","","",""
"null","","image-keyboard-response","277","2667730","0.0-6.0-0.19","","img/grey.png","null","trial","null","true","0.2,0.8","2:nogo_b","",""
"null","","html-keyboard-response","278","2668732","0.0-6.0-1.19","","<img src=""img/grey-r.png"">","null","trial","null","","0.2,0.8","2:nogo_b","1",""
"null","","html-keyboard-response","279","2669737","0.0-6.0-2.19","","<div style=""font-size:60px;"">+</div>","null","","","","","","",""
"339.5","","image-keyboard-response","280","2670077","0.0-6.0-0.20","","img/purple.png","32","trial","32","true","0.6,0.4","3:go_c","",""
"null","","html-keyboard-response","281","2671081","0.0-6.0-1.20","","<img src=""img/purple-n.png"" border=""10"">","null","trial","32","","0.6,0.4","3:go_c","0",""
"null","","html-keyboard-response","282","2672087","0.0-6.0-2.20","","<div style=""font-size:60px;"">+</div>","null","","","","","","",""
"null","","image-keyboard-response","283","2673600","0.0-6.0-0.21","","img/green.png","null","trial","32","false","0.8,0.2","1:go_a","",""
"null","","html-keyboard-response","284","2674609","0.0-6.0-1.21","","<img src=""img/green-n.png"">","null","trial","32","","0.8,0.2","1:go_a","0",""
"null","","html-keyboard-response","285","2675623","0.0-6.0-2.21","","<div style=""font-size:60px;"">+</div>","null","","","","","","",""
"null","","image-keyboard-response","286","2677138","0.0-6.0-0.22","","img/grey.png","null","trial","null","true","0.2,0.8","2:nogo_b","",""
"null","","html-keyboard-response","287","2678154","0.0-6.0-1.22","","<img src=""img/grey-n.png"">","null","trial","null","","0.2,0.8","2:nogo_b","0",""
"null","","html-keyboard-response","288","2679156","0.0-6.0-2.22","","<div style=""font-size:60px;"">+</div>","null","","","","","","",""
"null","","image-keyboard-response","289","2680657","0.0-6.0-0.23","","img/red.png","null","trial","null","true","0.4,0.6","4:nogo_d","",""
"null","","html-keyboard-response","290","2681663","0.0-6.0-1.23","","<img src=""img/red-r.png"">","null","trial","null","","0.4,0.6","4:nogo_d","1",""
"null","","html-keyboard-response","291","2682668","0.0-6.0-2.23","","<div style=""font-size:60px;"">+</div>","null","","","","","","",""
"null","","image-keyboard-response","292","2684183","0.0-6.0-0.24","","img/green.png","null","trial","32","false","0.8,0.2","1:go_a","",""
"null","","html-keyboard-response","293","2685199","0.0-6.0-1.24","","<img src=""img/green-n.png"">","null","trial","32","","0.8,0.2","1:go_a","0",""
"null","","html-keyboard-response","294","2686201","0.0-6.0-2.24","","<div style=""font-size:60px;"">+</div>","null","","","","","","",""
"515.6000000014901","","image-keyboard-response","295","2686717","0.0-6.0-0.25","","img/purple.png","32","trial","32","true","0.6,0.4","3:go_c","",""
"null","","html-keyboard-response","296","2687734","0.0-6.0-1.25","","<img src=""img/purple-n.png"" border=""10"">","null","trial","32","","0.6,0.4","3:go_c","0",""
"null","","html-keyboard-response","297","2688740","0.0-6.0-2.25","","<div style=""font-size:60px;"">+</div>","null","","","","","","",""
"375.1000000014901","","image-keyboard-response","298","2689117","0.0-6.0-0.26","","img/red.png","32","trial","null","false","0.4,0.6","4:nogo_d","",""
"null","","html-keyboard-response","299","2690131","0.0-6.0-1.26","","<img src=""img/red-n.png"" border=""10"">","null","trial","null","","0.4,0.6","4:nogo_d","0",""
"null","","html-keyboard-response","300","2691134","0.0-6.0-2.26","","<div style=""font-size:60px;"">+</div>","null","","","","","","",""
"581.9000000003725","","image-keyboard-response","301","2691717","0.0-6.0-0.27","","img/grey.png","32","trial","null","false","0.2,0.8","2:nogo_b","",""
"null","","html-keyboard-response","302","2692727","0.0-6.0-1.27","","<img src=""img/grey-r.png"" border=""10"">","null","trial","null","","0.2,0.8","2:nogo_b","1",""
"null","","html-keyboard-response","303","2693731","0.0-6.0-2.27","","<div style=""font-size:60px;"">+</div>","null","","","","","","",""
"449.5","","image-keyboard-response","304","2694181","0.0-6.0-0.28","","img/grey.png","32","trial","null","false","0.2,0.8","2:nogo_b","",""
"null","","html-keyboard-response","305","2695198","0.0-6.0-1.28","","<img src=""img/grey-n.png"" border=""10"">","null","trial","null","","0.2,0.8","2:nogo_b","0",""
"null","","html-keyboard-response","306","2696203","0.0-6.0-2.28","","<div style=""font-size:60px;"">+</div>","null","","","","","","",""
"null","","image-keyboard-response","307","2697714","0.0-6.0-0.29","","img/green.png","null","trial","32","false","0.8,0.2","1:go_a","",""
"null","","html-keyboard-response","308","2698723","0.0-6.0-1.29","","<img src=""img/green-n.png"">","null","trial","32","","0.8,0.2","1:go_a","0",""
"null","","html-keyboard-response","309","2699725","0.0-6.0-2.29","","<div style=""font-size:60px;"">+</div>","null","","","","","","",""
"null","","image-keyboard-response","310","2701227","0.0-6.0-0.30","","img/red.png","null","trial","null","true","0.4,0.6","4:nogo_d","",""
"null","","html-keyboard-response","311","2702234","0.0-6.0-1.30","","<img src=""img/red-n.png"">","null","trial","null","","0.4,0.6","4:nogo_d","0",""
"null","","html-keyboard-response","312","2703237","0.0-6.0-2.30","","<div style=""font-size:60px;"">+</div>","null","","","","","","",""
"406.80000000074506","","image-keyboard-response","313","2703645","0.0-6.0-0.31","","img/purple.png","32","trial","32","true","0.6,0.4","3:go_c","",""
"null","","html-keyboard-response","314","2704654","0.0-6.0-1.31","","<img src=""img/purple-n.png"" border=""10"">","null","trial","32","","0.6,0.4","3:go_c","0",""
"null","","html-keyboard-response","315","2705660","0.0-6.0-2.31","","<div style=""font-size:60px;"">+</div>","null","","","","","","",""
"null","","image-keyboard-response","316","2707175","0.0-6.0-0.32","","img/green.png","null","trial","32","false","0.8,0.2","1:go_a","",""
"null","","html-keyboard-response","317","2708177","0.0-6.0-1.32","","<img src=""img/green-r.png"">","null","trial","32","","0.8,0.2","1:go_a","1",""
"null","","html-keyboard-response","318","2709178","0.0-6.0-2.32","","<div style=""font-size:60px;"">+</div>","null","","","","","","",""
"null","","image-keyboard-response","319","2710693","0.0-6.0-0.33","","img/red.png","null","trial","null","true","0.4,0.6","4:nogo_d","",""
"null","","html-keyboard-response","320","2711697","0.0-6.0-1.33","","<img src=""img/red-n.png"">","null","trial","null","","0.4,0.6","4:nogo_d","0",""
"null","","html-keyboard-response","321","2712699","0.0-6.0-2.33","","<div style=""font-size:60px;"">+</div>","null","","","","","","",""
"440.2999999988824","","image-keyboard-response","322","2713140","0.0-6.0-0.34","","img/purple.png","32","trial","32","true","0.6,0.4","3:go_c","",""
"null","","html-keyboard-response","323","2714155","0.0-6.0-1.34","","<img src=""img/purple-n.png"" border=""10"">","null","trial","32","","0.6,0.4","3:go_c","0",""
"null","","html-keyboard-response","324","2715163","0.0-6.0-2.34","","<div style=""font-size:60px;"">+</div>","null","","","","","","",""
"409.59999999962747","","image-keyboard-response","325","2715573","0.0-6.0-0.35","","img/grey.png","32","trial","null","false","0.2,0.8","2:nogo_b","",""
"null","","html-keyboard-response","326","2716582","0.0-6.0-1.35","","<img src=""img/grey-n.png"" border=""10"">","null","trial","null","","0.2,0.8","2:nogo_b","0",""
"null","","html-keyboard-response","327","2717588","0.0-6.0-2.35","","<div style=""font-size:60px;"">+</div>","null","","","","","","",""
"null","","image-keyboard-response","328","2719102","0.0-6.0-0.36","","img/red.png","null","trial","null","true","0.4,0.6","4:nogo_d","",""
"null","","html-keyboard-response","329","2720110","0.0-6.0-1.36","","<img src=""img/red-r.png"">","null","trial","null","","0.4,0.6","4:nogo_d","1",""
"null","","html-keyboard-response","330","2721117","0.0-6.0-2.36","","<div style=""font-size:60px;"">+</div>","null","","","","","","",""
"null","","image-keyboard-response","331","2722619","0.0-6.0-0.37","","img/green.png","null","trial","32","false","0.8,0.2","1:go_a","",""
"null","","html-keyboard-response","332","2723633","0.0-6.0-1.37","","<img src=""img/green-r.png"">","null","trial","32","","0.8,0.2","1:go_a","1",""
"null","","html-keyboard-response","333","2724636","0.0-6.0-2.37","","<div style=""font-size:60px;"">+</div>","null","","","","","","",""
"439.59999999962747","","image-keyboard-response","334","2725077","0.0-6.0-0.38","","img/grey.png","32","trial","null","false","0.2,0.8","2:nogo_b","",""
"null","","html-keyboard-response","335","2726091","0.0-6.0-1.38","","<img src=""img/grey-r.png"" border=""10"">","null","trial","null","","0.2,0.8","2:nogo_b","1",""
"null","","html-keyboard-response","336","2727096","0.0-6.0-2.38","","<div style=""font-size:60px;"">+</div>","null","","","","","","",""
"460.2999999988824","","image-keyboard-response","337","2727557","0.0-6.0-0.39","","img/purple.png","32","trial","32","true","0.6,0.4","3:go_c","",""
"null","","html-keyboard-response","338","2728565","0.0-6.0-1.39","","<img src=""img/purple-r.png"" border=""10"">","null","trial","32","","0.6,0.4","3:go_c","1",""
"null","","html-keyboard-response","339","2729571","0.0-6.0-2.39","","<div style=""font-size:60px;"">+</div>","null","","","","","","",""
"null","","image-keyboard-response","340","2731083","0.0-6.0-0.40","","img/red.png","null","trial","null","true","0.4,0.6","4:nogo_d","",""
"null","","html-keyboard-response","341","2732098","0.0-6.0-1.40","","<img src=""img/red-r.png"">","null","trial","null","","0.4,0.6","4:nogo_d","1",""
"null","","html-keyboard-response","342","2733100","0.0-6.0-2.40","","<div style=""font-size:60px;"">+</div>","null","","","","","","",""
"null","","image-keyboard-response","343","2734612","0.0-6.0-0.41","","img/green.png","null","trial","32","false","0.8,0.2","1:go_a","",""
"null","","html-keyboard-response","344","2735617","0.0-6.0-1.41","","<img src=""img/green-r.png"">","null","trial","32","","0.8,0.2","1:go_a","1",""
"null","","html-keyboard-response","345","2736625","0.0-6.0-2.41","","<div style=""font-size:60px;"">+</div>","null","","","","","","",""
"498.5","","image-keyboard-response","346","2737124","0.0-6.0-0.42","","img/grey.png","32","trial","null","false","0.2,0.8","2:nogo_b","",""
"null","","html-keyboard-response","347","2738137","0.0-6.0-1.42","","<img src=""img/grey-n.png"" border=""10"">","null","trial","null","","0.2,0.8","2:nogo_b","0",""
"null","","html-keyboard-response","348","2739141","0.0-6.0-2.42","","<div style=""font-size:60px;"">+</div>","null","","","","","","",""
"351.3999999985099","","image-keyboard-response","349","2739493","0.0-6.0-0.43","","img/purple.png","32","trial","32","true","0.6,0.4","3:go_c","",""
"null","","html-keyboard-response","350","2740501","0.0-6.0-1.43","","<img src=""img/purple-r.png"" border=""10"">","null","trial","32","","0.6,0.4","3:go_c","1",""
"null","","html-keyboard-response","351","2741503","0.0-6.0-2.43","","<div style=""font-size:60px;"">+</div>","null","","","","","","",""
"null","","image-keyboard-response","352","2743015","0.0-6.0-0.44","","img/red.png","null","trial","null","true","0.4,0.6","4:nogo_d","",""
"null","","html-keyboard-response","353","2744019","0.0-6.0-1.44","","<img src=""img/red-n.png"">","null","trial","null","","0.4,0.6","4:nogo_d","0",""
"null","","html-keyboard-response","354","2745024","0.0-6.0-2.44","","<div style=""font-size:60px;"">+</div>","null","","","","","","",""
"571.9000000003725","","image-keyboard-response","355","2745597","0.0-6.0-0.45","","img/purple.png","32","trial","32","true","0.6,0.4","3:go_c","",""
"null","","html-keyboard-response","356","2746604","0.0-6.0-1.45","","<img src=""img/purple-r.png"" border=""10"">","null","trial","32","","0.6,0.4","3:go_c","1",""
"null","","html-keyboard-response","357","2747613","0.0-6.0-2.45","","<div style=""font-size:60px;"">+</div>","null","","","","","","",""
"478.2999999988824","","image-keyboard-response","358","2748092","0.0-6.0-0.46","","img/grey.png","32","trial","null","false","0.2,0.8","2:nogo_b","",""
"null","","html-keyboard-response","359","2749103","0.0-6.0-1.46","","<img src=""img/grey-n.png"" border=""10"">","null","trial","null","","0.2,0.8","2:nogo_b","0",""
"null","","html-keyboard-response","360","2750106","0.0-6.0-2.46","","<div style=""font-size:60px;"">+</div>","null","","","","","","",""
"null","","image-keyboard-response","361","2751610","0.0-6.0-0.47","","img/green.png","null","trial","32","false","0.8,0.2","1:go_a","",""
"null","","html-keyboard-response","362","2752615","0.0-6.0-1.47","","<img src=""img/green-n.png"">","null","trial","32","","0.8,0.2","1:go_a","0",""
"null","","html-keyboard-response","363","2753618","0.0-6.0-2.47","","<div style=""font-size:60px;"">+</div>","null","","","","","","",""
"null","","image-keyboard-response","364","2755122","0.0-6.0-0.48","","img/green.png","null","trial","32","false","0.8,0.2","1:go_a","",""
"null","","html-keyboard-response","365","2756129","0.0-6.0-1.48","","<img src=""img/green-n.png"">","null","trial","32","","0.8,0.2","1:go_a","0",""
"null","","html-keyboard-response","366","2757130","0.0-6.0-2.48","","<div style=""font-size:60px;"">+</div>","null","","","","","","",""
"null","","image-keyboard-response","367","2758644","0.0-6.0-0.49","","img/red.png","null","trial","null","true","0.4,0.6","4:nogo_d","",""
"null","","html-keyboard-response","368","2759652","0.0-6.0-1.49","","<img src=""img/red-n.png"">","null","trial","null","","0.4,0.6","4:nogo_d","0",""
"null","","html-keyboard-response","369","2760659","0.0-6.0-2.49","","<div style=""font-size:60px;"">+</div>","null","","","","","","",""
"392.30000000074506","","image-keyboard-response","370","2761053","0.0-6.0-0.50","","img/purple.png","32","trial","32","true","0.6,0.4","3:go_c","",""
"null","","html-keyboard-response","371","2762064","0.0-6.0-1.50","","<img src=""img/purple-n.png"" border=""10"">","null","trial","32","","0.6,0.4","3:go_c","0",""
"null","","html-keyboard-response","372","2763071","0.0-6.0-2.50","","<div style=""font-size:60px;"">+</div>","null","","","","","","",""
"412.7000000011176","","image-keyboard-response","373","2763485","0.0-6.0-0.51","","img/grey.png","32","trial","null","false","0.2,0.8","2:nogo_b","",""
"null","","html-keyboard-response","374","2764492","0.0-6.0-1.51","","<img src=""img/grey-r.png"" border=""10"">","null","trial","null","","0.2,0.8","2:nogo_b","1",""
"null","","html-keyboard-response","375","2765494","0.0-6.0-2.51","","<div style=""font-size:60px;"">+</div>","null","","","","","","",""
"397.90000000037253","","image-keyboard-response","376","2765892","0.0-6.0-0.52","","img/grey.png","32","trial","null","false","0.2,0.8","2:nogo_b","",""
"null","","html-keyboard-response","377","2766901","0.0-6.0-1.52","","<img src=""img/grey-n.png"" border=""10"">","null","trial","null","","0.2,0.8","2:nogo_b","0",""
"null","","html-keyboard-response","378","2767916","0.0-6.0-2.52","","<div style=""font-size:60px;"">+</div>","null","","","","","","",""
"null","","image-keyboard-response","379","2769418","0.0-6.0-0.53","","img/red.png","null","trial","null","true","0.4,0.6","4:nogo_d","",""
"null","","html-keyboard-response","380","2770424","0.0-6.0-1.53","","<img src=""img/red-n.png"">","null","trial","null","","0.4,0.6","4:nogo_d","0",""
"null","","html-keyboard-response","381","2771436","0.0-6.0-2.53","","<div style=""font-size:60px;"">+</div>","null","","","","","","",""
"null","","image-keyboard-response","382","2772949","0.0-6.0-0.54","","img/green.png","null","trial","32","false","0.8,0.2","1:go_a","",""
"null","","html-keyboard-response","383","2773956","0.0-6.0-1.54","","<img src=""img/green-n.png"">","null","trial","32","","0.8,0.2","1:go_a","0",""
"null","","html-keyboard-response","384","2774961","0.0-6.0-2.54","","<div style=""font-size:60px;"">+</div>","null","","","","","","",""
"363","","image-keyboard-response","385","2775324","0.0-6.0-0.55","","img/purple.png","32","trial","32","true","0.6,0.4","3:go_c","",""
"null","","html-keyboard-response","386","2776335","0.0-6.0-1.55","","<img src=""img/purple-r.png"" border=""10"">","null","trial","32","","0.6,0.4","3:go_c","1",""
"null","","html-keyboard-response","387","2777342","0.0-6.0-2.55","","<div style=""font-size:60px;"">+</div>","null","","","","","","",""
"null","","image-keyboard-response","388","2778851","0.0-6.0-0.56","","img/green.png","null","trial","32","false","0.8,0.2","1:go_a","",""
"null","","html-keyboard-response","389","2779857","0.0-6.0-1.56","","<img src=""img/green-n.png"">","null","trial","32","","0.8,0.2","1:go_a","0",""
"null","","html-keyboard-response","390","2780873","0.0-6.0-2.56","","<div style=""font-size:60px;"">+</div>","null","","","","","","",""
"418","","image-keyboard-response","391","2781292","0.0-6.0-0.57","","img/purple.png","32","trial","32","true","0.6,0.4","3:go_c","",""
"null","","html-keyboard-response","392","2782300","0.0-6.0-1.57","","<img src=""img/purple-r.png"" border=""10"">","null","trial","32","","0.6,0.4","3:go_c","1",""
"null","","html-keyboard-response","393","2783307","0.0-6.0-2.57","","<div style=""font-size:60px;"">+</div>","null","","","","","","",""
"440.5","","image-keyboard-response","394","2783748","0.0-6.0-0.58","","img/grey.png","32","trial","null","false","0.2,0.8","2:nogo_b","",""
"null","","html-keyboard-response","395","2784764","0.0-6.0-1.58","","<img src=""img/grey-n.png"" border=""10"">","null","trial","null","","0.2,0.8","2:nogo_b","0",""
"null","","html-keyboard-response","396","2785768","0.0-6.0-2.58","","<div style=""font-size:60px;"">+</div>","null","","","","","","",""
"null","","image-keyboard-response","397","2787281","0.0-6.0-0.59","","img/red.png","null","trial","null","true","0.4,0.6","4:nogo_d","",""
"null","","html-keyboard-response","398","2788297","0.0-6.0-1.59","","<img src=""img/red-n.png"">","null","trial","null","","0.4,0.6","4:nogo_d","0",""
"null","","html-keyboard-response","399","2789313","0.0-6.0-2.59","","<div style=""font-size:60px;"">+</div>","null","","","","","","",""
"386.80000000074506","","image-keyboard-response","400","2789700","0.0-6.0-0.60","","img/grey.png","32","trial","null","false","0.2,0.8","2:nogo_b","",""
"null","","html-keyboard-response","401","2790702","0.0-6.0-1.60","","<img src=""img/grey-n.png"" border=""10"">","null","trial","null","","0.2,0.8","2:nogo_b","0",""
"null","","html-keyboard-response","402","2791708","0.0-6.0-2.60","","<div style=""font-size:60px;"">+</div>","null","","","","","","",""
"null","","image-keyboard-response","403","2793210","0.0-6.0-0.61","","img/red.png","null","trial","null","true","0.4,0.6","4:nogo_d","",""
"null","","html-keyboard-response","404","2794221","0.0-6.0-1.61","","<img src=""img/red-r.png"">","null","trial","null","","0.4,0.6","4:nogo_d","1",""
"null","","html-keyboard-response","405","2795227","0.0-6.0-2.61","","<div style=""font-size:60px;"">+</div>","null","","","","","","",""
"null","","image-keyboard-response","406","2796744","0.0-6.0-0.62","","img/green.png","null","trial","32","false","0.8,0.2","1:go_a","",""
"null","","html-keyboard-response","407","2797750","0.0-6.0-1.62","","<img src=""img/green-n.png"">","null","trial","32","","0.8,0.2","1:go_a","0",""
"null","","html-keyboard-response","408","2798753","0.0-6.0-2.62","","<div style=""font-size:60px;"">+</div>","null","","","","","","",""
"416.90000000037253","","image-keyboard-response","409","2799172","0.0-6.0-0.63","","img/purple.png","32","trial","32","true","0.6,0.4","3:go_c","",""
"null","","html-keyboard-response","410","2800177","0.0-6.0-1.63","","<img src=""img/purple-r.png"" border=""10"">","null","trial","32","","0.6,0.4","3:go_c","1",""
"null","","html-keyboard-response","411","2801179","0.0-6.0-2.63","","<div style=""font-size:60px;"">+</div>","null","","","","","","",""
"null","","image-keyboard-response","412","2802693","0.0-6.0-0.64","","img/green.png","null","trial","32","false","0.8,0.2","1:go_a","",""
"null","","html-keyboard-response","413","2803702","0.0-6.0-1.64","","<img src=""img/green-r.png"">","null","trial","32","","0.8,0.2","1:go_a","1",""
"null","","html-keyboard-response","414","2804706","0.0-6.0-2.64","","<div style=""font-size:60px;"">+</div>","null","","","","","","",""
"null","","image-keyboard-response","415","2806219","0.0-6.0-0.65","","img/red.png","null","trial","null","true","0.4,0.6","4:nogo_d","",""
"null","","html-keyboard-response","416","2807223","0.0-6.0-1.65","","<img src=""img/red-n.png"">","null","trial","null","","0.4,0.6","4:nogo_d","0",""
"null","","html-keyboard-response","417","2808237","0.0-6.0-2.65","","<div style=""font-size:60px;"">+</div>","null","","","","","","",""
"406.59999999962747","","image-keyboard-response","418","2808644","0.0-6.0-0.66","","img/grey.png","32","trial","null","false","0.2,0.8","2:nogo_b","",""
"null","","html-keyboard-response","419","2809655","0.0-6.0-1.66","","<img src=""img/grey-n.png"" border=""10"">","null","trial","null","","0.2,0.8","2:nogo_b","0",""
"null","","html-keyboard-response","420","2810661","0.0-6.0-2.66","","<div style=""font-size:60px;"">+</div>","null","","","","","","",""
"525.5999999996275","","image-keyboard-response","421","2811188","0.0-6.0-0.67","","img/purple.png","32","trial","32","true","0.6,0.4","3:go_c","",""
"null","","html-keyboard-response","422","2812190","0.0-6.0-1.67","","<img src=""img/purple-n.png"" border=""10"">","null","trial","32","","0.6,0.4","3:go_c","0",""
"null","","html-keyboard-response","423","2813195","0.0-6.0-2.67","","<div style=""font-size:60px;"">+</div>","null","","","","","","",""
"496.2000000011176","","image-keyboard-response","424","2813692","0.0-6.0-0.68","","img/grey.png","32","trial","null","false","0.2,0.8","2:nogo_b","",""
"null","","html-keyboard-response","425","2814704","0.0-6.0-1.68","","<img src=""img/grey-n.png"" border=""10"">","null","trial","null","","0.2,0.8","2:nogo_b","0",""
"null","","html-keyboard-response","426","2815721","0.0-6.0-2.68","","<div style=""font-size:60px;"">+</div>","null","","","","","","",""
"null","","image-keyboard-response","427","2817234","0.0-6.0-0.69","","img/green.png","null","trial","32","false","0.8,0.2","1:go_a","",""
"null","","html-keyboard-response","428","2818238","0.0-6.0-1.69","","<img src=""img/green-r.png"">","null","trial","32","","0.8,0.2","1:go_a","1",""
"null","","html-keyboard-response","429","2819243","0.0-6.0-2.69","","<div style=""font-size:60px;"">+</div>","null","","","","","","",""
"456.30000000074506","","image-keyboard-response","430","2819700","0.0-6.0-0.70","","img/purple.png","32","trial","32","true","0.6,0.4","3:go_c","",""
"null","","html-keyboard-response","431","2820712","0.0-6.0-1.70","","<img src=""img/purple-n.png"" border=""10"">","null","trial","32","","0.6,0.4","3:go_c","0",""
"null","","html-keyboard-response","432","2821715","0.0-6.0-2.70","","<div style=""font-size:60px;"">+</div>","null","","","","","","",""
"null","","image-keyboard-response","433","2823225","0.0-6.0-0.71","","img/red.png","null","trial","null","true","0.4,0.6","4:nogo_d","",""
"null","","html-keyboard-response","434","2824233","0.0-6.0-1.71","","<img src=""img/red-r.png"">","null","trial","null","","0.4,0.6","4:nogo_d","1",""
"null","","html-keyboard-response","435","2825236","0.0-6.0-2.71","","<div style=""font-size:60px;"">+</div>","null","","","","","","",""
"590.4000000003725","","image-keyboard-response","436","2825828","0.0-6.0-0.72","","img/purple.png","32","trial","32","true","0.6,0.4","3:go_c","",""
"null","","html-keyboard-response","437","2826843","0.0-6.0-1.72","","<img src=""img/purple-r.png"" border=""10"">","null","trial","32","","0.6,0.4","3:go_c","1",""
"null","","html-keyboard-response","438","2827859","0.0-6.0-2.72","","<div style=""font-size:60px;"">+</div>","null","","","","","","",""
"null","","image-keyboard-response","439","2829373","0.0-6.0-0.73","","img/green.png","null","trial","32","false","0.8,0.2","1:go_a","",""
"null","","html-keyboard-response","440","2830374","0.0-6.0-1.73","","<img src=""img/green-n.png"">","null","trial","32","","0.8,0.2","1:go_a","0",""
"null","","html-keyboard-response","441","2831383","0.0-6.0-2.73","","<div style=""font-size:60px;"">+</div>","null","","","","","","",""
"468","","image-keyboard-response","442","2831852","0.0-6.0-0.74","","img/grey.png","32","trial","null","false","0.2,0.8","2:nogo_b","",""
"null","","html-keyboard-response","443","2832865","0.0-6.0-1.74","","<img src=""img/grey-n.png"" border=""10"">","null","trial","null","","0.2,0.8","2:nogo_b","0",""
"null","","html-keyboard-response","444","2833867","0.0-6.0-2.74","","<div style=""font-size:60px;"">+</div>","null","","","","","","",""
"null","","image-keyboard-response","445","2835369","0.0-6.0-0.75","","img/red.png","null","trial","null","true","0.4,0.6","4:nogo_d","",""
"null","","html-keyboard-response","446","2836373","0.0-6.0-1.75","","<img src=""img/red-n.png"">","null","trial","null","","0.4,0.6","4:nogo_d","0",""
"null","","html-keyboard-response","447","2837376","0.0-6.0-2.75","","<div style=""font-size:60px;"">+</div>","null","","","","","","",""
"442.80000000074506","","image-keyboard-response","448","2837819","0.0-6.0-0.76","","img/purple.png","32","trial","32","true","0.6,0.4","3:go_c","",""
"null","","html-keyboard-response","449","2838834","0.0-6.0-1.76","","<img src=""img/purple-n.png"" border=""10"">","null","trial","32","","0.6,0.4","3:go_c","0",""
"null","","html-keyboard-response","450","2839836","0.0-6.0-2.76","","<div style=""font-size:60px;"">+</div>","null","","","","","","",""
"null","","image-keyboard-response","451","2841350","0.0-6.0-0.77","","img/green.png","null","trial","32","false","0.8,0.2","1:go_a","",""
"null","","html-keyboard-response","452","2842353","0.0-6.0-1.77","","<img src=""img/green-n.png"">","null","trial","32","","0.8,0.2","1:go_a","0",""
"null","","html-keyboard-response","453","2843362","0.0-6.0-2.77","","<div style=""font-size:60px;"">+</div>","null","","","","","","",""
"null","","image-keyboard-response","454","2844875","0.0-6.0-0.78","","img/red.png","null","trial","null","true","0.4,0.6","4:nogo_d","",""
"null","","html-keyboard-response","455","2845878","0.0-6.0-1.78","","<img src=""img/red-r.png"">","null","trial","null","","0.4,0.6","4:nogo_d","1",""
"null","","html-keyboard-response","456","2846880","0.0-6.0-2.78","","<div style=""font-size:60px;"">+</div>","null","","","","","","",""
"451.1000000014901","","image-keyboard-response","457","2847332","0.0-6.0-0.79","","img/grey.png","32","trial","null","false","0.2,0.8","2:nogo_b","",""
"null","","html-keyboard-response","458","2848344","0.0-6.0-1.79","","<img src=""img/grey-n.png"" border=""10"">","null","trial","null","","0.2,0.8","2:nogo_b","0",""
"null","","html-keyboard-response","459","2849349","0.0-6.0-2.79","","<div style=""font-size:60px;"">+</div>","null","","","","","","",""
"421.80000000074506","","image-keyboard-response","460","2849771","0.0-6.0-0.80","","img/purple.png","32","trial","32","true","0.6,0.4","3:go_c","",""
"null","","html-keyboard-response","461","2850784","0.0-6.0-1.80","","<img src=""img/purple-n.png"" border=""10"">","null","trial","32","","0.6,0.4","3:go_c","0",""
"null","","html-keyboard-response","462","2851795","0.0-6.0-2.80","","<div style=""font-size:60px;"">+</div>","null","","","","","","",""
"null","","image-keyboard-response","463","2853296","0.0-6.0-0.81","","img/red.png","null","trial","null","true","0.4,0.6","4:nogo_d","",""
"null","","html-keyboard-response","464","2854314","0.0-6.0-1.81","","<img src=""img/red-r.png"">","null","trial","null","","0.4,0.6","4:nogo_d","1",""
"null","","html-keyboard-response","465","2855318","0.0-6.0-2.81","","<div style=""font-size:60px;"">+</div>","null","","","","","","",""
"null","","image-keyboard-response","466","2856833","0.0-6.0-0.82","","img/grey.png","null","trial","null","true","0.2,0.8","2:nogo_b","",""
"null","","html-keyboard-response","467","2857836","0.0-6.0-1.82","","<img src=""img/grey-r.png"">","null","trial","null","","0.2,0.8","2:nogo_b","1",""
"null","","html-keyboard-response","468","2858841","0.0-6.0-2.82","","<div style=""font-size:60px;"">+</div>","null","","","","","","",""
"null","","image-keyboard-response","469","2860353","0.0-6.0-0.83","","img/green.png","null","trial","32","false","0.8,0.2","1:go_a","",""
"null","","html-keyboard-response","470","2861357","0.0-6.0-1.83","","<img src=""img/green-n.png"">","null","trial","32","","0.8,0.2","1:go_a","0",""
"null","","html-keyboard-response","471","2862363","0.0-6.0-2.83","","<div style=""font-size:60px;"">+</div>","null","","","","","","",""
"null","","image-keyboard-response","472","2863867","0.0-6.0-0.84","","img/green.png","null","trial","32","false","0.8,0.2","1:go_a","",""
"null","","html-keyboard-response","473","2864883","0.0-6.0-1.84","","<img src=""img/green-n.png"">","null","trial","32","","0.8,0.2","1:go_a","0",""
"null","","html-keyboard-response","474","2865899","0.0-6.0-2.84","","<div style=""font-size:60px;"">+</div>","null","","","","","","",""
"735.4000000003725","","image-keyboard-response","475","2866635","0.0-6.0-0.85","","img/red.png","32","trial","null","false","0.4,0.6","4:nogo_d","",""
"null","","html-keyboard-response","476","2867651","0.0-6.0-1.85","","<img src=""img/red-r.png"" border=""10"">","null","trial","null","","0.4,0.6","4:nogo_d","1",""
"null","","html-keyboard-response","477","2868662","0.0-6.0-2.85","","<div style=""font-size:60px;"">+</div>","null","","","","","","",""
"null","","image-keyboard-response","478","2870165","0.0-6.0-0.86","","img/grey.png","null","trial","null","true","0.2,0.8","2:nogo_b","",""
"null","","html-keyboard-response","479","2871170","0.0-6.0-1.86","","<img src=""img/grey-r.png"">","null","trial","null","","0.2,0.8","2:nogo_b","1",""
"null","","html-keyboard-response","480","2872174","0.0-6.0-2.86","","<div style=""font-size:60px;"">+</div>","null","","","","","","",""
"420.19999999925494","","image-keyboard-response","481","2872595","0.0-6.0-0.87","","img/purple.png","32","trial","32","true","0.6,0.4","3:go_c","",""
"null","","html-keyboard-response","482","2873599","0.0-6.0-1.87","","<img src=""img/purple-n.png"" border=""10"">","null","trial","32","","0.6,0.4","3:go_c","0",""
"null","","html-keyboard-response","483","2874606","0.0-6.0-2.87","","<div style=""font-size:60px;"">+</div>","null","","","","","","",""
"null","","image-keyboard-response","484","2876118","0.0-6.0-0.88","","img/grey.png","null","trial","null","true","0.2,0.8","2:nogo_b","",""
"null","","html-keyboard-response","485","2877126","0.0-6.0-1.88","","<img src=""img/grey-r.png"">","null","trial","null","","0.2,0.8","2:nogo_b","1",""
"null","","html-keyboard-response","486","2878135","0.0-6.0-2.88","","<div style=""font-size:60px;"">+</div>","null","","","","","","",""
"null","","image-keyboard-response","487","2879650","0.0-6.0-0.89","","img/purple.png","null","trial","32","false","0.6,0.4","3:go_c","",""
"null","","html-keyboard-response","488","2880666","0.0-6.0-1.89","","<img src=""img/purple-r.png"">","null","trial","32","","0.6,0.4","3:go_c","1",""
"null","","html-keyboard-response","489","2881674","0.0-6.0-2.89","","<div style=""font-size:60px;"">+</div>","null","","","","","","",""
"null","","image-keyboard-response","490","2883176","0.0-6.0-0.90","","img/green.png","null","trial","32","false","0.8,0.2","1:go_a","",""
"null","","html-keyboard-response","491","2884183","0.0-6.0-1.90","","<img src=""img/green-n.png"">","null","trial","32","","0.8,0.2","1:go_a","0",""
"null","","html-keyboard-response","492","2885186","0.0-6.0-2.90","","<div style=""font-size:60px;"">+</div>","null","","","","","","",""
"407.69999999925494","","image-keyboard-response","493","2885595","0.0-6.0-0.91","","img/red.png","32","trial","null","false","0.4,0.6","4:nogo_d","",""
"null","","html-keyboard-response","494","2886607","0.0-6.0-1.91","","<img src=""img/red-r.png"" border=""10"">","null","trial","null","","0.4,0.6","4:nogo_d","1",""
"null","","html-keyboard-response","495","2887612","0.0-6.0-2.91","","<div style=""font-size:60px;"">+</div>","null","","","","","","",""
"null","","image-keyboard-response","496","2889128","0.0-6.0-0.92","","img/grey.png","null","trial","null","true","0.2,0.8","2:nogo_b","",""
"null","","html-keyboard-response","497","2890142","0.0-6.0-1.92","","<img src=""img/grey-r.png"">","null","trial","null","","0.2,0.8","2:nogo_b","1",""
"null","","html-keyboard-response","498","2891144","0.0-6.0-2.92","","<div style=""font-size:60px;"">+</div>","null","","","","","","",""
"802","","image-keyboard-response","499","2891947","0.0-6.0-0.93","","img/purple.png","32","trial","32","true","0.6,0.4","3:go_c","",""
"null","","html-keyboard-response","500","2892952","0.0-6.0-1.93","","<img src=""img/purple-r.png"" border=""10"">","null","trial","32","","0.6,0.4","3:go_c","1",""
"null","","html-keyboard-response","501","2893957","0.0-6.0-2.93","","<div style=""font-size:60px;"">+</div>","null","","","","","","",""
"null","","image-keyboard-response","502","2895467","0.0-6.0-0.94","","img/green.png","null","trial","32","false","0.8,0.2","1:go_a","",""
"null","","html-keyboard-response","503","2896482","0.0-6.0-1.94","","<img src=""img/green-n.png"">","null","trial","32","","0.8,0.2","1:go_a","0",""
"null","","html-keyboard-response","504","2897488","0.0-6.0-2.94","","<div style=""font-size:60px;"">+</div>","null","","","","","","",""
"658.0999999996275","","image-keyboard-response","505","2898147","0.0-6.0-0.95","","img/red.png","32","trial","null","false","0.4,0.6","4:nogo_d","",""
"null","","html-keyboard-response","506","2899153","0.0-6.0-1.95","","<img src=""img/red-n.png"" border=""10"">","null","trial","null","","0.4,0.6","4:nogo_d","0",""
"null","","html-keyboard-response","507","2900157","0.0-6.0-2.95","","<div style=""font-size:60px;"">+</div>","null","","","","","","",""
"493.30000000074506","","image-keyboard-response","508","2900651","0.0-6.0-0.96","","img/red.png","32","trial","null","false","0.4,0.6","4:nogo_d","",""
"null","","html-keyboard-response","509","2901653","0.0-6.0-1.96","","<img src=""img/red-n.png"" border=""10"">","null","trial","null","","0.4,0.6","4:nogo_d","0",""
"null","","html-keyboard-response","510","2902668","0.0-6.0-2.96","","<div style=""font-size:60px;"">+</div>","null","","","","","","",""
"438.30000000074506","","image-keyboard-response","511","2903107","0.0-6.0-0.97","","img/purple.png","32","trial","32","true","0.6,0.4","3:go_c","",""
"null","","html-keyboard-response","512","2904122","0.0-6.0-1.97","","<img src=""img/purple-r.png"" border=""10"">","null","trial","32","","0.6,0.4","3:go_c","1",""
"null","","html-keyboard-response","513","2905126","0.0-6.0-2.97","","<div style=""font-size:60px;"">+</div>","null","","","","","","",""
"null","","image-keyboard-response","514","2906636","0.0-6.0-0.98","","img/grey.png","null","trial","null","true","0.2,0.8","2:nogo_b","",""
"null","","html-keyboard-response","515","2907653","0.0-6.0-1.98","","<img src=""img/grey-r.png"">","null","trial","null","","0.2,0.8","2:nogo_b","1",""
"null","","html-keyboard-response","516","2908655","0.0-6.0-2.98","","<div style=""font-size:60px;"">+</div>","null","","","","","","",""
"null","","image-keyboard-response","517","2910166","0.0-6.0-0.99","","img/green.png","null","trial","32","false","0.8,0.2","1:go_a","",""
"null","","html-keyboard-response","518","2911169","0.0-6.0-1.99","","<img src=""img/green-n.png"">","null","trial","32","","0.8,0.2","1:go_a","0",""
"null","","html-keyboard-response","519","2912172","0.0-6.0-2.99","","<div style=""font-size:60px;"">+</div>","null","","","","","","",""
"461.69999999925494","","image-keyboard-response","520","2912635","0.0-6.0-0.100","","img/purple.png","32","trial","32","true","0.6,0.4","3:go_c","",""
"null","","html-keyboard-response","521","2913643","0.0-6.0-1.100","","<img src=""img/purple-r.png"" border=""10"">","null","trial","32","","0.6,0.4","3:go_c","1",""
"null","","html-keyboard-response","522","2914649","0.0-6.0-2.100","","<div style=""font-size:60px;"">+</div>","null","","","","","","",""
"null","","image-keyboard-response","523","2916162","0.0-6.0-0.101","","img/green.png","null","trial","32","false","0.8,0.2","1:go_a","",""
"null","","html-keyboard-response","524","2917180","0.0-6.0-1.101","","<img src=""img/green-r.png"">","null","trial","32","","0.8,0.2","1:go_a","1",""
"null","","html-keyboard-response","525","2918187","0.0-6.0-2.101","","<div style=""font-size:60px;"">+</div>","null","","","","","","",""
"null","","image-keyboard-response","526","2919697","0.0-6.0-0.102","","img/grey.png","null","trial","null","true","0.2,0.8","2:nogo_b","",""
"null","","html-keyboard-response","527","2920706","0.0-6.0-1.102","","<img src=""img/grey-r.png"">","null","trial","null","","0.2,0.8","2:nogo_b","1",""
"null","","html-keyboard-response","528","2921720","0.0-6.0-2.102","","<div style=""font-size:60px;"">+</div>","null","","","","","","",""
"null","","image-keyboard-response","529","2923223","0.0-6.0-0.103","","img/red.png","null","trial","null","true","0.4,0.6","4:nogo_d","",""
"null","","html-keyboard-response","530","2924234","0.0-6.0-1.103","","<img src=""img/red-r.png"">","null","trial","null","","0.4,0.6","4:nogo_d","1",""
"null","","html-keyboard-response","531","2925241","0.0-6.0-2.103","","<div style=""font-size:60px;"">+</div>","null","","","","","","",""
"370.7000000011176","","image-keyboard-response","532","2925612","0.0-6.0-0.104","","img/purple.png","32","trial","32","true","0.6,0.4","3:go_c","",""
"null","","html-keyboard-response","533","2926627","0.0-6.0-1.104","","<img src=""img/purple-n.png"" border=""10"">","null","trial","32","","0.6,0.4","3:go_c","0",""
"null","","html-keyboard-response","534","2927638","0.0-6.0-2.104","","<div style=""font-size:60px;"">+</div>","null","","","","","","",""
"379.90000000037253","","image-keyboard-response","535","2928019","0.0-6.0-0.105","","img/grey.png","32","trial","null","false","0.2,0.8","2:nogo_b","",""
"null","","html-keyboard-response","536","2929021","0.0-6.0-1.105","","<img src=""img/grey-n.png"" border=""10"">","null","trial","null","","0.2,0.8","2:nogo_b","0",""
"null","","html-keyboard-response","537","2930037","0.0-6.0-2.105","","<div style=""font-size:60px;"">+</div>","null","","","","","","",""
"null","","image-keyboard-response","538","2931542","0.0-6.0-0.106","","img/red.png","null","trial","null","true","0.4,0.6","4:nogo_d","",""
"null","","html-keyboard-response","539","2932548","0.0-6.0-1.106","","<img src=""img/red-r.png"">","null","trial","null","","0.4,0.6","4:nogo_d","1",""
"null","","html-keyboard-response","540","2933551","0.0-6.0-2.106","","<div style=""font-size:60px;"">+</div>","null","","","","","","",""
"null","","image-keyboard-response","541","2935065","0.0-6.0-0.107","","img/green.png","null","trial","32","false","0.8,0.2","1:go_a","",""
"null","","html-keyboard-response","542","2936070","0.0-6.0-1.107","","<img src=""img/green-n.png"">","null","trial","32","","0.8,0.2","1:go_a","0",""
"null","","html-keyboard-response","543","2937074","0.0-6.0-2.107","","<div style=""font-size:60px;"">+</div>","null","","","","","","",""
"464.30000000074506","","image-keyboard-response","544","2937539","0.0-6.0-0.108","","img/grey.png","32","trial","null","false","0.2,0.8","2:nogo_b","",""
"null","","html-keyboard-response","545","2938544","0.0-6.0-1.108","","<img src=""img/grey-n.png"" border=""10"">","null","trial","null","","0.2,0.8","2:nogo_b","0",""
"null","","html-keyboard-response","546","2939548","0.0-6.0-2.108","","<div style=""font-size:60px;"">+</div>","null","","","","","","",""
"1029.6000000014901","","image-keyboard-response","547","2940578","0.0-6.0-0.109","","img/red.png","32","trial","null","false","0.4,0.6","4:nogo_d","",""
"null","","html-keyboard-response","548","2941581","0.0-6.0-1.109","","<img src=""img/red-r.png"" border=""10"">","null","trial","null","","0.4,0.6","4:nogo_d","1",""
"null","","html-keyboard-response","549","2942583","0.0-6.0-2.109","","<div style=""font-size:60px;"">+</div>","null","","","","","","",""
"690.5","","image-keyboard-response","550","2943275","0.0-6.0-0.110","","img/purple.png","32","trial","32","true","0.6,0.4","3:go_c","",""
"null","","html-keyboard-response","551","2944286","0.0-6.0-1.110","","<img src=""img/purple-n.png"" border=""10"">","null","trial","32","","0.6,0.4","3:go_c","0",""
"null","","html-keyboard-response","552","2945290","0.0-6.0-2.110","","<div style=""font-size:60px;"">+</div>","null","","","","","","",""
"null","","image-keyboard-response","553","2946803","0.0-6.0-0.111","","img/green.png","null","trial","32","false","0.8,0.2","1:go_a","",""
"null","","html-keyboard-response","554","2947807","0.0-6.0-1.111","","<img src=""img/green-n.png"">","null","trial","32","","0.8,0.2","1:go_a","0",""
"null","","html-keyboard-response","555","2948815","0.0-6.0-2.111","","<div style=""font-size:60px;"">+</div>","null","","","","","","",""
"370.30000000074506","","image-keyboard-response","556","2949187","0.0-6.0-0.112","","img/red.png","32","trial","null","false","0.4,0.6","4:nogo_d","",""
"null","","html-keyboard-response","557","2950191","0.0-6.0-1.112","","<img src=""img/red-n.png"" border=""10"">","null","trial","null","","0.4,0.6","4:nogo_d","0",""
"null","","html-keyboard-response","558","2951195","0.0-6.0-2.112","","<div style=""font-size:60px;"">+</div>","null","","","","","","",""
"1486.0999999996275","","image-keyboard-response","559","2952682","0.0-6.0-0.113","","img/grey.png","32","trial","null","false","0.2,0.8","2:nogo_b","",""
"null","","html-keyboard-response","560","2953691","0.0-6.0-1.113","","<img src=""img/grey-n.png"" border=""10"">","null","trial","null","","0.2,0.8","2:nogo_b","0",""
"null","","html-keyboard-response","561","2954699","0.0-6.0-2.113","","<div style=""font-size:60px;"">+</div>","null","","","","","","",""
"1094.5","","image-keyboard-response","562","2955795","0.0-6.0-0.114","","img/purple.png","32","trial","32","true","0.6,0.4","3:go_c","",""
"null","","html-keyboard-response","563","2956801","0.0-6.0-1.114","","<img src=""img/purple-r.png"" border=""10"">","null","trial","32","","0.6,0.4","3:go_c","1",""
"null","","html-keyboard-response","564","2957803","0.0-6.0-2.114","","<div style=""font-size:60px;"">+</div>","null","","","","","","",""
"null","","image-keyboard-response","565","2959313","0.0-6.0-0.115","","img/green.png","null","trial","32","false","0.8,0.2","1:go_a","",""
"null","","html-keyboard-response","566","2960318","0.0-6.0-1.115","","<img src=""img/green-n.png"">","null","trial","32","","0.8,0.2","1:go_a","0",""
"null","","html-keyboard-response","567","2961333","0.0-6.0-2.115","","<div style=""font-size:60px;"">+</div>","null","","","","","","",""
"652.4000000003725","","image-keyboard-response","568","2961986","0.0-6.0-0.116","","img/red.png","32","trial","null","false","0.4,0.6","4:nogo_d","",""
"null","","html-keyboard-response","569","2963003","0.0-6.0-1.116","","<img src=""img/red-r.png"" border=""10"">","null","trial","null","","0.4,0.6","4:nogo_d","1",""
"null","","html-keyboard-response","570","2964008","0.0-6.0-2.116","","<div style=""font-size:60px;"">+</div>","null","","","","","","",""
"null","","image-keyboard-response","571","2965517","0.0-6.0-0.117","","img/green.png","null","trial","32","false","0.8,0.2","1:go_a","",""
"null","","html-keyboard-response","572","2966527","0.0-6.0-1.117","","<img src=""img/green-r.png"">","null","trial","32","","0.8,0.2","1:go_a","1",""
"null","","html-keyboard-response","573","2967535","0.0-6.0-2.117","","<div style=""font-size:60px;"">+</div>","null","","","","","","",""
"442.90000000037253","","image-keyboard-response","574","2967978","0.0-6.0-0.118","","img/purple.png","32","trial","32","true","0.6,0.4","3:go_c","",""
"null","","html-keyboard-response","575","2968987","0.0-6.0-1.118","","<img src=""img/purple-r.png"" border=""10"">","null","trial","32","","0.6,0.4","3:go_c","1",""
"null","","html-keyboard-response","576","2969992","0.0-6.0-2.118","","<div style=""font-size:60px;"">+</div>","null","","","","","","",""
"null","","image-keyboard-response","577","2971507","0.0-6.0-0.119","","img/grey.png","null","trial","null","true","0.2,0.8","2:nogo_b","",""
"null","","html-keyboard-response","578","2972514","0.0-6.0-1.119","","<img src=""img/grey-r.png"">","null","trial","null","","0.2,0.8","2:nogo_b","1",""
"null","","html-keyboard-response","579","2973518","0.0-6.0-2.119","","<div style=""font-size:60px;"">+</div>","null","","","","","","",""
"68163.90000000037","","instructions","580","3041682","0.0-7.0","[{""page_index"":0,""viewing_time"":68163.60000000149}]","","","","","","","","",""
"718.5","","image-keyboard-response","581","3042402","0.0-8.0-0.0","","img/green.png","32","trial","null","false","0.2,0.8","2:nogo_b","",""
"null","","html-keyboard-response","582","3043405","0.0-8.0-1.0","","<img src=""img/green-n.png"" border=""10"">","null","trial","null","","0.2,0.8","2:nogo_b","0",""
"null","","html-keyboard-response","583","3044410","0.0-8.0-2.0","","<div style=""font-size:60px;"">+</div>","null","","","","","","",""
"495","","image-keyboard-response","584","3044905","0.0-8.0-0.1","","img/orange.png","32","trial","null","false","0,1","4:nogo_d","",""
"null","","html-keyboard-response","585","3045913","0.0-8.0-1.1","","<img src=""img/orange-n.png"" border=""10"">","null","trial","null","","0,1","4:nogo_d","0",""
"null","","html-keyboard-response","586","3046932","0.0-8.0-2.1","","<div style=""font-size:60px;"">+</div>","null","","","","","","",""
"452.7000000011176","","image-keyboard-response","587","3047386","0.0-8.0-0.2","","img/blue.png","32","trial","32","true","1,0","3:go_c","",""
"null","","html-keyboard-response","588","3048398","0.0-8.0-1.2","","<img src=""img/blue-r.png"" border=""10"">","null","trial","32","","1,0","3:go_c","1",""
"null","","html-keyboard-response","589","3049413","0.0-8.0-2.2","","<div style=""font-size:60px;"">+</div>","null","","","","","","",""
"507.5","","image-keyboard-response","590","3049922","0.0-8.0-0.3","","img/yellow.png","32","trial","32","true","0.8,0.2","1:go_a","",""
"null","","html-keyboard-response","591","3050928","0.0-8.0-1.3","","<img src=""img/yellow-n.png"" border=""10"">","null","trial","32","","0.8,0.2","1:go_a","0",""
"null","","html-keyboard-response","592","3051933","0.0-8.0-2.3","","<div style=""font-size:60px;"">+</div>","null","","","","","","",""
"492.30000000074506","","image-keyboard-response","593","3052426","0.0-8.0-0.4","","img/blue.png","32","trial","32","true","1,0","3:go_c","",""
"null","","html-keyboard-response","594","3053431","0.0-8.0-1.4","","<img src=""img/blue-r.png"" border=""10"">","null","trial","32","","1,0","3:go_c","1",""
"null","","html-keyboard-response","595","3054436","0.0-8.0-2.4","","<div style=""font-size:60px;"">+</div>","null","","","","","","",""
"564.4000000003725","","image-keyboard-response","596","3055001","0.0-8.0-0.5","","img/yellow.png","32","trial","32","true","0.8,0.2","1:go_a","",""
"null","","html-keyboard-response","597","3056017","0.0-8.0-1.5","","<img src=""img/yellow-r.png"" border=""10"">","null","trial","32","","0.8,0.2","1:go_a","1",""
"null","","html-keyboard-response","598","3057024","0.0-8.0-2.5","","<div style=""font-size:60px;"">+</div>","null","","","","","","",""
"null","","image-keyboard-response","599","3058538","0.0-8.0-0.6","","img/green.png","null","trial","null","true","0.2,0.8","2:nogo_b","",""
"null","","html-keyboard-response","600","3059548","0.0-8.0-1.6","","<img src=""img/green-r.png"">","null","trial","null","","0.2,0.8","2:nogo_b","1",""
"null","","html-keyboard-response","601","3060551","0.0-8.0-2.6","","<div style=""font-size:60px;"">+</div>","null","","","","","","",""
"null","","image-keyboard-response","602","3062060","0.0-8.0-0.7","","img/orange.png","null","trial","null","true","0,1","4:nogo_d","",""
"null","","html-keyboard-response","603","3063065","0.0-8.0-1.7","","<img src=""img/orange-r.png"">","null","trial","null","","0,1","4:nogo_d","1",""
"null","","html-keyboard-response","604","3064072","0.0-8.0-2.7","","<div style=""font-size:60px;"">+</div>","null","","","","","","",""
"432.69999999925494","","image-keyboard-response","605","3064506","0.0-8.0-0.8","","img/blue.png","32","trial","32","true","1,0","3:go_c","",""
"null","","html-keyboard-response","606","3065508","0.0-8.0-1.8","","<img src=""img/blue-r.png"" border=""10"">","null","trial","32","","1,0","3:go_c","1",""
"null","","html-keyboard-response","607","3066516","0.0-8.0-2.8","","<div style=""font-size:60px;"">+</div>","null","","","","","","",""
"null","","image-keyboard-response","608","3068030","0.0-8.0-0.9","","img/green.png","null","trial","null","true","0.2,0.8","2:nogo_b","",""
"null","","html-keyboard-response","609","3069036","0.0-8.0-1.9","","<img src=""img/green-r.png"">","null","trial","null","","0.2,0.8","2:nogo_b","1",""
"null","","html-keyboard-response","610","3070044","0.0-8.0-2.9","","<div style=""font-size:60px;"">+</div>","null","","","","","","",""
"null","","image-keyboard-response","611","3071559","0.0-8.0-0.10","","img/orange.png","null","trial","null","true","0,1","4:nogo_d","",""
"null","","html-keyboard-response","612","3072564","0.0-8.0-1.10","","<img src=""img/orange-r.png"">","null","trial","null","","0,1","4:nogo_d","1",""
"null","","html-keyboard-response","613","3073572","0.0-8.0-2.10","","<div style=""font-size:60px;"">+</div>","null","","","","","","",""
"1004.8000000007451","","image-keyboard-response","614","3074577","0.0-8.0-0.11","","img/yellow.png","32","trial","32","true","0.8,0.2","1:go_a","",""
"null","","html-keyboard-response","615","3075587","0.0-8.0-1.11","","<img src=""img/yellow-n.png"" border=""10"">","null","trial","32","","0.8,0.2","1:go_a","0",""
"null","","html-keyboard-response","616","3076592","0.0-8.0-2.11","","<div style=""font-size:60px;"">+</div>","null","","","","","","",""
"null","","image-keyboard-response","617","3078104","0.0-8.0-0.12","","img/orange.png","null","trial","null","true","0,1","4:nogo_d","",""
"null","","html-keyboard-response","618","3079112","0.0-8.0-1.12","","<img src=""img/orange-r.png"">","null","trial","null","","0,1","4:nogo_d","1",""
"null","","html-keyboard-response","619","3080120","0.0-8.0-2.12","","<div style=""font-size:60px;"">+</div>","null","","","","","","",""
"624.1999999992549","","image-keyboard-response","620","3080745","0.0-8.0-0.13","","img/yellow.png","32","trial","32","true","0.8,0.2","1:go_a","",""
"null","","html-keyboard-response","621","3081748","0.0-8.0-1.13","","<img src=""img/yellow-r.png"" border=""10"">","null","trial","32","","0.8,0.2","1:go_a","1",""
"null","","html-keyboard-response","622","3082751","0.0-8.0-2.13","","<div style=""font-size:60px;"">+</div>","null","","","","","","",""
"457.80000000074506","","image-keyboard-response","623","3083209","0.0-8.0-0.14","","img/blue.png","32","trial","32","true","1,0","3:go_c","",""
"null","","html-keyboard-response","624","3084212","0.0-8.0-1.14","","<img src=""img/blue-r.png"" border=""10"">","null","trial","32","","1,0","3:go_c","1",""
"null","","html-keyboard-response","625","3085220","0.0-8.0-2.14","","<div style=""font-size:60px;"">+</div>","null","","","","","","",""
"null","","image-keyboard-response","626","3086733","0.0-8.0-0.15","","img/green.png","null","trial","null","true","0.2,0.8","2:nogo_b","",""
"null","","html-keyboard-response","627","3087750","0.0-8.0-1.15","","<img src=""img/green-n.png"">","null","trial","null","","0.2,0.8","2:nogo_b","0",""
"null","","html-keyboard-response","628","3088754","0.0-8.0-2.15","","<div style=""font-size:60px;"">+</div>","null","","","","","","",""
"374.69999999925494","","image-keyboard-response","629","3089129","0.0-8.0-0.16","","img/blue.png","32","trial","32","true","1,0","3:go_c","",""
"null","","html-keyboard-response","630","3090131","0.0-8.0-1.16","","<img src=""img/blue-r.png"" border=""10"">","null","trial","32","","1,0","3:go_c","1",""
"null","","html-keyboard-response","631","3091138","0.0-8.0-2.16","","<div style=""font-size:60px;"">+</div>","null","","","","","","",""
"null","","image-keyboard-response","632","3092651","0.0-8.0-0.17","","img/yellow.png","null","trial","32","false","0.8,0.2","1:go_a","",""
"null","","html-keyboard-response","633","3093668","0.0-8.0-1.17","","<img src=""img/yellow-n.png"">","null","trial","32","","0.8,0.2","1:go_a","0",""
"null","","html-keyboard-response","634","3094678","0.0-8.0-2.17","","<div style=""font-size:60px;"">+</div>","null","","","","","","",""
"null","","image-keyboard-response","635","3096188","0.0-8.0-0.18","","img/orange.png","null","trial","null","true","0,1","4:nogo_d","",""
"null","","html-keyboard-response","636","3097194","0.0-8.0-1.18","","<img src=""img/orange-r.png"">","null","trial","null","","0,1","4:nogo_d","1",""
"null","","html-keyboard-response","637","3098199","0.0-8.0-2.18","","<div style=""font-size:60px;"">+</div>","null","","","","","","",""
"null","","image-keyboard-response","638","3099708","0.0-8.0-0.19","","img/green.png","null","trial","null","true","0.2,0.8","2:nogo_b","",""
"null","","html-keyboard-response","639","3100713","0.0-8.0-1.19","","<img src=""img/green-r.png"">","null","trial","null","","0.2,0.8","2:nogo_b","1",""
"null","","html-keyboard-response","640","3101716","0.0-8.0-2.19","","<div style=""font-size:60px;"">+</div>","null","","","","","","",""
"317","","image-keyboard-response","641","3102034","0.0-8.0-0.20","","img/blue.png","32","trial","32","true","1,0","3:go_c","",""
"null","","html-keyboard-response","642","3103040","0.0-8.0-1.20","","<img src=""img/blue-r.png"" border=""10"">","null","trial","32","","1,0","3:go_c","1",""
"null","","html-keyboard-response","643","3104045","0.0-8.0-2.20","","<div style=""font-size:60px;"">+</div>","null","","","","","","",""
"null","","image-keyboard-response","644","3105556","0.0-8.0-0.21","","img/yellow.png","null","trial","32","false","0.8,0.2","1:go_a","",""
"null","","html-keyboard-response","645","3106573","0.0-8.0-1.21","","<img src=""img/yellow-n.png"">","null","trial","32","","0.8,0.2","1:go_a","0",""
"null","","html-keyboard-response","646","3107583","0.0-8.0-2.21","","<div style=""font-size:60px;"">+</div>","null","","","","","","",""
"null","","image-keyboard-response","647","3109090","0.0-8.0-0.22","","img/green.png","null","trial","null","true","0.2,0.8","2:nogo_b","",""
"null","","html-keyboard-response","648","3110097","0.0-8.0-1.22","","<img src=""img/green-r.png"">","null","trial","null","","0.2,0.8","2:nogo_b","1",""
"null","","html-keyboard-response","649","3111112","0.0-8.0-2.22","","<div style=""font-size:60px;"">+</div>","null","","","","","","",""
"null","","image-keyboard-response","650","3112613","0.0-8.0-0.23","","img/orange.png","null","trial","null","true","0,1","4:nogo_d","",""
"null","","html-keyboard-response","651","3113620","0.0-8.0-1.23","","<img src=""img/orange-r.png"">","null","trial","null","","0,1","4:nogo_d","1",""
"null","","html-keyboard-response","652","3114626","0.0-8.0-2.23","","<div style=""font-size:60px;"">+</div>","null","","","","","","",""
"430.5","","image-keyboard-response","653","3115057","0.0-8.0-0.24","","img/orange.png","32","trial","null","false","0,1","4:nogo_d","",""
"null","","html-keyboard-response","654","3116067","0.0-8.0-1.24","","<img src=""img/orange-n.png"" border=""10"">","null","trial","null","","0,1","4:nogo_d","0",""
"null","","html-keyboard-response","655","3117074","0.0-8.0-2.24","","<div style=""font-size:60px;"">+</div>","null","","","","","","",""
"742.5999999996275","","image-keyboard-response","656","3117818","0.0-8.0-0.25","","img/yellow.png","32","trial","32","true","0.8,0.2","1:go_a","",""
"null","","html-keyboard-response","657","3118831","0.0-8.0-1.25","","<img src=""img/yellow-r.png"" border=""10"">","null","trial","32","","0.8,0.2","1:go_a","1",""
"null","","html-keyboard-response","658","3119840","0.0-8.0-2.25","","<div style=""font-size:60px;"">+</div>","null","","","","","","",""
"null","","image-keyboard-response","659","3121352","0.0-8.0-0.26","","img/green.png","null","trial","null","true","0.2,0.8","2:nogo_b","",""
"null","","html-keyboard-response","660","3122360","0.0-8.0-1.26","","<img src=""img/green-r.png"">","null","trial","null","","0.2,0.8","2:nogo_b","1",""
"null","","html-keyboard-response","661","3123363","0.0-8.0-2.26","","<div style=""font-size:60px;"">+</div>","null","","","","","","",""
"412.7000000011176","","image-keyboard-response","662","3123777","0.0-8.0-0.27","","img/blue.png","32","trial","32","true","1,0","3:go_c","",""
"null","","html-keyboard-response","663","3124787","0.0-8.0-1.27","","<img src=""img/blue-r.png"" border=""10"">","null","trial","32","","1,0","3:go_c","1",""
"null","","html-keyboard-response","664","3125794","0.0-8.0-2.27","","<div style=""font-size:60px;"">+</div>","null","","","","","","",""
"382.09999999962747","","image-keyboard-response","665","3126177","0.0-8.0-0.28","","img/yellow.png","32","trial","32","true","0.8,0.2","1:go_a","",""
"null","","html-keyboard-response","666","3127186","0.0-8.0-1.28","","<img src=""img/yellow-r.png"" border=""10"">","null","trial","32","","0.8,0.2","1:go_a","1",""
"null","","html-keyboard-response","667","3128193","0.0-8.0-2.28","","<div style=""font-size:60px;"">+</div>","null","","","","","","",""
"null","","image-keyboard-response","668","3129701","0.0-8.0-0.29","","img/orange.png","null","trial","null","true","0,1","4:nogo_d","",""
"null","","html-keyboard-response","669","3130707","0.0-8.0-1.29","","<img src=""img/orange-r.png"">","null","trial","null","","0,1","4:nogo_d","1",""
"null","","html-keyboard-response","670","3131711","0.0-8.0-2.29","","<div style=""font-size:60px;"">+</div>","null","","","","","","",""
"401","","image-keyboard-response","671","3132113","0.0-8.0-0.30","","img/blue.png","32","trial","32","true","1,0","3:go_c","",""
"null","","html-keyboard-response","672","3133117","0.0-8.0-1.30","","<img src=""img/blue-r.png"" border=""10"">","null","trial","32","","1,0","3:go_c","1",""
"null","","html-keyboard-response","673","3134119","0.0-8.0-2.30","","<div style=""font-size:60px;"">+</div>","null","","","","","","",""
"null","","image-keyboard-response","674","3135636","0.0-8.0-0.31","","img/green.png","null","trial","null","true","0.2,0.8","2:nogo_b","",""
"null","","html-keyboard-response","675","3136651","0.0-8.0-1.31","","<img src=""img/green-r.png"">","null","trial","null","","0.2,0.8","2:nogo_b","1",""
"null","","html-keyboard-response","676","3137666","0.0-8.0-2.31","","<div style=""font-size:60px;"">+</div>","null","","","","","","",""
"318.2999999988824","","image-keyboard-response","677","3137985","0.0-8.0-0.32","","img/blue.png","32","trial","32","true","1,0","3:go_c","",""
"null","","html-keyboard-response","678","3138997","0.0-8.0-1.32","","<img src=""img/blue-r.png"" border=""10"">","null","trial","32","","1,0","3:go_c","1",""
