"rt","url","trial_type","trial_index","time_elapsed","internal_node_id","view_history","stimulus","key_press","test_part","correct_response","correct","use_rew","which_stim","reward","responses"
"10648","consent.html","external-html","0","10669","0.0-0.0","","","","","","","","","",""
"120167","","instructions","1","130838","0.0-1.0","[{""page_index"":0,""viewing_time"":3716},{""page_index"":1,""viewing_time"":18204},{""page_index"":2,""viewing_time"":9628},{""page_index"":3,""viewing_time"":40037},{""page_index"":4,""viewing_time"":14103},{""page_index"":5,""viewing_time"":11470},{""page_index"":6,""viewing_time"":23008}]","","","","","","","","",""
"904","","image-keyboard-response","2","131746","0.0-2.0-0.0","","img/test1.PNG","32","practice","32","true","","","",""
"null","","html-keyboard-response","3","132758","0.0-2.0-1.0","","<img src=""img/test1-reward.PNG"" border=""10px; grey"">","null","","","","","","",""
"null","","html-keyboard-response","4","133773","0.0-2.0-2.0","","<div style=""font-size:60px;"">+</div>","null","","","","","","",""
"null","","image-keyboard-response","5","135290","0.0-2.0-0.1","","img/test2.PNG","null","practice","null","true","","","",""
"null","","html-keyboard-response","6","136306","0.0-2.0-1.1","","<img src=""img/test2-reward.PNG"">","null","","","","","","",""
"null","","html-keyboard-response","7","137320","0.0-2.0-2.1","","<div style=""font-size:60px;"">+</div>","null","","","","","","",""
"null","","image-keyboard-response","8","138836","0.0-2.0-0.2","","img/test3.PNG","null","practice","null","true","","","",""
"null","","html-keyboard-response","9","139849","0.0-2.0-1.2","","<img src=""img/test3-reward.PNG"">","null","","","","","","",""
"null","","html-keyboard-response","10","140852","0.0-2.0-2.2","","<div style=""font-size:60px;"">+</div>","null","","","","","","",""
"null","","image-keyboard-response","11","142356","0.0-2.0-0.3","","img/test2.PNG","null","practice","null","true","","","",""
"null","","html-keyboard-response","12","143372","0.0-2.0-1.3","","<img src=""img/test2-reward.PNG"">","null","","","","","","",""
"null","","html-keyboard-response","13","144385","0.0-2.0-2.3","","<div style=""font-size:60px;"">+</div>","null","","","","","","",""
"null","","image-keyboard-response","14","145893","0.0-2.0-0.4","","img/test3.PNG","null","practice","null","true","","","",""
"null","","html-keyboard-response","15","146898","0.0-2.0-1.4","","<img src=""img/test3-reward.PNG"">","null","","","","","","",""
"null","","html-keyboard-response","16","147914","0.0-2.0-2.4","","<div style=""font-size:60px;"">+</div>","null","","","","","","",""
"492","","image-keyboard-response","17","148407","0.0-2.0-0.5","","img/test1.PNG","32","practice","32","true","","","",""
"null","","html-keyboard-response","18","149410","0.0-2.0-1.5","","<img src=""img/test1-reward.PNG"" border=""10px; grey"">","null","","","","","","",""
"null","","html-keyboard-response","19","150412","0.0-2.0-2.5","","<div style=""font-size:60px;"">+</div>","null","","","","","","",""
"null","","image-keyboard-response","20","151926","0.0-2.0-0.6","","img/test2.PNG","null","practice","null","true","","","",""
"null","","html-keyboard-response","21","152930","0.0-2.0-1.6","","<img src=""img/test2-reward.PNG"">","null","","","","","","",""
"null","","html-keyboard-response","22","153931","0.0-2.0-2.6","","<div style=""font-size:60px;"">+</div>","null","","","","","","",""
"null","","image-keyboard-response","23","155433","0.0-2.0-0.7","","img/test3.PNG","null","practice","null","true","","","",""
"null","","html-keyboard-response","24","156436","0.0-2.0-1.7","","<img src=""img/test3-reward.PNG"">","null","","","","","","",""
"null","","html-keyboard-response","25","157441","0.0-2.0-2.7","","<div style=""font-size:60px;"">+</div>","null","","","","","","",""
"445","","image-keyboard-response","26","157888","0.0-2.0-0.8","","img/test1.PNG","32","practice","32","true","","","",""
"null","","html-keyboard-response","27","158897","0.0-2.0-1.8","","<img src=""img/test1-reward.PNG"" border=""10px; grey"">","null","","","","","","",""
"null","","html-keyboard-response","28","159911","0.0-2.0-2.8","","<div style=""font-size:60px;"">+</div>","null","","","","","","",""
"null","","image-keyboard-response","29","161417","0.0-2.0-0.9","","img/test2.PNG","null","practice","null","true","","","",""
"null","","html-keyboard-response","30","162420","0.0-2.0-1.9","","<img src=""img/test2-reward.PNG"">","null","","","","","","",""
"null","","html-keyboard-response","31","163421","0.0-2.0-2.9","","<div style=""font-size:60px;"">+</div>","null","","","","","","",""
"null","","image-keyboard-response","32","164923","0.0-2.0-0.10","","img/test3.PNG","null","practice","null","true","","","",""
"null","","html-keyboard-response","33","165938","0.0-2.0-1.10","","<img src=""img/test3-reward.PNG"">","null","","","","","","",""
"null","","html-keyboard-response","34","166943","0.0-2.0-2.10","","<div style=""font-size:60px;"">+</div>","null","","","","","","",""
"510","","image-keyboard-response","35","167454","0.0-2.0-0.11","","img/test1.PNG","32","practice","32","true","","","",""
"null","","html-keyboard-response","36","168455","0.0-2.0-1.11","","<img src=""img/test1-reward.PNG"" border=""10px; grey"">","null","","","","","","",""
"null","","html-keyboard-response","37","169457","0.0-2.0-2.11","","<div style=""font-size:60px;"">+</div>","null","","","","","","",""
"8242","","instructions","38","177699","0.0-3.0","[{""page_index"":0,""viewing_time"":8242}]","","","","","","","","",""
"631","","image-keyboard-response","39","178331","0.0-4.0-0.0","","img/green.png","32","trial","32","true","0.8,0.2","1:go_a","",""
"null","","html-keyboard-response","40","179345","0.0-4.0-1.0","","<img src=""img/green-r.png"" border=""10"">","null","trial","32","","0.8,0.2","1:go_a","1",""
"null","","html-keyboard-response","41","180352","0.0-4.0-2.0","","<div style=""font-size:60px;"">+</div>","null","","","","","","",""
"673","","image-keyboard-response","42","181026","0.0-4.0-0.1","","img/yellow.png","32","trial","null","false","0.2,0.8","2:nogo_b","",""
"null","","html-keyboard-response","43","182034","0.0-4.0-1.1","","<img src=""img/yellow-r.png"" border=""10"">","null","trial","null","","0.2,0.8","2:nogo_b","1",""
"null","","html-keyboard-response","44","183039","0.0-4.0-2.1","","<div style=""font-size:60px;"">+</div>","null","","","","","","",""
"636","","image-keyboard-response","45","183676","0.0-4.0-0.2","","img/yellow.png","32","trial","null","false","0.2,0.8","2:nogo_b","",""
"null","","html-keyboard-response","46","184681","0.0-4.0-1.2","","<img src=""img/yellow-n.png"" border=""10"">","null","trial","null","","0.2,0.8","2:nogo_b","0",""
"null","","html-keyboard-response","47","185686","0.0-4.0-2.2","","<div style=""font-size:60px;"">+</div>","null","","","","","","",""
"581","","image-keyboard-response","48","186268","0.0-4.0-0.3","","img/green.png","32","trial","32","true","0.8,0.2","1:go_a","",""
"null","","html-keyboard-response","49","187270","0.0-4.0-1.3","","<img src=""img/green-r.png"" border=""10"">","null","trial","32","","0.8,0.2","1:go_a","1",""
"null","","html-keyboard-response","50","188271","0.0-4.0-2.3","","<div style=""font-size:60px;"">+</div>","null","","","","","","",""
"null","","image-keyboard-response","51","189784","0.0-4.0-0.4","","img/yellow.png","null","trial","null","true","0.2,0.8","2:nogo_b","",""
"null","","html-keyboard-response","52","190799","0.0-4.0-1.4","","<img src=""img/yellow-r.png"">","null","trial","null","","0.2,0.8","2:nogo_b","1",""
"null","","html-keyboard-response","53","191814","0.0-4.0-2.4","","<div style=""font-size:60px;"">+</div>","null","","","","","","",""
"576","","image-keyboard-response","54","192391","0.0-4.0-0.5","","img/green.png","32","trial","32","true","0.8,0.2","1:go_a","",""
"null","","html-keyboard-response","55","193394","0.0-4.0-1.5","","<img src=""img/green-r.png"" border=""10"">","null","trial","32","","0.8,0.2","1:go_a","1",""
"null","","html-keyboard-response","56","194397","0.0-4.0-2.5","","<div style=""font-size:60px;"">+</div>","null","","","","","","",""
"null","","image-keyboard-response","57","195899","0.0-4.0-0.6","","img/yellow.png","null","trial","null","true","0.2,0.8","2:nogo_b","",""
"null","","html-keyboard-response","58","196906","0.0-4.0-1.6","","<img src=""img/yellow-n.png"">","null","trial","null","","0.2,0.8","2:nogo_b","0",""
"null","","html-keyboard-response","59","197910","0.0-4.0-2.6","","<div style=""font-size:60px;"">+</div>","null","","","","","","",""
"478","","image-keyboard-response","60","198389","0.0-4.0-0.7","","img/green.png","32","trial","32","true","0.8,0.2","1:go_a","",""
"null","","html-keyboard-response","61","199391","0.0-4.0-1.7","","<img src=""img/green-n.png"" border=""10"">","null","trial","32","","0.8,0.2","1:go_a","0",""
"null","","html-keyboard-response","62","200400","0.0-4.0-2.7","","<div style=""font-size:60px;"">+</div>","null","","","","","","",""
"562","","image-keyboard-response","63","200963","0.0-4.0-0.8","","img/yellow.png","32","trial","null","false","0.2,0.8","2:nogo_b","",""
"null","","html-keyboard-response","64","201976","0.0-4.0-1.8","","<img src=""img/yellow-n.png"" border=""10"">","null","trial","null","","0.2,0.8","2:nogo_b","0",""
"null","","html-keyboard-response","65","202990","0.0-4.0-2.8","","<div style=""font-size:60px;"">+</div>","null","","","","","","",""
"601","","image-keyboard-response","66","203592","0.0-4.0-0.9","","img/green.png","32","trial","32","true","0.8,0.2","1:go_a","",""
"null","","html-keyboard-response","67","204604","0.0-4.0-1.9","","<img src=""img/green-r.png"" border=""10"">","null","trial","32","","0.8,0.2","1:go_a","1",""
"null","","html-keyboard-response","68","205618","0.0-4.0-2.9","","<div style=""font-size:60px;"">+</div>","null","","","","","","",""
"null","","image-keyboard-response","69","207119","0.0-4.0-0.10","","img/yellow.png","null","trial","null","true","0.2,0.8","2:nogo_b","",""
"null","","html-keyboard-response","70","208122","0.0-4.0-1.10","","<img src=""img/yellow-n.png"">","null","trial","null","","0.2,0.8","2:nogo_b","0",""
"null","","html-keyboard-response","71","209136","0.0-4.0-2.10","","<div style=""font-size:60px;"">+</div>","null","","","","","","",""
"410","","image-keyboard-response","72","209548","0.0-4.0-0.11","","img/green.png","32","trial","32","true","0.8,0.2","1:go_a","",""
"null","","html-keyboard-response","73","210557","0.0-4.0-1.11","","<img src=""img/green-r.png"" border=""10"">","null","trial","32","","0.8,0.2","1:go_a","1",""
"null","","html-keyboard-response","74","211568","0.0-4.0-2.11","","<div style=""font-size:60px;"">+</div>","null","","","","","","",""
"767","","image-keyboard-response","75","212336","0.0-4.0-0.12","","img/green.png","32","trial","32","true","0.8,0.2","1:go_a","",""
"null","","html-keyboard-response","76","213337","0.0-4.0-1.12","","<img src=""img/green-r.png"" border=""10"">","null","trial","32","","0.8,0.2","1:go_a","1",""
"null","","html-keyboard-response","77","214353","0.0-4.0-2.12","","<div style=""font-size:60px;"">+</div>","null","","","","","","",""
"null","","image-keyboard-response","78","215860","0.0-4.0-0.13","","img/yellow.png","null","trial","null","true","0.2,0.8","2:nogo_b","",""
"null","","html-keyboard-response","79","216861","0.0-4.0-1.13","","<img src=""img/yellow-r.png"">","null","trial","null","","0.2,0.8","2:nogo_b","1",""
"null","","html-keyboard-response","80","217864","0.0-4.0-2.13","","<div style=""font-size:60px;"">+</div>","null","","","","","","",""
"546","","image-keyboard-response","81","218411","0.0-4.0-0.14","","img/green.png","32","trial","32","true","0.8,0.2","1:go_a","",""
"null","","html-keyboard-response","82","219415","0.0-4.0-1.14","","<img src=""img/green-r.png"" border=""10"">","null","trial","32","","0.8,0.2","1:go_a","1",""
"null","","html-keyboard-response","83","220430","0.0-4.0-2.14","","<div style=""font-size:60px;"">+</div>","null","","","","","","",""
"null","","image-keyboard-response","84","221936","0.0-4.0-0.15","","img/yellow.png","null","trial","null","true","0.2,0.8","2:nogo_b","",""
"null","","html-keyboard-response","85","222948","0.0-4.0-1.15","","<img src=""img/yellow-n.png"">","null","trial","null","","0.2,0.8","2:nogo_b","0",""
"null","","html-keyboard-response","86","223961","0.0-4.0-2.15","","<div style=""font-size:60px;"">+</div>","null","","","","","","",""
"null","","image-keyboard-response","87","225475","0.0-4.0-0.16","","img/yellow.png","null","trial","null","true","0.2,0.8","2:nogo_b","",""
"null","","html-keyboard-response","88","226490","0.0-4.0-1.16","","<img src=""img/yellow-r.png"">","null","trial","null","","0.2,0.8","2:nogo_b","1",""
"null","","html-keyboard-response","89","227491","0.0-4.0-2.16","","<div style=""font-size:60px;"">+</div>","null","","","","","","",""
"486","","image-keyboard-response","90","227978","0.0-4.0-0.17","","img/green.png","32","trial","32","true","0.8,0.2","1:go_a","",""
"null","","html-keyboard-response","91","228982","0.0-4.0-1.17","","<img src=""img/green-r.png"" border=""10"">","null","trial","32","","0.8,0.2","1:go_a","1",""
"null","","html-keyboard-response","92","229989","0.0-4.0-2.17","","<div style=""font-size:60px;"">+</div>","null","","","","","","",""
"null","","image-keyboard-response","93","231503","0.0-4.0-0.18","","img/yellow.png","null","trial","null","true","0.2,0.8","2:nogo_b","",""
"null","","html-keyboard-response","94","232511","0.0-4.0-1.18","","<img src=""img/yellow-n.png"">","null","trial","null","","0.2,0.8","2:nogo_b","0",""
"null","","html-keyboard-response","95","233525","0.0-4.0-2.18","","<div style=""font-size:60px;"">+</div>","null","","","","","","",""
"582","","image-keyboard-response","96","234109","0.0-4.0-0.19","","img/green.png","32","trial","32","true","0.8,0.2","1:go_a","",""
"null","","html-keyboard-response","97","235115","0.0-4.0-1.19","","<img src=""img/green-r.png"" border=""10"">","null","trial","32","","0.8,0.2","1:go_a","1",""
"null","","html-keyboard-response","98","236129","0.0-4.0-2.19","","<div style=""font-size:60px;"">+</div>","null","","","","","","",""
"null","","image-keyboard-response","99","237647","0.0-4.0-0.20","","img/yellow.png","null","trial","null","true","0.2,0.8","2:nogo_b","",""
"null","","html-keyboard-response","100","238662","0.0-4.0-1.20","","<img src=""img/yellow-r.png"">","null","trial","null","","0.2,0.8","2:nogo_b","1",""
"null","","html-keyboard-response","101","239669","0.0-4.0-2.20","","<div style=""font-size:60px;"">+</div>","null","","","","","","",""
"464","","image-keyboard-response","102","240133","0.0-4.0-0.21","","img/green.png","32","trial","32","true","0.8,0.2","1:go_a","",""
"null","","html-keyboard-response","103","241143","0.0-4.0-1.21","","<img src=""img/green-r.png"" border=""10"">","null","trial","32","","0.8,0.2","1:go_a","1",""
"null","","html-keyboard-response","104","242158","0.0-4.0-2.21","","<div style=""font-size:60px;"">+</div>","null","","","","","","",""
"792","","image-keyboard-response","105","242952","0.0-4.0-0.22","","img/green.png","32","trial","32","true","0.8,0.2","1:go_a","",""
"null","","html-keyboard-response","106","243961","0.0-4.0-1.22","","<img src=""img/green-r.png"" border=""10"">","null","trial","32","","0.8,0.2","1:go_a","1",""
"null","","html-keyboard-response","107","244963","0.0-4.0-2.22","","<div style=""font-size:60px;"">+</div>","null","","","","","","",""
"null","","image-keyboard-response","108","246469","0.0-4.0-0.23","","img/yellow.png","null","trial","null","true","0.2,0.8","2:nogo_b","",""
"null","","html-keyboard-response","109","247472","0.0-4.0-1.23","","<img src=""img/yellow-r.png"">","null","trial","null","","0.2,0.8","2:nogo_b","1",""
"null","","html-keyboard-response","110","248472","0.0-4.0-2.23","","<div style=""font-size:60px;"">+</div>","null","","","","","","",""
"null","","image-keyboard-response","111","249978","0.0-4.0-0.24","","img/yellow.png","null","trial","null","true","0.2,0.8","2:nogo_b","",""
"null","","html-keyboard-response","112","250981","0.0-4.0-1.24","","<img src=""img/yellow-r.png"">","null","trial","null","","0.2,0.8","2:nogo_b","1",""
"null","","html-keyboard-response","113","251994","0.0-4.0-2.24","","<div style=""font-size:60px;"">+</div>","null","","","","","","",""
"713","","image-keyboard-response","114","252709","0.0-4.0-0.25","","img/green.png","32","trial","32","true","0.8,0.2","1:go_a","",""
"null","","html-keyboard-response","115","253711","0.0-4.0-1.25","","<img src=""img/green-r.png"" border=""10"">","null","trial","32","","0.8,0.2","1:go_a","1",""
"null","","html-keyboard-response","116","254727","0.0-4.0-2.25","","<div style=""font-size:60px;"">+</div>","null","","","","","","",""
"506","","image-keyboard-response","117","255234","0.0-4.0-0.26","","img/green.png","32","trial","32","true","0.8,0.2","1:go_a","",""
"null","","html-keyboard-response","118","256242","0.0-4.0-1.26","","<img src=""img/green-r.png"" border=""10"">","null","trial","32","","0.8,0.2","1:go_a","1",""
"null","","html-keyboard-response","119","257257","0.0-4.0-2.26","","<div style=""font-size:60px;"">+</div>","null","","","","","","",""
"null","","image-keyboard-response","120","258770","0.0-4.0-0.27","","img/yellow.png","null","trial","null","true","0.2,0.8","2:nogo_b","",""
"null","","html-keyboard-response","121","259783","0.0-4.0-1.27","","<img src=""img/yellow-r.png"">","null","trial","null","","0.2,0.8","2:nogo_b","1",""
"null","","html-keyboard-response","122","260783","0.0-4.0-2.27","","<div style=""font-size:60px;"">+</div>","null","","","","","","",""
"546","","image-keyboard-response","123","261331","0.0-4.0-0.28","","img/green.png","32","trial","32","true","0.8,0.2","1:go_a","",""
"null","","html-keyboard-response","124","262336","0.0-4.0-1.28","","<img src=""img/green-r.png"" border=""10"">","null","trial","32","","0.8,0.2","1:go_a","1",""
"null","","html-keyboard-response","125","263342","0.0-4.0-2.28","","<div style=""font-size:60px;"">+</div>","null","","","","","","",""
"null","","image-keyboard-response","126","264858","0.0-4.0-0.29","","img/yellow.png","null","trial","null","true","0.2,0.8","2:nogo_b","",""
"null","","html-keyboard-response","127","265863","0.0-4.0-1.29","","<img src=""img/yellow-r.png"">","null","trial","null","","0.2,0.8","2:nogo_b","1",""
"null","","html-keyboard-response","128","266869","0.0-4.0-2.29","","<div style=""font-size:60px;"">+</div>","null","","","","","","",""
"440","","image-keyboard-response","129","267310","0.0-4.0-0.30","","img/green.png","32","trial","32","true","0.8,0.2","1:go_a","",""
"null","","html-keyboard-response","130","268317","0.0-4.0-1.30","","<img src=""img/green-n.png"" border=""10"">","null","trial","32","","0.8,0.2","1:go_a","0",""
"null","","html-keyboard-response","131","269320","0.0-4.0-2.30","","<div style=""font-size:60px;"">+</div>","null","","","","","","",""
"null","","image-keyboard-response","132","270827","0.0-4.0-0.31","","img/yellow.png","null","trial","null","true","0.2,0.8","2:nogo_b","",""
"null","","html-keyboard-response","133","271833","0.0-4.0-1.31","","<img src=""img/yellow-r.png"">","null","trial","null","","0.2,0.8","2:nogo_b","1",""
"null","","html-keyboard-response","134","272835","0.0-4.0-2.31","","<div style=""font-size:60px;"">+</div>","null","","","","","","",""
"450","","image-keyboard-response","135","273286","0.0-4.0-0.32","","img/green.png","32","trial","32","true","0.8,0.2","1:go_a","",""
"null","","html-keyboard-response","136","274300","0.0-4.0-1.32","","<img src=""img/green-r.png"" border=""10"">","null","trial","32","","0.8,0.2","1:go_a","1",""
"null","","html-keyboard-response","137","275314","0.0-4.0-2.32","","<div style=""font-size:60px;"">+</div>","null","","","","","","",""
"null","","image-keyboard-response","138","276822","0.0-4.0-0.33","","img/yellow.png","null","trial","null","true","0.2,0.8","2:nogo_b","",""
"null","","html-keyboard-response","139","277824","0.0-4.0-1.33","","<img src=""img/yellow-r.png"">","null","trial","null","","0.2,0.8","2:nogo_b","1",""
"null","","html-keyboard-response","140","278840","0.0-4.0-2.33","","<div style=""font-size:60px;"">+</div>","null","","","","","","",""
"null","","image-keyboard-response","141","280346","0.0-4.0-0.34","","img/yellow.png","null","trial","null","true","0.2,0.8","2:nogo_b","",""
"null","","html-keyboard-response","142","281350","0.0-4.0-1.34","","<img src=""img/yellow-n.png"">","null","trial","null","","0.2,0.8","2:nogo_b","0",""
"null","","html-keyboard-response","143","282364","0.0-4.0-2.34","","<div style=""font-size:60px;"">+</div>","null","","","","","","",""
"400","","image-keyboard-response","144","282764","0.0-4.0-0.35","","img/green.png","32","trial","32","true","0.8,0.2","1:go_a","",""
"null","","html-keyboard-response","145","283772","0.0-4.0-1.35","","<img src=""img/green-r.png"" border=""10"">","null","trial","32","","0.8,0.2","1:go_a","1",""
"null","","html-keyboard-response","146","284775","0.0-4.0-2.35","","<div style=""font-size:60px;"">+</div>","null","","","","","","",""
"null","","image-keyboard-response","147","286290","0.0-4.0-0.36","","img/yellow.png","null","trial","null","true","0.2,0.8","2:nogo_b","",""
"null","","html-keyboard-response","148","287293","0.0-4.0-1.36","","<img src=""img/yellow-r.png"">","null","trial","null","","0.2,0.8","2:nogo_b","1",""
"null","","html-keyboard-response","149","288306","0.0-4.0-2.36","","<div style=""font-size:60px;"">+</div>","null","","","","","","",""
"463","","image-keyboard-response","150","288770","0.0-4.0-0.37","","img/green.png","32","trial","32","true","0.8,0.2","1:go_a","",""
"null","","html-keyboard-response","151","289775","0.0-4.0-1.37","","<img src=""img/green-r.png"" border=""10"">","null","trial","32","","0.8,0.2","1:go_a","1",""
"null","","html-keyboard-response","152","290786","0.0-4.0-2.37","","<div style=""font-size:60px;"">+</div>","null","","","","","","",""
"null","","image-keyboard-response","153","292289","0.0-4.0-0.38","","img/yellow.png","null","trial","null","true","0.2,0.8","2:nogo_b","",""
"null","","html-keyboard-response","154","293294","0.0-4.0-1.38","","<img src=""img/yellow-r.png"">","null","trial","null","","0.2,0.8","2:nogo_b","1",""
"null","","html-keyboard-response","155","294298","0.0-4.0-2.38","","<div style=""font-size:60px;"">+</div>","null","","","","","","",""
"453","","image-keyboard-response","156","294752","0.0-4.0-0.39","","img/green.png","32","trial","32","true","0.8,0.2","1:go_a","",""
"null","","html-keyboard-response","157","295756","0.0-4.0-1.39","","<img src=""img/green-r.png"" border=""10"">","null","trial","32","","0.8,0.2","1:go_a","1",""
"null","","html-keyboard-response","158","296771","0.0-4.0-2.39","","<div style=""font-size:60px;"">+</div>","null","","","","","","",""
"null","","image-keyboard-response","159","298273","0.0-4.0-0.40","","img/yellow.png","null","trial","null","true","0.2,0.8","2:nogo_b","",""
"null","","html-keyboard-response","160","299288","0.0-4.0-1.40","","<img src=""img/yellow-r.png"">","null","trial","null","","0.2,0.8","2:nogo_b","1",""
"null","","html-keyboard-response","161","300290","0.0-4.0-2.40","","<div style=""font-size:60px;"">+</div>","null","","","","","","",""
"392","","image-keyboard-response","162","300683","0.0-4.0-0.41","","img/green.png","32","trial","32","true","0.8,0.2","1:go_a","",""
"null","","html-keyboard-response","163","301694","0.0-4.0-1.41","","<img src=""img/green-r.png"" border=""10"">","null","trial","32","","0.8,0.2","1:go_a","1",""
"null","","html-keyboard-response","164","302701","0.0-4.0-2.41","","<div style=""font-size:60px;"">+</div>","null","","","","","","",""
"null","","image-keyboard-response","165","304211","0.0-4.0-0.42","","img/yellow.png","null","trial","null","true","0.2,0.8","2:nogo_b","",""
"null","","html-keyboard-response","166","305215","0.0-4.0-1.42","","<img src=""img/yellow-r.png"">","null","trial","null","","0.2,0.8","2:nogo_b","1",""
"null","","html-keyboard-response","167","306230","0.0-4.0-2.42","","<div style=""font-size:60px;"">+</div>","null","","","","","","",""
"425","","image-keyboard-response","168","306656","0.0-4.0-0.43","","img/green.png","32","trial","32","true","0.8,0.2","1:go_a","",""
"null","","html-keyboard-response","169","307663","0.0-4.0-1.43","","<img src=""img/green-r.png"" border=""10"">","null","trial","32","","0.8,0.2","1:go_a","1",""
"null","","html-keyboard-response","170","308664","0.0-4.0-2.43","","<div style=""font-size:60px;"">+</div>","null","","","","","","",""
"912","","image-keyboard-response","171","309577","0.0-4.0-0.44","","img/green.png","32","trial","32","true","0.8,0.2","1:go_a","",""
"null","","html-keyboard-response","172","310585","0.0-4.0-1.44","","<img src=""img/green-r.png"" border=""10"">","null","trial","32","","0.8,0.2","1:go_a","1",""
"null","","html-keyboard-response","173","311589","0.0-4.0-2.44","","<div style=""font-size:60px;"">+</div>","null","","","","","","",""
"null","","image-keyboard-response","174","313100","0.0-4.0-0.45","","img/yellow.png","null","trial","null","true","0.2,0.8","2:nogo_b","",""
"null","","html-keyboard-response","175","314114","0.0-4.0-1.45","","<img src=""img/yellow-n.png"">","null","trial","null","","0.2,0.8","2:nogo_b","0",""
"null","","html-keyboard-response","176","315117","0.0-4.0-2.45","","<div style=""font-size:60px;"">+</div>","null","","","","","","",""
"null","","image-keyboard-response","177","316623","0.0-4.0-0.46","","img/yellow.png","null","trial","null","true","0.2,0.8","2:nogo_b","",""
"null","","html-keyboard-response","178","317637","0.0-4.0-1.46","","<img src=""img/yellow-r.png"">","null","trial","null","","0.2,0.8","2:nogo_b","1",""
"null","","html-keyboard-response","179","318643","0.0-4.0-2.46","","<div style=""font-size:60px;"">+</div>","null","","","","","","",""
"422","","image-keyboard-response","180","319066","0.0-4.0-0.47","","img/green.png","32","trial","32","true","0.8,0.2","1:go_a","",""
"null","","html-keyboard-response","181","320078","0.0-4.0-1.47","","<img src=""img/green-r.png"" border=""10"">","null","trial","32","","0.8,0.2","1:go_a","1",""
"null","","html-keyboard-response","182","321083","0.0-4.0-2.47","","<div style=""font-size:60px;"">+</div>","null","","","","","","",""
"851","","image-keyboard-response","183","321934","0.0-4.0-0.48","","img/green.png","32","trial","32","true","0.8,0.2","1:go_a","",""
"null","","html-keyboard-response","184","322941","0.0-4.0-1.48","","<img src=""img/green-r.png"" border=""10"">","null","trial","32","","0.8,0.2","1:go_a","1",""
"null","","html-keyboard-response","185","323944","0.0-4.0-2.48","","<div style=""font-size:60px;"">+</div>","null","","","","","","",""
"null","","image-keyboard-response","186","325444","0.0-4.0-0.49","","img/yellow.png","null","trial","null","true","0.2,0.8","2:nogo_b","",""
"null","","html-keyboard-response","187","326460","0.0-4.0-1.49","","<img src=""img/yellow-r.png"">","null","trial","null","","0.2,0.8","2:nogo_b","1",""
"null","","html-keyboard-response","188","327474","0.0-4.0-2.49","","<div style=""font-size:60px;"">+</div>","null","","","","","","",""
"null","","image-keyboard-response","189","328978","0.0-4.0-0.50","","img/yellow.png","null","trial","null","true","0.2,0.8","2:nogo_b","",""
"null","","html-keyboard-response","190","329993","0.0-4.0-1.50","","<img src=""img/yellow-n.png"">","null","trial","null","","0.2,0.8","2:nogo_b","0",""
"null","","html-keyboard-response","191","331005","0.0-4.0-2.50","","<div style=""font-size:60px;"">+</div>","null","","","","","","",""
"550","","image-keyboard-response","192","331557","0.0-4.0-0.51","","img/green.png","32","trial","32","true","0.8,0.2","1:go_a","",""
"null","","html-keyboard-response","193","332570","0.0-4.0-1.51","","<img src=""img/green-r.png"" border=""10"">","null","trial","32","","0.8,0.2","1:go_a","1",""
"null","","html-keyboard-response","194","333584","0.0-4.0-2.51","","<div style=""font-size:60px;"">+</div>","null","","","","","","",""
"null","","image-keyboard-response","195","335097","0.0-4.0-0.52","","img/yellow.png","null","trial","null","true","0.2,0.8","2:nogo_b","",""
"null","","html-keyboard-response","196","336099","0.0-4.0-1.52","","<img src=""img/yellow-n.png"">","null","trial","null","","0.2,0.8","2:nogo_b","0",""
"null","","html-keyboard-response","197","337105","0.0-4.0-2.52","","<div style=""font-size:60px;"">+</div>","null","","","","","","",""
"627","","image-keyboard-response","198","337733","0.0-4.0-0.53","","img/green.png","32","trial","32","true","0.8,0.2","1:go_a","",""
"null","","html-keyboard-response","199","338736","0.0-4.0-1.53","","<img src=""img/green-r.png"" border=""10"">","null","trial","32","","0.8,0.2","1:go_a","1",""
"null","","html-keyboard-response","200","339744","0.0-4.0-2.53","","<div style=""font-size:60px;"">+</div>","null","","","","","","",""
"564","","image-keyboard-response","201","340308","0.0-4.0-0.54","","img/green.png","32","trial","32","true","0.8,0.2","1:go_a","",""
"null","","html-keyboard-response","202","341317","0.0-4.0-1.54","","<img src=""img/green-r.png"" border=""10"">","null","trial","32","","0.8,0.2","1:go_a","1",""
"null","","html-keyboard-response","203","342319","0.0-4.0-2.54","","<div style=""font-size:60px;"">+</div>","null","","","","","","",""
"null","","image-keyboard-response","204","343824","0.0-4.0-0.55","","img/yellow.png","null","trial","null","true","0.2,0.8","2:nogo_b","",""
"null","","html-keyboard-response","205","344839","0.0-4.0-1.55","","<img src=""img/yellow-r.png"">","null","trial","null","","0.2,0.8","2:nogo_b","1",""
"null","","html-keyboard-response","206","345851","0.0-4.0-2.55","","<div style=""font-size:60px;"">+</div>","null","","","","","","",""
"null","","image-keyboard-response","207","347353","0.0-4.0-0.56","","img/yellow.png","null","trial","null","true","0.2,0.8","2:nogo_b","",""
"null","","html-keyboard-response","208","348355","0.0-4.0-1.56","","<img src=""img/yellow-n.png"">","null","trial","null","","0.2,0.8","2:nogo_b","0",""
"null","","html-keyboard-response","209","349371","0.0-4.0-2.56","","<div style=""font-size:60px;"">+</div>","null","","","","","","",""
"458","","image-keyboard-response","210","349830","0.0-4.0-0.57","","img/green.png","32","trial","32","true","0.8,0.2","1:go_a","",""
"null","","html-keyboard-response","211","350847","0.0-4.0-1.57","","<img src=""img/green-r.png"" border=""10"">","null","trial","32","","0.8,0.2","1:go_a","1",""
"null","","html-keyboard-response","212","351862","0.0-4.0-2.57","","<div style=""font-size:60px;"">+</div>","null","","","","","","",""
"650","","image-keyboard-response","213","352513","0.0-4.0-0.58","","img/green.png","32","trial","32","true","0.8,0.2","1:go_a","",""
"null","","html-keyboard-response","214","353515","0.0-4.0-1.58","","<img src=""img/green-r.png"" border=""10"">","null","trial","32","","0.8,0.2","1:go_a","1",""
"null","","html-keyboard-response","215","354519","0.0-4.0-2.58","","<div style=""font-size:60px;"">+</div>","null","","","","","","",""
"null","","image-keyboard-response","216","356028","0.0-4.0-0.59","","img/yellow.png","null","trial","null","true","0.2,0.8","2:nogo_b","",""
"null","","html-keyboard-response","217","357041","0.0-4.0-1.59","","<img src=""img/yellow-r.png"">","null","trial","null","","0.2,0.8","2:nogo_b","1",""
"null","","html-keyboard-response","218","358052","0.0-4.0-2.59","","<div style=""font-size:60px;"">+</div>","null","","","","","","",""
"3692","","instructions","219","361742","0.0-5.0","[{""page_index"":0,""viewing_time"":3691}]","","","","","","","","",""
"963","","image-keyboard-response","220","362708","0.0-6.0-0.0","","img/red.png","32","trial","null","false","0.2,0.8","4:nogo_d","",""
"null","","html-keyboard-response","221","363712","0.0-6.0-1.0","","<img src=""img/red-r.png"" border=""10"">","null","trial","null","","0.2,0.8","4:nogo_d","1",""
"null","","html-keyboard-response","222","364724","0.0-6.0-2.0","","<div style=""font-size:60px;"">+</div>","null","","","","","","",""
"600","","image-keyboard-response","223","365325","0.0-6.0-0.1","","img/grey.png","32","trial","32","true","0.8,0.2","3:go_c","",""
"null","","html-keyboard-response","224","366330","0.0-6.0-1.1","","<img src=""img/grey-r.png"" border=""10"">","null","trial","32","","0.8,0.2","3:go_c","1",""
"null","","html-keyboard-response","225","367332","0.0-6.0-2.1","","<div style=""font-size:60px;"">+</div>","null","","","","","","",""
"671","","image-keyboard-response","226","368005","0.0-6.0-0.2","","img/pink.png","32","trial","32","true","0.8,0.2","1:go_a","",""
"null","","html-keyboard-response","227","369018","0.0-6.0-1.2","","<img src=""img/pink-r.png"" border=""10"">","null","trial","32","","0.8,0.2","1:go_a","1",""
"null","","html-keyboard-response","228","370023","0.0-6.0-2.2","","<div style=""font-size:60px;"">+</div>","null","","","","","","",""
"686","","image-keyboard-response","229","370710","0.0-6.0-0.3","","img/blue.png","32","trial","null","false","0.2,0.8","2:nogo_b","",""
"null","","html-keyboard-response","230","371724","0.0-6.0-1.3","","<img src=""img/blue-n.png"" border=""10"">","null","trial","null","","0.2,0.8","2:nogo_b","0",""
"null","","html-keyboard-response","231","372725","0.0-6.0-2.3","","<div style=""font-size:60px;"">+</div>","null","","","","","","",""
"null","","image-keyboard-response","232","374238","0.0-6.0-0.4","","img/blue.png","null","trial","null","true","0.2,0.8","2:nogo_b","",""
"null","","html-keyboard-response","233","375242","0.0-6.0-1.4","","<img src=""img/blue-r.png"">","null","trial","null","","0.2,0.8","2:nogo_b","1",""
"null","","html-keyboard-response","234","376255","0.0-6.0-2.4","","<div style=""font-size:60px;"">+</div>","null","","","","","","",""
"574","","image-keyboard-response","235","376829","0.0-6.0-0.5","","img/red.png","32","trial","null","false","0.2,0.8","4:nogo_d","",""
"null","","html-keyboard-response","236","377845","0.0-6.0-1.5","","<img src=""img/red-n.png"" border=""10"">","null","trial","null","","0.2,0.8","4:nogo_d","0",""
"null","","html-keyboard-response","237","378860","0.0-6.0-2.5","","<div style=""font-size:60px;"">+</div>","null","","","","","","",""
"613","","image-keyboard-response","238","379474","0.0-6.0-0.6","","img/grey.png","32","trial","32","true","0.8,0.2","3:go_c","",""
"null","","html-keyboard-response","239","380486","0.0-6.0-1.6","","<img src=""img/grey-r.png"" border=""10"">","null","trial","32","","0.8,0.2","3:go_c","1",""
"null","","html-keyboard-response","240","381501","0.0-6.0-2.6","","<div style=""font-size:60px;"">+</div>","null","","","","","","",""
"514","","image-keyboard-response","241","382017","0.0-6.0-0.7","","img/pink.png","32","trial","32","true","0.8,0.2","1:go_a","",""
"null","","html-keyboard-response","242","383019","0.0-6.0-1.7","","<img src=""img/pink-r.png"" border=""10"">","null","trial","32","","0.8,0.2","1:go_a","1",""
"null","","html-keyboard-response","243","384032","0.0-6.0-2.7","","<div style=""font-size:60px;"">+</div>","null","","","","","","",""
"606","","image-keyboard-response","244","384639","0.0-6.0-0.8","","img/pink.png","32","trial","32","true","0.8,0.2","1:go_a","",""
"null","","html-keyboard-response","245","385643","0.0-6.0-1.8","","<img src=""img/pink-r.png"" border=""10"">","null","trial","32","","0.8,0.2","1:go_a","1",""
"null","","html-keyboard-response","246","386656","0.0-6.0-2.8","","<div style=""font-size:60px;"">+</div>","null","","","","","","",""
"408","","image-keyboard-response","247","387064","0.0-6.0-0.9","","img/grey.png","32","trial","32","true","0.8,0.2","3:go_c","",""
"null","","html-keyboard-response","248","388073","0.0-6.0-1.9","","<img src=""img/grey-r.png"" border=""10"">","null","trial","32","","0.8,0.2","3:go_c","1",""
"null","","html-keyboard-response","249","389073","0.0-6.0-2.9","","<div style=""font-size:60px;"">+</div>","null","","","","","","",""
"null","","image-keyboard-response","250","390576","0.0-6.0-0.10","","img/blue.png","null","trial","null","true","0.2,0.8","2:nogo_b","",""
"null","","html-keyboard-response","251","391577","0.0-6.0-1.10","","<img src=""img/blue-n.png"">","null","trial","null","","0.2,0.8","2:nogo_b","0",""
"null","","html-keyboard-response","252","392592","0.0-6.0-2.10","","<div style=""font-size:60px;"">+</div>","null","","","","","","",""
"null","","image-keyboard-response","253","394092","0.0-6.0-0.11","","img/red.png","null","trial","null","true","0.2,0.8","4:nogo_d","",""
"null","","html-keyboard-response","254","395108","0.0-6.0-1.11","","<img src=""img/red-r.png"">","null","trial","null","","0.2,0.8","4:nogo_d","1",""
"null","","html-keyboard-response","255","396109","0.0-6.0-2.11","","<div style=""font-size:60px;"">+</div>","null","","","","","","",""
"561","","image-keyboard-response","256","396671","0.0-6.0-0.12","","img/grey.png","32","trial","32","true","0.8,0.2","3:go_c","",""
"null","","html-keyboard-response","257","397684","0.0-6.0-1.12","","<img src=""img/grey-r.png"" border=""10"">","null","trial","32","","0.8,0.2","3:go_c","1",""
"null","","html-keyboard-response","258","398684","0.0-6.0-2.12","","<div style=""font-size:60px;"">+</div>","null","","","","","","",""
"null","","image-keyboard-response","259","400187","0.0-6.0-0.13","","img/red.png","null","trial","null","true","0.2,0.8","4:nogo_d","",""
"null","","html-keyboard-response","260","401189","0.0-6.0-1.13","","<img src=""img/red-r.png"">","null","trial","null","","0.2,0.8","4:nogo_d","1",""
"null","","html-keyboard-response","261","402191","0.0-6.0-2.13","","<div style=""font-size:60px;"">+</div>","null","","","","","","",""
"535","","image-keyboard-response","262","402727","0.0-6.0-0.14","","img/pink.png","32","trial","32","true","0.8,0.2","1:go_a","",""
"null","","html-keyboard-response","263","403741","0.0-6.0-1.14","","<img src=""img/pink-r.png"" border=""10"">","null","trial","32","","0.8,0.2","1:go_a","1",""
"null","","html-keyboard-response","264","404755","0.0-6.0-2.14","","<div style=""font-size:60px;"">+</div>","null","","","","","","",""
"null","","image-keyboard-response","265","406260","0.0-6.0-0.15","","img/blue.png","null","trial","null","true","0.2,0.8","2:nogo_b","",""
"null","","html-keyboard-response","266","407262","0.0-6.0-1.15","","<img src=""img/blue-r.png"">","null","trial","null","","0.2,0.8","2:nogo_b","1",""
"null","","html-keyboard-response","267","408263","0.0-6.0-2.15","","<div style=""font-size:60px;"">+</div>","null","","","","","","",""
"null","","image-keyboard-response","268","409767","0.0-6.0-0.16","","img/red.png","null","trial","null","true","0.2,0.8","4:nogo_d","",""
"null","","html-keyboard-response","269","410781","0.0-6.0-1.16","","<img src=""img/red-n.png"">","null","trial","null","","0.2,0.8","4:nogo_d","0",""
"null","","html-keyboard-response","270","411794","0.0-6.0-2.16","","<div style=""font-size:60px;"">+</div>","null","","","","","","",""
"null","","image-keyboard-response","271","413308","0.0-6.0-0.17","","img/blue.png","null","trial","null","true","0.2,0.8","2:nogo_b","",""
"null","","html-keyboard-response","272","414324","0.0-6.0-1.17","","<img src=""img/blue-r.png"">","null","trial","null","","0.2,0.8","2:nogo_b","1",""
"null","","html-keyboard-response","273","415326","0.0-6.0-2.17","","<div style=""font-size:60px;"">+</div>","null","","","","","","",""
"539","","image-keyboard-response","274","415866","0.0-6.0-0.18","","img/grey.png","32","trial","32","true","0.8,0.2","3:go_c","",""
"null","","html-keyboard-response","275","416880","0.0-6.0-1.18","","<img src=""img/grey-r.png"" border=""10"">","null","trial","32","","0.8,0.2","3:go_c","1",""
"null","","html-keyboard-response","276","417895","0.0-6.0-2.18","","<div style=""font-size:60px;"">+</div>","null","","","","","","",""
"531","","image-keyboard-response","277","418426","0.0-6.0-0.19","","img/pink.png","32","trial","32","true","0.8,0.2","1:go_a","",""
"null","","html-keyboard-response","278","419443","0.0-6.0-1.19","","<img src=""img/pink-r.png"" border=""10"">","null","trial","32","","0.8,0.2","1:go_a","1",""
"null","","html-keyboard-response","279","420446","0.0-6.0-2.19","","<div style=""font-size:60px;"">+</div>","null","","","","","","",""
"null","","image-keyboard-response","280","421961","0.0-6.0-0.20","","img/blue.png","null","trial","null","true","0.2,0.8","2:nogo_b","",""
"null","","html-keyboard-response","281","422974","0.0-6.0-1.20","","<img src=""img/blue-n.png"">","null","trial","null","","0.2,0.8","2:nogo_b","0",""
"null","","html-keyboard-response","282","423977","0.0-6.0-2.20","","<div style=""font-size:60px;"">+</div>","null","","","","","","",""
"null","","image-keyboard-response","283","425484","0.0-6.0-0.21","","img/red.png","null","trial","null","true","0.2,0.8","4:nogo_d","",""
"null","","html-keyboard-response","284","426490","0.0-6.0-1.21","","<img src=""img/red-r.png"">","null","trial","null","","0.2,0.8","4:nogo_d","1",""
"null","","html-keyboard-response","285","427505","0.0-6.0-2.21","","<div style=""font-size:60px;"">+</div>","null","","","","","","",""
"490","","image-keyboard-response","286","427995","0.0-6.0-0.22","","img/pink.png","32","trial","32","true","0.8,0.2","1:go_a","",""
"null","","html-keyboard-response","287","429001","0.0-6.0-1.22","","<img src=""img/pink-r.png"" border=""10"">","null","trial","32","","0.8,0.2","1:go_a","1",""
"null","","html-keyboard-response","288","430002","0.0-6.0-2.22","","<div style=""font-size:60px;"">+</div>","null","","","","","","",""
"439","","image-keyboard-response","289","430441","0.0-6.0-0.23","","img/grey.png","32","trial","32","true","0.8,0.2","3:go_c","",""
"null","","html-keyboard-response","290","431444","0.0-6.0-1.23","","<img src=""img/grey-r.png"" border=""10"">","null","trial","32","","0.8,0.2","3:go_c","1",""
"null","","html-keyboard-response","291","432446","0.0-6.0-2.23","","<div style=""font-size:60px;"">+</div>","null","","","","","","",""
"571","","image-keyboard-response","292","433019","0.0-6.0-0.24","","img/grey.png","32","trial","32","true","0.8,0.2","3:go_c","",""
"null","","html-keyboard-response","293","434023","0.0-6.0-1.24","","<img src=""img/grey-r.png"" border=""10"">","null","trial","32","","0.8,0.2","3:go_c","1",""
"null","","html-keyboard-response","294","435036","0.0-6.0-2.24","","<div style=""font-size:60px;"">+</div>","null","","","","","","",""
"471","","image-keyboard-response","295","435508","0.0-6.0-0.25","","img/blue.png","32","trial","null","false","0.2,0.8","2:nogo_b","",""
"null","","html-keyboard-response","296","436510","0.0-6.0-1.25","","<img src=""img/blue-n.png"" border=""10"">","null","trial","null","","0.2,0.8","2:nogo_b","0",""
"null","","html-keyboard-response","297","437522","0.0-6.0-2.25","","<div style=""font-size:60px;"">+</div>","null","","","","","","",""
"610","","image-keyboard-response","298","438132","0.0-6.0-0.26","","img/pink.png","32","trial","32","true","0.8,0.2","1:go_a","",""
"null","","html-keyboard-response","299","439147","0.0-6.0-1.26","","<img src=""img/pink-r.png"" border=""10"">","null","trial","32","","0.8,0.2","1:go_a","1",""
"null","","html-keyboard-response","300","440153","0.0-6.0-2.26","","<div style=""font-size:60px;"">+</div>","null","","","","","","",""
"null","","image-keyboard-response","301","441659","0.0-6.0-0.27","","img/red.png","null","trial","null","true","0.2,0.8","4:nogo_d","",""
"null","","html-keyboard-response","302","442675","0.0-6.0-1.27","","<img src=""img/red-r.png"">","null","trial","null","","0.2,0.8","4:nogo_d","1",""
"null","","html-keyboard-response","303","443690","0.0-6.0-2.27","","<div style=""font-size:60px;"">+</div>","null","","","","","","",""
"460","","image-keyboard-response","304","444150","0.0-6.0-0.28","","img/pink.png","32","trial","32","true","0.8,0.2","1:go_a","",""
"null","","html-keyboard-response","305","445160","0.0-6.0-1.28","","<img src=""img/pink-n.png"" border=""10"">","null","trial","32","","0.8,0.2","1:go_a","0",""
"null","","html-keyboard-response","306","446163","0.0-6.0-2.28","","<div style=""font-size:60px;"">+</div>","null","","","","","","",""
"null","","image-keyboard-response","307","447666","0.0-6.0-0.29","","img/blue.png","null","trial","null","true","0.2,0.8","2:nogo_b","",""
"null","","html-keyboard-response","308","448669","0.0-6.0-1.29","","<img src=""img/blue-r.png"">","null","trial","null","","0.2,0.8","2:nogo_b","1",""
"null","","html-keyboard-response","309","449670","0.0-6.0-2.29","","<div style=""font-size:60px;"">+</div>","null","","","","","","",""
"537","","image-keyboard-response","310","450209","0.0-6.0-0.30","","img/grey.png","32","trial","32","true","0.8,0.2","3:go_c","",""
"null","","html-keyboard-response","311","451219","0.0-6.0-1.30","","<img src=""img/grey-r.png"" border=""10"">","null","trial","32","","0.8,0.2","3:go_c","1",""
"null","","html-keyboard-response","312","452223","0.0-6.0-2.30","","<div style=""font-size:60px;"">+</div>","null","","","","","","",""
"null","","image-keyboard-response","313","453726","0.0-6.0-0.31","","img/red.png","null","trial","null","true","0.2,0.8","4:nogo_d","",""
"null","","html-keyboard-response","314","454740","0.0-6.0-1.31","","<img src=""img/red-r.png"">","null","trial","null","","0.2,0.8","4:nogo_d","1",""
"null","","html-keyboard-response","315","455742","0.0-6.0-2.31","","<div style=""font-size:60px;"">+</div>","null","","","","","","",""
"null","","image-keyboard-response","316","457245","0.0-6.0-0.32","","img/red.png","null","trial","null","true","0.2,0.8","4:nogo_d","",""
"null","","html-keyboard-response","317","458258","0.0-6.0-1.32","","<img src=""img/red-n.png"">","null","trial","null","","0.2,0.8","4:nogo_d","0",""
"null","","html-keyboard-response","318","459260","0.0-6.0-2.32","","<div style=""font-size:60px;"">+</div>","null","","","","","","",""
"null","","image-keyboard-response","319","460763","0.0-6.0-0.33","","img/blue.png","null","trial","null","true","0.2,0.8","2:nogo_b","",""
"null","","html-keyboard-response","320","461766","0.0-6.0-1.33","","<img src=""img/blue-r.png"">","null","trial","null","","0.2,0.8","2:nogo_b","1",""
"null","","html-keyboard-response","321","462770","0.0-6.0-2.33","","<div style=""font-size:60px;"">+</div>","null","","","","","","",""
"474","","image-keyboard-response","322","463246","0.0-6.0-0.34","","img/pink.png","32","trial","32","true","0.8,0.2","1:go_a","",""
"null","","html-keyboard-response","323","464258","0.0-6.0-1.34","","<img src=""img/pink-r.png"" border=""10"">","null","trial","32","","0.8,0.2","1:go_a","1",""
"null","","html-keyboard-response","324","465259","0.0-6.0-2.34","","<div style=""font-size:60px;"">+</div>","null","","","","","","",""
"393","","image-keyboard-response","325","465653","0.0-6.0-0.35","","img/grey.png","32","trial","32","true","0.8,0.2","3:go_c","",""
"null","","html-keyboard-response","326","466663","0.0-6.0-1.35","","<img src=""img/grey-r.png"" border=""10"">","null","trial","32","","0.8,0.2","3:go_c","1",""
"null","","html-keyboard-response","327","467678","0.0-6.0-2.35","","<div style=""font-size:60px;"">+</div>","null","","","","","","",""
"null","","image-keyboard-response","328","469178","0.0-6.0-0.36","","img/blue.png","null","trial","null","true","0.2,0.8","2:nogo_b","",""
"null","","html-keyboard-response","329","470180","0.0-6.0-1.36","","<img src=""img/blue-r.png"">","null","trial","null","","0.2,0.8","2:nogo_b","1",""
"null","","html-keyboard-response","330","471193","0.0-6.0-2.36","","<div style=""font-size:60px;"">+</div>","null","","","","","","",""
"986","","image-keyboard-response","331","472181","0.0-6.0-0.37","","img/pink.png","32","trial","32","true","0.8,0.2","1:go_a","",""
"null","","html-keyboard-response","332","473196","0.0-6.0-1.37","","<img src=""img/pink-r.png"" border=""10"">","null","trial","32","","0.8,0.2","1:go_a","1",""
"null","","html-keyboard-response","333","474210","0.0-6.0-2.37","","<div style=""font-size:60px;"">+</div>","null","","","","","","",""
"null","","image-keyboard-response","334","475716","0.0-6.0-0.38","","img/red.png","null","trial","null","true","0.2,0.8","4:nogo_d","",""
"null","","html-keyboard-response","335","476730","0.0-6.0-1.38","","<img src=""img/red-r.png"">","null","trial","null","","0.2,0.8","4:nogo_d","1",""
"null","","html-keyboard-response","336","477732","0.0-6.0-2.38","","<div style=""font-size:60px;"">+</div>","null","","","","","","",""
"545","","image-keyboard-response","337","478276","0.0-6.0-0.39","","img/grey.png","32","trial","32","true","0.8,0.2","3:go_c","",""
"null","","html-keyboard-response","338","479292","0.0-6.0-1.39","","<img src=""img/grey-r.png"" border=""10"">","null","trial","32","","0.8,0.2","3:go_c","1",""
"null","","html-keyboard-response","339","480298","0.0-6.0-2.39","","<div style=""font-size:60px;"">+</div>","null","","","","","","",""
"null","","image-keyboard-response","340","481806","0.0-6.0-0.40","","img/red.png","null","trial","null","true","0.2,0.8","4:nogo_d","",""
"null","","html-keyboard-response","341","482821","0.0-6.0-1.40","","<img src=""img/red-r.png"">","null","trial","null","","0.2,0.8","4:nogo_d","1",""
"null","","html-keyboard-response","342","483838","0.0-6.0-2.40","","<div style=""font-size:60px;"">+</div>","null","","","","","","",""
"574","","image-keyboard-response","343","484413","0.0-6.0-0.41","","img/pink.png","32","trial","32","true","0.8,0.2","1:go_a","",""
"null","","html-keyboard-response","344","485414","0.0-6.0-1.41","","<img src=""img/pink-r.png"" border=""10"">","null","trial","32","","0.8,0.2","1:go_a","1",""
"null","","html-keyboard-response","345","486428","0.0-6.0-2.41","","<div style=""font-size:60px;"">+</div>","null","","","","","","",""
"null","","image-keyboard-response","346","487944","0.0-6.0-0.42","","img/blue.png","null","trial","null","true","0.2,0.8","2:nogo_b","",""
"null","","html-keyboard-response","347","488956","0.0-6.0-1.42","","<img src=""img/blue-n.png"">","null","trial","null","","0.2,0.8","2:nogo_b","0",""
"null","","html-keyboard-response","348","489958","0.0-6.0-2.42","","<div style=""font-size:60px;"">+</div>","null","","","","","","",""
"398","","image-keyboard-response","349","490356","0.0-6.0-0.43","","img/grey.png","32","trial","32","true","0.8,0.2","3:go_c","",""
"null","","html-keyboard-response","350","491363","0.0-6.0-1.43","","<img src=""img/grey-r.png"" border=""10"">","null","trial","32","","0.8,0.2","3:go_c","1",""
"null","","html-keyboard-response","351","492364","0.0-6.0-2.43","","<div style=""font-size:60px;"">+</div>","null","","","","","","",""
"null","","image-keyboard-response","352","493878","0.0-6.0-0.44","","img/red.png","null","trial","null","true","0.2,0.8","4:nogo_d","",""
"null","","html-keyboard-response","353","494884","0.0-6.0-1.44","","<img src=""img/red-r.png"">","null","trial","null","","0.2,0.8","4:nogo_d","1",""
"null","","html-keyboard-response","354","495891","0.0-6.0-2.44","","<div style=""font-size:60px;"">+</div>","null","","","","","","",""
"437","","image-keyboard-response","355","496328","0.0-6.0-0.45","","img/grey.png","32","trial","32","true","0.8,0.2","3:go_c","",""
"null","","html-keyboard-response","356","497341","0.0-6.0-1.45","","<img src=""img/grey-r.png"" border=""10"">","null","trial","32","","0.8,0.2","3:go_c","1",""
"null","","html-keyboard-response","357","498342","0.0-6.0-2.45","","<div style=""font-size:60px;"">+</div>","null","","","","","","",""
"null","","image-keyboard-response","358","499851","0.0-6.0-0.46","","img/blue.png","null","trial","null","true","0.2,0.8","2:nogo_b","",""
"null","","html-keyboard-response","359","500856","0.0-6.0-1.46","","<img src=""img/blue-r.png"">","null","trial","null","","0.2,0.8","2:nogo_b","1",""
"null","","html-keyboard-response","360","501858","0.0-6.0-2.46","","<div style=""font-size:60px;"">+</div>","null","","","","","","",""
"541","","image-keyboard-response","361","502398","0.0-6.0-0.47","","img/pink.png","32","trial","32","true","0.8,0.2","1:go_a","",""
"null","","html-keyboard-response","362","503401","0.0-6.0-1.47","","<img src=""img/pink-n.png"" border=""10"">","null","trial","32","","0.8,0.2","1:go_a","0",""
"null","","html-keyboard-response","363","504403","0.0-6.0-2.47","","<div style=""font-size:60px;"">+</div>","null","","","","","","",""
"null","","image-keyboard-response","364","505918","0.0-6.0-0.48","","img/red.png","null","trial","null","true","0.2,0.8","4:nogo_d","",""
"null","","html-keyboard-response","365","506921","0.0-6.0-1.48","","<img src=""img/red-n.png"">","null","trial","null","","0.2,0.8","4:nogo_d","0",""
"null","","html-keyboard-response","366","507924","0.0-6.0-2.48","","<div style=""font-size:60px;"">+</div>","null","","","","","","",""
"518","","image-keyboard-response","367","508445","0.0-6.0-0.49","","img/pink.png","32","trial","32","true","0.8,0.2","1:go_a","",""
"null","","html-keyboard-response","368","509459","0.0-6.0-1.49","","<img src=""img/pink-r.png"" border=""10"">","null","trial","32","","0.8,0.2","1:go_a","1",""
"null","","html-keyboard-response","369","510475","0.0-6.0-2.49","","<div style=""font-size:60px;"">+</div>","null","","","","","","",""
"null","","image-keyboard-response","370","511981","0.0-6.0-0.50","","img/blue.png","null","trial","null","true","0.2,0.8","2:nogo_b","",""
"null","","html-keyboard-response","371","512993","0.0-6.0-1.50","","<img src=""img/blue-r.png"">","null","trial","null","","0.2,0.8","2:nogo_b","1",""
"null","","html-keyboard-response","372","514000","0.0-6.0-2.50","","<div style=""font-size:60px;"">+</div>","null","","","","","","",""
"468","","image-keyboard-response","373","514469","0.0-6.0-0.51","","img/grey.png","32","trial","32","true","0.8,0.2","3:go_c","",""
"null","","html-keyboard-response","374","515476","0.0-6.0-1.51","","<img src=""img/grey-r.png"" border=""10"">","null","trial","32","","0.8,0.2","3:go_c","1",""
"null","","html-keyboard-response","375","516489","0.0-6.0-2.51","","<div style=""font-size:60px;"">+</div>","null","","","","","","",""
"524","","image-keyboard-response","376","517013","0.0-6.0-0.52","","img/grey.png","32","trial","32","true","0.8,0.2","3:go_c","",""
"null","","html-keyboard-response","377","518020","0.0-6.0-1.52","","<img src=""img/grey-r.png"" border=""10"">","null","trial","32","","0.8,0.2","3:go_c","1",""
"null","","html-keyboard-response","378","519025","0.0-6.0-2.52","","<div style=""font-size:60px;"">+</div>","null","","","","","","",""
"724","","image-keyboard-response","379","519750","0.0-6.0-0.53","","img/pink.png","32","trial","32","true","0.8,0.2","1:go_a","",""
"null","","html-keyboard-response","380","520754","0.0-6.0-1.53","","<img src=""img/pink-r.png"" border=""10"">","null","trial","32","","0.8,0.2","1:go_a","1",""
"null","","html-keyboard-response","381","521755","0.0-6.0-2.53","","<div style=""font-size:60px;"">+</div>","null","","","","","","",""
"null","","image-keyboard-response","382","523269","0.0-6.0-0.54","","img/red.png","null","trial","null","true","0.2,0.8","4:nogo_d","",""
"null","","html-keyboard-response","383","524273","0.0-6.0-1.54","","<img src=""img/red-r.png"">","null","trial","null","","0.2,0.8","4:nogo_d","1",""
"null","","html-keyboard-response","384","525287","0.0-6.0-2.54","","<div style=""font-size:60px;"">+</div>","null","","","","","","",""
"null","","image-keyboard-response","385","526790","0.0-6.0-0.55","","img/blue.png","null","trial","null","true","0.2,0.8","2:nogo_b","",""
"null","","html-keyboard-response","386","527803","0.0-6.0-1.55","","<img src=""img/blue-r.png"">","null","trial","null","","0.2,0.8","2:nogo_b","1",""
"null","","html-keyboard-response","387","528818","0.0-6.0-2.55","","<div style=""font-size:60px;"">+</div>","null","","","","","","",""
"549","","image-keyboard-response","388","529369","0.0-6.0-0.56","","img/pink.png","32","trial","32","true","0.8,0.2","1:go_a","",""
"null","","html-keyboard-response","389","530380","0.0-6.0-1.56","","<img src=""img/pink-r.png"" border=""10"">","null","trial","32","","0.8,0.2","1:go_a","1",""
"null","","html-keyboard-response","390","531382","0.0-6.0-2.56","","<div style=""font-size:60px;"">+</div>","null","","","","","","",""
"null","","image-keyboard-response","391","532883","0.0-6.0-0.57","","img/red.png","null","trial","null","true","0.2,0.8","4:nogo_d","",""
"null","","html-keyboard-response","392","533885","0.0-6.0-1.57","","<img src=""img/red-r.png"">","null","trial","null","","0.2,0.8","4:nogo_d","1",""
"null","","html-keyboard-response","393","534885","0.0-6.0-2.57","","<div style=""font-size:60px;"">+</div>","null","","","","","","",""
"472","","image-keyboard-response","394","535359","0.0-6.0-0.58","","img/grey.png","32","trial","32","true","0.8,0.2","3:go_c","",""
"null","","html-keyboard-response","395","536368","0.0-6.0-1.58","","<img src=""img/grey-n.png"" border=""10"">","null","trial","32","","0.8,0.2","3:go_c","0",""
"null","","html-keyboard-response","396","537371","0.0-6.0-2.58","","<div style=""font-size:60px;"">+</div>","null","","","","","","",""
"null","","image-keyboard-response","397","538874","0.0-6.0-0.59","","img/blue.png","null","trial","null","true","0.2,0.8","2:nogo_b","",""
"null","","html-keyboard-response","398","539890","0.0-6.0-1.59","","<img src=""img/blue-r.png"">","null","trial","null","","0.2,0.8","2:nogo_b","1",""
"null","","html-keyboard-response","399","540891","0.0-6.0-2.59","","<div style=""font-size:60px;"">+</div>","null","","","","","","",""
"584","","image-keyboard-response","400","541475","0.0-6.0-0.60","","img/grey.png","32","trial","32","true","0.8,0.2","3:go_c","",""
"null","","html-keyboard-response","401","542491","0.0-6.0-1.60","","<img src=""img/grey-r.png"" border=""10"">","null","trial","32","","0.8,0.2","3:go_c","1",""
"null","","html-keyboard-response","402","543502","0.0-6.0-2.60","","<div style=""font-size:60px;"">+</div>","null","","","","","","",""
"null","","image-keyboard-response","403","545018","0.0-6.0-0.61","","img/red.png","null","trial","null","true","0.2,0.8","4:nogo_d","",""
"null","","html-keyboard-response","404","546022","0.0-6.0-1.61","","<img src=""img/red-n.png"">","null","trial","null","","0.2,0.8","4:nogo_d","0",""
"null","","html-keyboard-response","405","547027","0.0-6.0-2.61","","<div style=""font-size:60px;"">+</div>","null","","","","","","",""
"null","","image-keyboard-response","406","548535","0.0-6.0-0.62","","img/blue.png","null","trial","null","true","0.2,0.8","2:nogo_b","",""
"null","","html-keyboard-response","407","549541","0.0-6.0-1.62","","<img src=""img/blue-n.png"">","null","trial","null","","0.2,0.8","2:nogo_b","0",""
"null","","html-keyboard-response","408","550555","0.0-6.0-2.62","","<div style=""font-size:60px;"">+</div>","null","","","","","","",""
"478","","image-keyboard-response","409","551032","0.0-6.0-0.63","","img/pink.png","32","trial","32","true","0.8,0.2","1:go_a","",""
"null","","html-keyboard-response","410","552045","0.0-6.0-1.63","","<img src=""img/pink-r.png"" border=""10"">","null","trial","32","","0.8,0.2","1:go_a","1",""
"null","","html-keyboard-response","411","553049","0.0-6.0-2.63","","<div style=""font-size:60px;"">+</div>","null","","","","","","",""
"511","","image-keyboard-response","412","553561","0.0-6.0-0.64","","img/grey.png","32","trial","32","true","0.8,0.2","3:go_c","",""
"null","","html-keyboard-response","413","554569","0.0-6.0-1.64","","<img src=""img/grey-r.png"" border=""10"">","null","trial","32","","0.8,0.2","3:go_c","1",""
"null","","html-keyboard-response","414","555575","0.0-6.0-2.64","","<div style=""font-size:60px;"">+</div>","null","","","","","","",""
"null","","image-keyboard-response","415","557081","0.0-6.0-0.65","","img/red.png","null","trial","null","true","0.2,0.8","4:nogo_d","",""
"null","","html-keyboard-response","416","558085","0.0-6.0-1.65","","<img src=""img/red-r.png"">","null","trial","null","","0.2,0.8","4:nogo_d","1",""
"null","","html-keyboard-response","417","559092","0.0-6.0-2.65","","<div style=""font-size:60px;"">+</div>","null","","","","","","",""
"null","","image-keyboard-response","418","560608","0.0-6.0-0.66","","img/blue.png","null","trial","null","true","0.2,0.8","2:nogo_b","",""
"null","","html-keyboard-response","419","561624","0.0-6.0-1.66","","<img src=""img/blue-r.png"">","null","trial","null","","0.2,0.8","2:nogo_b","1",""
"null","","html-keyboard-response","420","562628","0.0-6.0-2.66","","<div style=""font-size:60px;"">+</div>","null","","","","","","",""
"510","","image-keyboard-response","421","563138","0.0-6.0-0.67","","img/pink.png","32","trial","32","true","0.8,0.2","1:go_a","",""
"null","","html-keyboard-response","422","564147","0.0-6.0-1.67","","<img src=""img/pink-r.png"" border=""10"">","null","trial","32","","0.8,0.2","1:go_a","1",""
"null","","html-keyboard-response","423","565161","0.0-6.0-2.67","","<div style=""font-size:60px;"">+</div>","null","","","","","","",""
"null","","image-keyboard-response","424","566664","0.0-6.0-0.68","","img/red.png","null","trial","null","true","0.2,0.8","4:nogo_d","",""
"null","","html-keyboard-response","425","567679","0.0-6.0-1.68","","<img src=""img/red-r.png"">","null","trial","null","","0.2,0.8","4:nogo_d","1",""
"null","","html-keyboard-response","426","568681","0.0-6.0-2.68","","<div style=""font-size:60px;"">+</div>","null","","","","","","",""
"null","","image-keyboard-response","427","570188","0.0-6.0-0.69","","img/blue.png","null","trial","null","true","0.2,0.8","2:nogo_b","",""
"null","","html-keyboard-response","428","571192","0.0-6.0-1.69","","<img src=""img/blue-r.png"">","null","trial","null","","0.2,0.8","2:nogo_b","1",""
"null","","html-keyboard-response","429","572196","0.0-6.0-2.69","","<div style=""font-size:60px;"">+</div>","null","","","","","","",""
"513","","image-keyboard-response","430","572711","0.0-6.0-0.70","","img/grey.png","32","trial","32","true","0.8,0.2","3:go_c","",""
"null","","html-keyboard-response","431","573714","0.0-6.0-1.70","","<img src=""img/grey-r.png"" border=""10"">","null","trial","32","","0.8,0.2","3:go_c","1",""
"null","","html-keyboard-response","432","574715","0.0-6.0-2.70","","<div style=""font-size:60px;"">+</div>","null","","","","","","",""
"1090","","image-keyboard-response","433","575806","0.0-6.0-0.71","","img/pink.png","32","trial","32","true","0.8,0.2","1:go_a","",""
"null","","html-keyboard-response","434","576818","0.0-6.0-1.71","","<img src=""img/pink-r.png"" border=""10"">","null","trial","32","","0.8,0.2","1:go_a","1",""
"null","","html-keyboard-response","435","577820","0.0-6.0-2.71","","<div style=""font-size:60px;"">+</div>","null","","","","","","",""
"515","","image-keyboard-response","436","578334","0.0-6.0-0.72","","img/pink.png","32","trial","32","true","0.8,0.2","1:go_a","",""
"null","","html-keyboard-response","437","579343","0.0-6.0-1.72","","<img src=""img/pink-r.png"" border=""10"">","null","trial","32","","0.8,0.2","1:go_a","1",""
"null","","html-keyboard-response","438","580344","0.0-6.0-2.72","","<div style=""font-size:60px;"">+</div>","null","","","","","","",""
"null","","image-keyboard-response","439","581845","0.0-6.0-0.73","","img/red.png","null","trial","null","true","0.2,0.8","4:nogo_d","",""
"null","","html-keyboard-response","440","582851","0.0-6.0-1.73","","<img src=""img/red-r.png"">","null","trial","null","","0.2,0.8","4:nogo_d","1",""
"null","","html-keyboard-response","441","583864","0.0-6.0-2.73","","<div style=""font-size:60px;"">+</div>","null","","","","","","",""
"null","","image-keyboard-response","442","585378","0.0-6.0-0.74","","img/blue.png","null","trial","null","true","0.2,0.8","2:nogo_b","",""
"null","","html-keyboard-response","443","586380","0.0-6.0-1.74","","<img src=""img/blue-r.png"">","null","trial","null","","0.2,0.8","2:nogo_b","1",""
"null","","html-keyboard-response","444","587382","0.0-6.0-2.74","","<div style=""font-size:60px;"">+</div>","null","","","","","","",""
"463","","image-keyboard-response","445","587846","0.0-6.0-0.75","","img/grey.png","32","trial","32","true","0.8,0.2","3:go_c","",""
"null","","html-keyboard-response","446","588851","0.0-6.0-1.75","","<img src=""img/grey-r.png"" border=""10"">","null","trial","32","","0.8,0.2","3:go_c","1",""
"null","","html-keyboard-response","447","589865","0.0-6.0-2.75","","<div style=""font-size:60px;"">+</div>","null","","","","","","",""
"null","","image-keyboard-response","448","591370","0.0-6.0-0.76","","img/red.png","null","trial","null","true","0.2,0.8","4:nogo_d","",""
"null","","html-keyboard-response","449","592374","0.0-6.0-1.76","","<img src=""img/red-n.png"">","null","trial","null","","0.2,0.8","4:nogo_d","0",""
"null","","html-keyboard-response","450","593388","0.0-6.0-2.76","","<div style=""font-size:60px;"">+</div>","null","","","","","","",""
"512","","image-keyboard-response","451","593902","0.0-6.0-0.77","","img/grey.png","32","trial","32","true","0.8,0.2","3:go_c","",""
"null","","html-keyboard-response","452","594917","0.0-6.0-1.77","","<img src=""img/grey-n.png"" border=""10"">","null","trial","32","","0.8,0.2","3:go_c","0",""
"null","","html-keyboard-response","453","595928","0.0-6.0-2.77","","<div style=""font-size:60px;"">+</div>","null","","","","","","",""
"468","","image-keyboard-response","454","596396","0.0-6.0-0.78","","img/pink.png","32","trial","32","true","0.8,0.2","1:go_a","",""
"null","","html-keyboard-response","455","597412","0.0-6.0-1.78","","<img src=""img/pink-r.png"" border=""10"">","null","trial","32","","0.8,0.2","1:go_a","1",""
"null","","html-keyboard-response","456","598413","0.0-6.0-2.78","","<div style=""font-size:60px;"">+</div>","null","","","","","","",""
"null","","image-keyboard-response","457","599919","0.0-6.0-0.79","","img/blue.png","null","trial","null","true","0.2,0.8","2:nogo_b","",""
"null","","html-keyboard-response","458","600933","0.0-6.0-1.79","","<img src=""img/blue-r.png"">","null","trial","null","","0.2,0.8","2:nogo_b","1",""
"null","","html-keyboard-response","459","601938","0.0-6.0-2.79","","<div style=""font-size:60px;"">+</div>","null","","","","","","",""
"null","","image-keyboard-response","460","603443","0.0-6.0-0.80","","img/blue.png","null","trial","null","true","0.2,0.8","2:nogo_b","",""
"null","","html-keyboard-response","461","604459","0.0-6.0-1.80","","<img src=""img/blue-r.png"">","null","trial","null","","0.2,0.8","2:nogo_b","1",""
"null","","html-keyboard-response","462","605460","0.0-6.0-2.80","","<div style=""font-size:60px;"">+</div>","null","","","","","","",""
"387","","image-keyboard-response","463","605847","0.0-6.0-0.81","","img/pink.png","32","trial","32","true","0.8,0.2","1:go_a","",""
"null","","html-keyboard-response","464","606850","0.0-6.0-1.81","","<img src=""img/pink-r.png"" border=""10"">","null","trial","32","","0.8,0.2","1:go_a","1",""
"null","","html-keyboard-response","465","607863","0.0-6.0-2.81","","<div style=""font-size:60px;"">+</div>","null","","","","","","",""
"526","","image-keyboard-response","466","608389","0.0-6.0-0.82","","img/grey.png","32","trial","32","true","0.8,0.2","3:go_c","",""
"null","","html-keyboard-response","467","609402","0.0-6.0-1.82","","<img src=""img/grey-n.png"" border=""10"">","null","trial","32","","0.8,0.2","3:go_c","0",""
"null","","html-keyboard-response","468","610404","0.0-6.0-2.82","","<div style=""font-size:60px;"">+</div>","null","","","","","","",""
"null","","image-keyboard-response","469","611908","0.0-6.0-0.83","","img/red.png","null","trial","null","true","0.2,0.8","4:nogo_d","",""
"null","","html-keyboard-response","470","612914","0.0-6.0-1.83","","<img src=""img/red-r.png"">","null","trial","null","","0.2,0.8","4:nogo_d","1",""
"null","","html-keyboard-response","471","613931","0.0-6.0-2.83","","<div style=""font-size:60px;"">+</div>","null","","","","","","",""
"728","","image-keyboard-response","472","614660","0.0-6.0-0.84","","img/pink.png","32","trial","32","true","0.8,0.2","1:go_a","",""
"null","","html-keyboard-response","473","615672","0.0-6.0-1.84","","<img src=""img/pink-r.png"" border=""10"">","null","trial","32","","0.8,0.2","1:go_a","1",""
"null","","html-keyboard-response","474","616687","0.0-6.0-2.84","","<div style=""font-size:60px;"">+</div>","null","","","","","","",""
"532","","image-keyboard-response","475","617219","0.0-6.0-0.85","","img/grey.png","32","trial","32","true","0.8,0.2","3:go_c","",""
"null","","html-keyboard-response","476","618233","0.0-6.0-1.85","","<img src=""img/grey-r.png"" border=""10"">","null","trial","32","","0.8,0.2","3:go_c","1",""
"null","","html-keyboard-response","477","619248","0.0-6.0-2.85","","<div style=""font-size:60px;"">+</div>","null","","","","","","",""
"null","","image-keyboard-response","478","620764","0.0-6.0-0.86","","img/red.png","null","trial","null","true","0.2,0.8","4:nogo_d","",""
"null","","html-keyboard-response","479","621771","0.0-6.0-1.86","","<img src=""img/red-r.png"">","null","trial","null","","0.2,0.8","4:nogo_d","1",""
"null","","html-keyboard-response","480","622787","0.0-6.0-2.86","","<div style=""font-size:60px;"">+</div>","null","","","","","","",""
"null","","image-keyboard-response","481","624292","0.0-6.0-0.87","","img/blue.png","null","trial","null","true","0.2,0.8","2:nogo_b","",""
"null","","html-keyboard-response","482","625305","0.0-6.0-1.87","","<img src=""img/blue-r.png"">","null","trial","null","","0.2,0.8","2:nogo_b","1",""
"null","","html-keyboard-response","483","626321","0.0-6.0-2.87","","<div style=""font-size:60px;"">+</div>","null","","","","","","",""
"463","","image-keyboard-response","484","626785","0.0-6.0-0.88","","img/grey.png","32","trial","32","true","0.8,0.2","3:go_c","",""
"null","","html-keyboard-response","485","627789","0.0-6.0-1.88","","<img src=""img/grey-n.png"" border=""10"">","null","trial","32","","0.8,0.2","3:go_c","0",""
"null","","html-keyboard-response","486","628804","0.0-6.0-2.88","","<div style=""font-size:60px;"">+</div>","null","","","","","","",""
"null","","image-keyboard-response","487","630309","0.0-6.0-0.89","","img/blue.png","null","trial","null","true","0.2,0.8","2:nogo_b","",""
"null","","html-keyboard-response","488","631324","0.0-6.0-1.89","","<img src=""img/blue-n.png"">","null","trial","null","","0.2,0.8","2:nogo_b","0",""
"null","","html-keyboard-response","489","632337","0.0-6.0-2.89","","<div style=""font-size:60px;"">+</div>","null","","","","","","",""
"429","","image-keyboard-response","490","632766","0.0-6.0-0.90","","img/pink.png","32","trial","32","true","0.8,0.2","1:go_a","",""
"null","","html-keyboard-response","491","633776","0.0-6.0-1.90","","<img src=""img/pink-r.png"" border=""10"">","null","trial","32","","0.8,0.2","1:go_a","1",""
"null","","html-keyboard-response","492","634788","0.0-6.0-2.90","","<div style=""font-size:60px;"">+</div>","null","","","","","","",""
"null","","image-keyboard-response","493","636292","0.0-6.0-0.91","","img/red.png","null","trial","null","true","0.2,0.8","4:nogo_d","",""
"null","","html-keyboard-response","494","637305","0.0-6.0-1.91","","<img src=""img/red-r.png"">","null","trial","null","","0.2,0.8","4:nogo_d","1",""
"null","","html-keyboard-response","495","638317","0.0-6.0-2.91","","<div style=""font-size:60px;"">+</div>","null","","","","","","",""
"571","","image-keyboard-response","496","638890","0.0-6.0-0.92","","img/pink.png","32","trial","32","true","0.8,0.2","1:go_a","",""
"null","","html-keyboard-response","497","639897","0.0-6.0-1.92","","<img src=""img/pink-r.png"" border=""10"">","null","trial","32","","0.8,0.2","1:go_a","1",""
"null","","html-keyboard-response","498","640912","0.0-6.0-2.92","","<div style=""font-size:60px;"">+</div>","null","","","","","","",""
"null","","image-keyboard-response","499","642416","0.0-6.0-0.93","","img/blue.png","null","trial","null","true","0.2,0.8","2:nogo_b","",""
"null","","html-keyboard-response","500","643417","0.0-6.0-1.93","","<img src=""img/blue-r.png"">","null","trial","null","","0.2,0.8","2:nogo_b","1",""
"null","","html-keyboard-response","501","644431","0.0-6.0-2.93","","<div style=""font-size:60px;"">+</div>","null","","","","","","",""
"null","","image-keyboard-response","502","645940","0.0-6.0-0.94","","img/red.png","null","trial","null","true","0.2,0.8","4:nogo_d","",""
"null","","html-keyboard-response","503","646942","0.0-6.0-1.94","","<img src=""img/red-n.png"">","null","trial","null","","0.2,0.8","4:nogo_d","0",""
"null","","html-keyboard-response","504","647947","0.0-6.0-2.94","","<div style=""font-size:60px;"">+</div>","null","","","","","","",""
"432","","image-keyboard-response","505","648380","0.0-6.0-0.95","","img/grey.png","32","trial","32","true","0.8,0.2","3:go_c","",""
"null","","html-keyboard-response","506","649383","0.0-6.0-1.95","","<img src=""img/grey-r.png"" border=""10"">","null","trial","32","","0.8,0.2","3:go_c","1",""
"null","","html-keyboard-response","507","650386","0.0-6.0-2.95","","<div style=""font-size:60px;"">+</div>","null","","","","","","",""
"393","","image-keyboard-response","508","650779","0.0-6.0-0.96","","img/pink.png","32","trial","32","true","0.8,0.2","1:go_a","",""
"null","","html-keyboard-response","509","651794","0.0-6.0-1.96","","<img src=""img/pink-r.png"" border=""10"">","null","trial","32","","0.8,0.2","1:go_a","1",""
"null","","html-keyboard-response","510","652798","0.0-6.0-2.96","","<div style=""font-size:60px;"">+</div>","null","","","","","","",""
"null","","image-keyboard-response","511","654313","0.0-6.0-0.97","","img/red.png","null","trial","null","true","0.2,0.8","4:nogo_d","",""
"null","","html-keyboard-response","512","655329","0.0-6.0-1.97","","<img src=""img/red-r.png"">","null","trial","null","","0.2,0.8","4:nogo_d","1",""
"null","","html-keyboard-response","513","656344","0.0-6.0-2.97","","<div style=""font-size:60px;"">+</div>","null","","","","","","",""
"984","","image-keyboard-response","514","657328","0.0-6.0-0.98","","img/grey.png","32","trial","32","true","0.8,0.2","3:go_c","",""
"null","","html-keyboard-response","515","658338","0.0-6.0-1.98","","<img src=""img/grey-r.png"" border=""10"">","null","trial","32","","0.8,0.2","3:go_c","1",""
"null","","html-keyboard-response","516","659354","0.0-6.0-2.98","","<div style=""font-size:60px;"">+</div>","null","","","","","","",""
"null","","image-keyboard-response","517","660858","0.0-6.0-0.99","","img/blue.png","null","trial","null","true","0.2,0.8","2:nogo_b","",""
"null","","html-keyboard-response","518","661862","0.0-6.0-1.99","","<img src=""img/blue-r.png"">","null","trial","null","","0.2,0.8","2:nogo_b","1",""
"null","","html-keyboard-response","519","662877","0.0-6.0-2.99","","<div style=""font-size:60px;"">+</div>","null","","","","","","",""
"500","","image-keyboard-response","520","663378","0.0-6.0-0.100","","img/pink.png","32","trial","32","true","0.8,0.2","1:go_a","",""
"null","","html-keyboard-response","521","664380","0.0-6.0-1.100","","<img src=""img/pink-r.png"" border=""10"">","null","trial","32","","0.8,0.2","1:go_a","1",""
"null","","html-keyboard-response","522","665394","0.0-6.0-2.100","","<div style=""font-size:60px;"">+</div>","null","","","","","","",""
"507","","image-keyboard-response","523","665902","0.0-6.0-0.101","","img/grey.png","32","trial","32","true","0.8,0.2","3:go_c","",""
"null","","html-keyboard-response","524","666907","0.0-6.0-1.101","","<img src=""img/grey-n.png"" border=""10"">","null","trial","32","","0.8,0.2","3:go_c","0",""
"null","","html-keyboard-response","525","667911","0.0-6.0-2.101","","<div style=""font-size:60px;"">+</div>","null","","","","","","",""
"null","","image-keyboard-response","526","669419","0.0-6.0-0.102","","img/red.png","null","trial","null","true","0.2,0.8","4:nogo_d","",""
"null","","html-keyboard-response","527","670433","0.0-6.0-1.102","","<img src=""img/red-n.png"">","null","trial","null","","0.2,0.8","4:nogo_d","0",""
"null","","html-keyboard-response","528","671446","0.0-6.0-2.102","","<div style=""font-size:60px;"">+</div>","null","","","","","","",""
"null","","image-keyboard-response","529","672961","0.0-6.0-0.103","","img/blue.png","null","trial","null","true","0.2,0.8","2:nogo_b","",""
"null","","html-keyboard-response","530","673975","0.0-6.0-1.103","","<img src=""img/blue-n.png"">","null","trial","null","","0.2,0.8","2:nogo_b","0",""
"null","","html-keyboard-response","531","674990","0.0-6.0-2.103","","<div style=""font-size:60px;"">+</div>","null","","","","","","",""
"531","","image-keyboard-response","532","675524","0.0-6.0-0.104","","img/pink.png","32","trial","32","true","0.8,0.2","1:go_a","",""
"null","","html-keyboard-response","533","676536","0.0-6.0-1.104","","<img src=""img/pink-r.png"" border=""10"">","null","trial","32","","0.8,0.2","1:go_a","1",""
"null","","html-keyboard-response","534","677550","0.0-6.0-2.104","","<div style=""font-size:60px;"">+</div>","null","","","","","","",""
"null","","image-keyboard-response","535","679051","0.0-6.0-0.105","","img/red.png","null","trial","null","true","0.2,0.8","4:nogo_d","",""
"null","","html-keyboard-response","536","680055","0.0-6.0-1.105","","<img src=""img/red-r.png"">","null","trial","null","","0.2,0.8","4:nogo_d","1",""
"null","","html-keyboard-response","537","681056","0.0-6.0-2.105","","<div style=""font-size:60px;"">+</div>","null","","","","","","",""
"null","","image-keyboard-response","538","682565","0.0-6.0-0.106","","img/blue.png","null","trial","null","true","0.2,0.8","2:nogo_b","",""
"null","","html-keyboard-response","539","683575","0.0-6.0-1.106","","<img src=""img/blue-r.png"">","null","trial","null","","0.2,0.8","2:nogo_b","1",""
"null","","html-keyboard-response","540","684590","0.0-6.0-2.106","","<div style=""font-size:60px;"">+</div>","null","","","","","","",""
"484","","image-keyboard-response","541","685074","0.0-6.0-0.107","","img/grey.png","32","trial","32","true","0.8,0.2","3:go_c","",""
"null","","html-keyboard-response","542","686090","0.0-6.0-1.107","","<img src=""img/grey-n.png"" border=""10"">","null","trial","32","","0.8,0.2","3:go_c","0",""
"null","","html-keyboard-response","543","687092","0.0-6.0-2.107","","<div style=""font-size:60px;"">+</div>","null","","","","","","",""
"null","","image-keyboard-response","544","688605","0.0-6.0-0.108","","img/blue.png","null","trial","null","true","0.2,0.8","2:nogo_b","",""
"null","","html-keyboard-response","545","689618","0.0-6.0-1.108","","<img src=""img/blue-r.png"">","null","trial","null","","0.2,0.8","2:nogo_b","1",""
"null","","html-keyboard-response","546","690634","0.0-6.0-2.108","","<div style=""font-size:60px;"">+</div>","null","","","","","","",""
"548","","image-keyboard-response","547","691184","0.0-6.0-0.109","","img/pink.png","32","trial","32","true","0.8,0.2","1:go_a","",""
"null","","html-keyboard-response","548","692195","0.0-6.0-1.109","","<img src=""img/pink-r.png"" border=""10"">","null","trial","32","","0.8,0.2","1:go_a","1",""
"null","","html-keyboard-response","549","693210","0.0-6.0-2.109","","<div style=""font-size:60px;"">+</div>","null","","","","","","",""
"546","","image-keyboard-response","550","693758","0.0-6.0-0.110","","img/grey.png","32","trial","32","true","0.8,0.2","3:go_c","",""
"null","","html-keyboard-response","551","694764","0.0-6.0-1.110","","<img src=""img/grey-r.png"" border=""10"">","null","trial","32","","0.8,0.2","3:go_c","1",""
"null","","html-keyboard-response","552","695764","0.0-6.0-2.110","","<div style=""font-size:60px;"">+</div>","null","","","","","","",""
"null","","image-keyboard-response","553","697268","0.0-6.0-0.111","","img/red.png","null","trial","null","true","0.2,0.8","4:nogo_d","",""
"null","","html-keyboard-response","554","698271","0.0-6.0-1.111","","<img src=""img/red-r.png"">","null","trial","null","","0.2,0.8","4:nogo_d","1",""
"null","","html-keyboard-response","555","699287","0.0-6.0-2.111","","<div style=""font-size:60px;"">+</div>","null","","","","","","",""
"null","","image-keyboard-response","556","700789","0.0-6.0-0.112","","img/blue.png","null","trial","null","true","0.2,0.8","2:nogo_b","",""
"null","","html-keyboard-response","557","701804","0.0-6.0-1.112","","<img src=""img/blue-r.png"">","null","trial","null","","0.2,0.8","2:nogo_b","1",""
"null","","html-keyboard-response","558","702819","0.0-6.0-2.112","","<div style=""font-size:60px;"">+</div>","null","","","","","","",""
"550","","image-keyboard-response","559","703371","0.0-6.0-0.113","","img/grey.png","32","trial","32","true","0.8,0.2","3:go_c","",""
"null","","html-keyboard-response","560","704384","0.0-6.0-1.113","","<img src=""img/grey-r.png"" border=""10"">","null","trial","32","","0.8,0.2","3:go_c","1",""
"null","","html-keyboard-response","561","705401","0.0-6.0-2.113","","<div style=""font-size:60px;"">+</div>","null","","","","","","",""
"588","","image-keyboard-response","562","705989","0.0-6.0-0.114","","img/pink.png","32","trial","32","true","0.8,0.2","1:go_a","",""
"null","","html-keyboard-response","563","706999","0.0-6.0-1.114","","<img src=""img/pink-r.png"" border=""10"">","null","trial","32","","0.8,0.2","1:go_a","1",""
"null","","html-keyboard-response","564","708000","0.0-6.0-2.114","","<div style=""font-size:60px;"">+</div>","null","","","","","","",""
"null","","image-keyboard-response","565","709506","0.0-6.0-0.115","","img/red.png","null","trial","null","true","0.2,0.8","4:nogo_d","",""
"null","","html-keyboard-response","566","710520","0.0-6.0-1.115","","<img src=""img/red-r.png"">","null","trial","null","","0.2,0.8","4:nogo_d","1",""
"null","","html-keyboard-response","567","711522","0.0-6.0-2.115","","<div style=""font-size:60px;"">+</div>","null","","","","","","",""
"754","","image-keyboard-response","568","712277","0.0-6.0-0.116","","img/pink.png","32","trial","32","true","0.8,0.2","1:go_a","",""
"null","","html-keyboard-response","569","713292","0.0-6.0-1.116","","<img src=""img/pink-r.png"" border=""10"">","null","trial","32","","0.8,0.2","1:go_a","1",""
"null","","html-keyboard-response","570","714298","0.0-6.0-2.116","","<div style=""font-size:60px;"">+</div>","null","","","","","","",""
"null","","image-keyboard-response","571","715804","0.0-6.0-0.117","","img/blue.png","null","trial","null","true","0.2,0.8","2:nogo_b","",""
"null","","html-keyboard-response","572","716807","0.0-6.0-1.117","","<img src=""img/blue-r.png"">","null","trial","null","","0.2,0.8","2:nogo_b","1",""
"null","","html-keyboard-response","573","717812","0.0-6.0-2.117","","<div style=""font-size:60px;"">+</div>","null","","","","","","",""
"411","","image-keyboard-response","574","718223","0.0-6.0-0.118","","img/grey.png","32","trial","32","true","0.8,0.2","3:go_c","",""
"null","","html-keyboard-response","575","719238","0.0-6.0-1.118","","<img src=""img/grey-r.png"" border=""10"">","null","trial","32","","0.8,0.2","3:go_c","1",""
"null","","html-keyboard-response","576","720240","0.0-6.0-2.118","","<div style=""font-size:60px;"">+</div>","null","","","","","","",""
"null","","image-keyboard-response","577","721745","0.0-6.0-0.119","","img/red.png","null","trial","null","true","0.2,0.8","4:nogo_d","",""
"null","","html-keyboard-response","578","722760","0.0-6.0-1.119","","<img src=""img/red-r.png"">","null","trial","null","","0.2,0.8","4:nogo_d","1",""
"null","","html-keyboard-response","579","723774","0.0-6.0-2.119","","<div style=""font-size:60px;"">+</div>","null","","","","","","",""
"2818","","instructions","580","726594","0.0-7.0","[{""page_index"":0,""viewing_time"":2817}]","","","","","","","","",""
"1031","","image-keyboard-response","581","727624","0.0-8.0-0.0","","img/blue.png","32","trial","32","true","1,0","3:go_c","",""
"null","","html-keyboard-response","582","728630","0.0-8.0-1.0","","<img src=""img/blue-r.png"" border=""10"">","null","trial","32","","1,0","3:go_c","1",""
"null","","html-keyboard-response","583","729632","0.0-8.0-2.0","","<div style=""font-size:60px;"">+</div>","null","","","","","","",""
"680","","image-keyboard-response","584","730314","0.0-8.0-0.1","","img/orange.png","32","trial","null","false","0.2,0.8","2:nogo_b","",""
"null","","html-keyboard-response","585","731318","0.0-8.0-1.1","","<img src=""img/orange-r.png"" border=""10"">","null","trial","null","","0.2,0.8","2:nogo_b","1",""
"null","","html-keyboard-response","586","732321","0.0-8.0-2.1","","<div style=""font-size:60px;"">+</div>","null","","","","","","",""
"600","","image-keyboard-response","587","732921","0.0-8.0-0.2","","img/green.png","32","trial","null","false","0,1","4:nogo_d","",""
"null","","html-keyboard-response","588","733934","0.0-8.0-1.2","","<img src=""img/green-n.png"" border=""10"">","null","trial","null","","0,1","4:nogo_d","0",""
"null","","html-keyboard-response","589","734935","0.0-8.0-2.2","","<div style=""font-size:60px;"">+</div>","null","","","","","","",""
"648","","image-keyboard-response","590","735583","0.0-8.0-0.3","","img/pink.png","32","trial","32","true","0.8,0.2","1:go_a","",""
"null","","html-keyboard-response","591","736592","0.0-8.0-1.3","","<img src=""img/pink-r.png"" border=""10"">","null","trial","32","","0.8,0.2","1:go_a","1",""
"null","","html-keyboard-response","592","737598","0.0-8.0-2.3","","<div style=""font-size:60px;"">+</div>","null","","","","","","",""
"554","","image-keyboard-response","593","738152","0.0-8.0-0.4","","img/orange.png","32","trial","null","false","0.2,0.8","2:nogo_b","",""
"null","","html-keyboard-response","594","739164","0.0-8.0-1.4","","<img src=""img/orange-n.png"" border=""10"">","null","trial","null","","0.2,0.8","2:nogo_b","0",""
"null","","html-keyboard-response","595","740177","0.0-8.0-2.4","","<div style=""font-size:60px;"">+</div>","null","","","","","","",""
"536","","image-keyboard-response","596","740714","0.0-8.0-0.5","","img/pink.png","32","trial","32","true","0.8,0.2","1:go_a","",""
"null","","html-keyboard-response","597","741729","0.0-8.0-1.5","","<img src=""img/pink-r.png"" border=""10"">","null","trial","32","","0.8,0.2","1:go_a","1",""
"null","","html-keyboard-response","598","742732","0.0-8.0-2.5","","<div style=""font-size:60px;"">+</div>","null","","","","","","",""
"607","","image-keyboard-response","599","743340","0.0-8.0-0.6","","img/green.png","32","trial","null","false","0,1","4:nogo_d","",""
"null","","html-keyboard-response","600","744347","0.0-8.0-1.6","","<img src=""img/green-n.png"" border=""10"">","null","trial","null","","0,1","4:nogo_d","0",""
"null","","html-keyboard-response","601","745351","0.0-8.0-2.6","","<div style=""font-size:60px;"">+</div>","null","","","","","","",""
"482","","image-keyboard-response","602","745835","0.0-8.0-0.7","","img/blue.png","32","trial","32","true","1,0","3:go_c","",""
"null","","html-keyboard-response","603","746842","0.0-8.0-1.7","","<img src=""img/blue-r.png"" border=""10"">","null","trial","32","","1,0","3:go_c","1",""
"null","","html-keyboard-response","604","747851","0.0-8.0-2.7","","<div style=""font-size:60px;"">+</div>","null","","","","","","",""
"458","","image-keyboard-response","605","748309","0.0-8.0-0.8","","img/orange.png","32","trial","null","false","0.2,0.8","2:nogo_b","",""
"null","","html-keyboard-response","606","749319","0.0-8.0-1.8","","<img src=""img/orange-n.png"" border=""10"">","null","trial","null","","0.2,0.8","2:nogo_b","0",""
"null","","html-keyboard-response","607","750334","0.0-8.0-2.8","","<div style=""font-size:60px;"">+</div>","null","","","","","","",""
"589","","image-keyboard-response","608","750924","0.0-8.0-0.9","","img/green.png","32","trial","null","false","0,1","4:nogo_d","",""
"null","","html-keyboard-response","609","751935","0.0-8.0-1.9","","<img src=""img/green-n.png"" border=""10"">","null","trial","null","","0,1","4:nogo_d","0",""
"null","","html-keyboard-response","610","752948","0.0-8.0-2.9","","<div style=""font-size:60px;"">+</div>","null","","","","","","",""
"545","","image-keyboard-response","611","753495","0.0-8.0-0.10","","img/pink.png","32","trial","32","true","0.8,0.2","1:go_a","",""
"null","","html-keyboard-response","612","754510","0.0-8.0-1.10","","<img src=""img/pink-r.png"" border=""10"">","null","trial","32","","0.8,0.2","1:go_a","1",""
"null","","html-keyboard-response","613","755524","0.0-8.0-2.10","","<div style=""font-size:60px;"">+</div>","null","","","","","","",""
"438","","image-keyboard-response","614","755962","0.0-8.0-0.11","","img/blue.png","32","trial","32","true","1,0","3:go_c","",""
"null","","html-keyboard-response","615","756968","0.0-8.0-1.11","","<img src=""img/blue-r.png"" border=""10"">","null","trial","32","","1,0","3:go_c","1",""
"null","","html-keyboard-response","616","757974","0.0-8.0-2.11","","<div style=""font-size:60px;"">+</div>","null","","","","","","",""
"516","","image-keyboard-response","617","758492","0.0-8.0-0.12","","img/pink.png","32","trial","32","true","0.8,0.2","1:go_a","",""
"null","","html-keyboard-response","618","759497","0.0-8.0-1.12","","<img src=""img/pink-r.png"" border=""10"">","null","trial","32","","0.8,0.2","1:go_a","1",""
"null","","html-keyboard-response","619","760497","0.0-8.0-2.12","","<div style=""font-size:60px;"">+</div>","null","","","","","","",""
"663","","image-keyboard-response","620","761161","0.0-8.0-0.13","","img/blue.png","32","trial","32","true","1,0","3:go_c","",""
"null","","html-keyboard-response","621","762162","0.0-8.0-1.13","","<img src=""img/blue-r.png"" border=""10"">","null","trial","32","","1,0","3:go_c","1",""
"null","","html-keyboard-response","622","763175","0.0-8.0-2.13","","<div style=""font-size:60px;"">+</div>","null","","","","","","",""
"null","","image-keyboard-response","623","764678","0.0-8.0-0.14","","img/orange.png","null","trial","null","true","0.2,0.8","2:nogo_b","",""
"null","","html-keyboard-response","624","765680","0.0-8.0-1.14","","<img src=""img/orange-r.png"">","null","trial","null","","0.2,0.8","2:nogo_b","1",""
"null","","html-keyboard-response","625","766681","0.0-8.0-2.14","","<div style=""font-size:60px;"">+</div>","null","","","","","","",""
"null","","image-keyboard-response","626","768183","0.0-8.0-0.15","","img/green.png","null","trial","null","true","0,1","4:nogo_d","",""
"null","","html-keyboard-response","627","769187","0.0-8.0-1.15","","<img src=""img/green-r.png"">","null","trial","null","","0,1","4:nogo_d","1",""
"null","","html-keyboard-response","628","770200","0.0-8.0-2.15","","<div style=""font-size:60px;"">+</div>","null","","","","","","",""
"null","","image-keyboard-response","629","771711","0.0-8.0-0.16","","img/orange.png","null","trial","null","true","0.2,0.8","2:nogo_b","",""
"null","","html-keyboard-response","630","772714","0.0-8.0-1.16","","<img src=""img/orange-r.png"">","null","trial","null","","0.2,0.8","2:nogo_b","1",""
"null","","html-keyboard-response","631","773715","0.0-8.0-2.16","","<div style=""font-size:60px;"">+</div>","null","","","","","","",""
"1320","","image-keyboard-response","632","775036","0.0-8.0-0.17","","img/pink.png","32","trial","32","true","0.8,0.2","1:go_a","",""
"null","","html-keyboard-response","633","776043","0.0-8.0-1.17","","<img src=""img/pink-r.png"" border=""10"">","null","trial","32","","0.8,0.2","1:go_a","1",""
"null","","html-keyboard-response","634","777058","0.0-8.0-2.17","","<div style=""font-size:60px;"">+</div>","null","","","","","","",""
"null","","image-keyboard-response","635","778561","0.0-8.0-0.18","","img/green.png","null","trial","null","true","0,1","4:nogo_d","",""
"null","","html-keyboard-response","636","779575","0.0-8.0-1.18","","<img src=""img/green-r.png"">","null","trial","null","","0,1","4:nogo_d","1",""
"null","","html-keyboard-response","637","780589","0.0-8.0-2.18","","<div style=""font-size:60px;"">+</div>","null","","","","","","",""
"371","","image-keyboard-response","638","780959","0.0-8.0-0.19","","img/blue.png","32","trial","32","true","1,0","3:go_c","",""
"null","","html-keyboard-response","639","781969","0.0-8.0-1.19","","<img src=""img/blue-r.png"" border=""10"">","null","trial","32","","1,0","3:go_c","1",""
"null","","html-keyboard-response","640","782974","0.0-8.0-2.19","","<div style=""font-size:60px;"">+</div>","null","","","","","","",""
"654","","image-keyboard-response","641","783629","0.0-8.0-0.20","","img/blue.png","32","trial","32","true","1,0","3:go_c","",""
"null","","html-keyboard-response","642","784637","0.0-8.0-1.20","","<img src=""img/blue-r.png"" border=""10"">","null","trial","32","","1,0","3:go_c","1",""
"null","","html-keyboard-response","643","785641","0.0-8.0-2.20","","<div style=""font-size:60px;"">+</div>","null","","","","","","",""
"null","","image-keyboard-response","644","787143","0.0-8.0-0.21","","img/green.png","null","trial","null","true","0,1","4:nogo_d","",""
"null","","html-keyboard-response","645","788159","0.0-8.0-1.21","","<img src=""img/green-r.png"">","null","trial","null","","0,1","4:nogo_d","1",""
"null","","html-keyboard-response","646","789172","0.0-8.0-2.21","","<div style=""font-size:60px;"">+</div>","null","","","","","","",""
"null","","image-keyboard-response","647","790688","0.0-8.0-0.22","","img/orange.png","null","trial","null","true","0.2,0.8","2:nogo_b","",""
"null","","html-keyboard-response","648","791702","0.0-8.0-1.22","","<img src=""img/orange-r.png"">","null","trial","null","","0.2,0.8","2:nogo_b","1",""
"null","","html-keyboard-response","649","792718","0.0-8.0-2.22","","<div style=""font-size:60px;"">+</div>","null","","","","","","",""
"534","","image-keyboard-response","650","793254","0.0-8.0-0.23","","img/pink.png","32","trial","32","true","0.8,0.2","1:go_a","",""
"null","","html-keyboard-response","651","794267","0.0-8.0-1.23","","<img src=""img/pink-r.png"" border=""10"">","null","trial","32","","0.8,0.2","1:go_a","1",""
"null","","html-keyboard-response","652","795270","0.0-8.0-2.23","","<div style=""font-size:60px;"">+</div>","null","","","","","","",""
"null","","image-keyboard-response","653","796774","0.0-8.0-0.24","","img/orange.png","null","trial","null","true","0.2,0.8","2:nogo_b","",""
"null","","html-keyboard-response","654","797789","0.0-8.0-1.24","","<img src=""img/orange-r.png"">","null","trial","null","","0.2,0.8","2:nogo_b","1",""
"null","","html-keyboard-response","655","798804","0.0-8.0-2.24","","<div style=""font-size:60px;"">+</div>","null","","","","","","",""
"null","","image-keyboard-response","656","800318","0.0-8.0-0.25","","img/green.png","null","trial","null","true","0,1","4:nogo_d","",""
"null","","html-keyboard-response","657","801321","0.0-8.0-1.25","","<img src=""img/green-r.png"">","null","trial","null","","0,1","4:nogo_d","1",""
"null","","html-keyboard-response","658","802325","0.0-8.0-2.25","","<div style=""font-size:60px;"">+</div>","null","","","","","","",""
"477","","image-keyboard-response","659","802802","0.0-8.0-0.26","","img/blue.png","32","trial","32","true","1,0","3:go_c","",""
"null","","html-keyboard-response","660","803808","0.0-8.0-1.26","","<img src=""img/blue-r.png"" border=""10"">","null","trial","32","","1,0","3:go_c","1",""
"null","","html-keyboard-response","661","804820","0.0-8.0-2.26","","<div style=""font-size:60px;"">+</div>","null","","","","","","",""
"445","","image-keyboard-response","662","805264","0.0-8.0-0.27","","img/pink.png","32","trial","32","true","0.8,0.2","1:go_a","",""
"null","","html-keyboard-response","663","806275","0.0-8.0-1.27","","<img src=""img/pink-r.png"" border=""10"">","null","trial","32","","0.8,0.2","1:go_a","1",""
"null","","html-keyboard-response","664","807279","0.0-8.0-2.27","","<div style=""font-size:60px;"">+</div>","null","","","","","","",""
"704","","image-keyboard-response","665","807983","0.0-8.0-0.28","","img/blue.png","32","trial","32","true","1,0","3:go_c","",""
"null","","html-keyboard-response","666","808989","0.0-8.0-1.28","","<img src=""img/blue-r.png"" border=""10"">","null","trial","32","","1,0","3:go_c","1",""
"null","","html-keyboard-response","667","810003","0.0-8.0-2.28","","<div style=""font-size:60px;"">+</div>","null","","","","","","",""
"null","","image-keyboard-response","668","811508","0.0-8.0-0.29","","img/orange.png","null","trial","null","true","0.2,0.8","2:nogo_b","",""
"null","","html-keyboard-response","669","812511","0.0-8.0-1.29","","<img src=""img/orange-r.png"">","null","trial","null","","0.2,0.8","2:nogo_b","1",""
"null","","html-keyboard-response","670","813526","0.0-8.0-2.29","","<div style=""font-size:60px;"">+</div>","null","","","","","","",""
"null","","image-keyboard-response","671","815029","0.0-8.0-0.30","","img/green.png","null","trial","null","true","0,1","4:nogo_d","",""
"null","","html-keyboard-response","672","816033","0.0-8.0-1.30","","<img src=""img/green-r.png"">","null","trial","null","","0,1","4:nogo_d","1",""
"null","","html-keyboard-response","673","817036","0.0-8.0-2.30","","<div style=""font-size:60px;"">+</div>","null","","","","","","",""
"497","","image-keyboard-response","674","817534","0.0-8.0-0.31","","img/pink.png","32","trial","32","true","0.8,0.2","1:go_a","",""
"null","","html-keyboard-response","675","818538","0.0-8.0-1.31","","<img src=""img/pink-r.png"" border=""10"">","null","trial","32","","0.8,0.2","1:go_a","1",""
"null","","html-keyboard-response","676","819554","0.0-8.0-2.31","","<div style=""font-size:60px;"">+</div>","null","","","","","","",""
"null","","image-keyboard-response","677","821061","0.0-8.0-0.32","","img/orange.png","null","trial","null","true","0.2,0.8","2:nogo_b","",""
"null","","html-keyboard-response","678","822067","0.0-8.0-1.32","","<img src=""img/orange-r.png"">","null","trial","null","","0.2,0.8","2:nogo_b","1",""
"null","","html-keyboard-response","679","823068","0.0-8.0-2.32","","<div style=""font-size:60px;"">+</div>","null","","","","","","",""
"379","","image-keyboard-response","680","823449","0.0-8.0-0.33","","img/blue.png","32","trial","32","true","1,0","3:go_c","",""
"null","","html-keyboard-response","681","824461","0.0-8.0-1.33","","<img src=""img/blue-r.png"" border=""10"">","null","trial","32","","1,0","3:go_c","1",""
"null","","html-keyboard-response","682","825463","0.0-8.0-2.33","","<div style=""font-size:60px;"">+</div>","null","","","","","","",""
"461","","image-keyboard-response","683","825924","0.0-8.0-0.34","","img/pink.png","32","trial","32","true","0.8,0.2","1:go_a","",""
"null","","html-keyboard-response","684","826934","0.0-8.0-1.34","","<img src=""img/pink-n.png"" border=""10"">","null","trial","32","","0.8,0.2","1:go_a","0",""
"null","","html-keyboard-response","685","827938","0.0-8.0-2.34","","<div style=""font-size:60px;"">+</div>","null","","","","","","",""
"null","","image-keyboard-response","686","829441","0.0-8.0-0.35","","img/green.png","null","trial","null","true","0,1","4:nogo_d","",""
"null","","html-keyboard-response","687","830446","0.0-8.0-1.35","","<img src=""img/green-r.png"">","null","trial","null","","0,1","4:nogo_d","1",""
"null","","html-keyboard-response","688","831462","0.0-8.0-2.35","","<div style=""font-size:60px;"">+</div>","null","","","","","","",""
"null","","image-keyboard-response","689","832978","0.0-8.0-0.36","","img/green.png","null","trial","null","true","0,1","4:nogo_d","",""
"null","","html-keyboard-response","690","833993","0.0-8.0-1.36","","<img src=""img/green-r.png"">","null","trial","null","","0,1","4:nogo_d","1",""
"null","","html-keyboard-response","691","835008","0.0-8.0-2.36","","<div style=""font-size:60px;"">+</div>","null","","","","","","",""
"535","","image-keyboard-response","692","835544","0.0-8.0-0.37","","img/pink.png","32","trial","32","true","0.8,0.2","1:go_a","",""
"null","","html-keyboard-response","693","836559","0.0-8.0-1.37","","<img src=""img/pink-r.png"" border=""10"">","null","trial","32","","0.8,0.2","1:go_a","1",""
"null","","html-keyboard-response","694","837572","0.0-8.0-2.37","","<div style=""font-size:60px;"">+</div>","null","","","","","","",""
"442","","image-keyboard-response","695","838017","0.0-8.0-0.38","","img/blue.png","32","trial","32","true","1,0","3:go_c","",""
