"rt","url","trial_type","trial_index","time_elapsed","internal_node_id","view_history","stimulus","key_press","test_part","correct_response","correct","use_rew","which_stim","reward","responses"
"27736.859999989974","consent.html","external-html","0","27924","0.0-0.0","","","","","","","","","",""
"47944.23500000266","","instructions","1","75870","0.0-1.0","[{""page_index"":0,""viewing_time"":1796.585000003688},{""page_index"":1,""viewing_time"":8619.80999998923},{""page_index"":2,""viewing_time"":2649.250000002212},{""page_index"":3,""viewing_time"":15510.93000000401},{""page_index"":4,""viewing_time"":8434.959999998682},{""page_index"":5,""viewing_time"":4129.254999992554},{""page_index"":6,""viewing_time"":6802.425000001676}]","","","","","","","","",""
"970.115000003716","","image-keyboard-response","2","76842","0.0-2.0-0.0","","img/test1.PNG","32","practice","32","true","","","",""
"null","","html-keyboard-response","3","77844","0.0-2.0-1.0","","<img src=""img/test1-reward.PNG"" border=""10px; grey"">","null","","","","","","",""
"null","","html-keyboard-response","4","78845","0.0-2.0-2.0","","<div style=""font-size:60px;"">+</div>","null","","","","","","",""
"null","","image-keyboard-response","5","80347","0.0-2.0-0.1","","img/test2.PNG","null","practice","null","true","","","",""
"null","","html-keyboard-response","6","81349","0.0-2.0-1.1","","<img src=""img/test2-reward.PNG"">","null","","","","","","",""
"null","","html-keyboard-response","7","82351","0.0-2.0-2.1","","<div style=""font-size:60px;"">+</div>","null","","","","","","",""
"562.2850000072503","","image-keyboard-response","8","82914","0.0-2.0-0.2","","img/test3.PNG","32","practice","null","false","","","",""
"null","","html-keyboard-response","9","83916","0.0-2.0-1.2","","<img src=""img/test3-neutral.PNG"" border=""10px; grey"">","null","","","","","","",""
"null","","html-keyboard-response","10","84918","0.0-2.0-2.2","","<div style=""font-size:60px;"">+</div>","null","","","","","","",""
"352.4199999956181","","image-keyboard-response","11","85271","0.0-2.0-0.3","","img/test2.PNG","32","practice","null","false","","","",""
"null","","html-keyboard-response","12","86273","0.0-2.0-1.3","","<img src=""img/test2-neutral.PNG"" border=""10px; grey"">","null","","","","","","",""
"null","","html-keyboard-response","13","87285","0.0-2.0-2.3","","<div style=""font-size:60px;"">+</div>","null","","","","","","",""
"null","","image-keyboard-response","14","88786","0.0-2.0-0.4","","img/test3.PNG","null","practice","null","true","","","",""
"null","","html-keyboard-response","15","89789","0.0-2.0-1.4","","<img src=""img/test3-reward.PNG"">","null","","","","","","",""
"null","","html-keyboard-response","16","90790","0.0-2.0-2.4","","<div style=""font-size:60px;"">+</div>","null","","","","","","",""
"523.1500000081724","","image-keyboard-response","17","91315","0.0-2.0-0.5","","img/test1.PNG","32","practice","32","true","","","",""
"null","","html-keyboard-response","18","92317","0.0-2.0-1.5","","<img src=""img/test1-reward.PNG"" border=""10px; grey"">","null","","","","","","",""
"null","","html-keyboard-response","19","93318","0.0-2.0-2.5","","<div style=""font-size:60px;"">+</div>","null","","","","","","",""
"432.9999999899883","","image-keyboard-response","20","93751","0.0-2.0-0.6","","img/test1.PNG","32","practice","32","true","","","",""
"null","","html-keyboard-response","21","94753","0.0-2.0-1.6","","<img src=""img/test1-reward.PNG"" border=""10px; grey"">","null","","","","","","",""
"null","","html-keyboard-response","22","95755","0.0-2.0-2.6","","<div style=""font-size:60px;"">+</div>","null","","","","","","",""
"null","","image-keyboard-response","23","97256","0.0-2.0-0.7","","img/test3.PNG","null","practice","null","true","","","",""
"null","","html-keyboard-response","24","98257","0.0-2.0-1.7","","<img src=""img/test3-reward.PNG"">","null","","","","","","",""
"null","","html-keyboard-response","25","99258","0.0-2.0-2.7","","<div style=""font-size:60px;"">+</div>","null","","","","","","",""
"null","","image-keyboard-response","26","100761","0.0-2.0-0.8","","img/test2.PNG","null","practice","null","true","","","",""
"null","","html-keyboard-response","27","101763","0.0-2.0-1.8","","<img src=""img/test2-reward.PNG"">","null","","","","","","",""
"null","","html-keyboard-response","28","102764","0.0-2.0-2.8","","<div style=""font-size:60px;"">+</div>","null","","","","","","",""
"357.38499999570195","","image-keyboard-response","29","103122","0.0-2.0-0.9","","img/test1.PNG","32","practice","32","true","","","",""
"null","","html-keyboard-response","30","104125","0.0-2.0-1.9","","<img src=""img/test1-reward.PNG"" border=""10px; grey"">","null","","","","","","",""
"null","","html-keyboard-response","31","105126","0.0-2.0-2.9","","<div style=""font-size:60px;"">+</div>","null","","","","","","",""
"343.90500000154134","","image-keyboard-response","32","105470","0.0-2.0-0.10","","img/test2.PNG","32","practice","null","false","","","",""
"null","","html-keyboard-response","33","106472","0.0-2.0-1.10","","<img src=""img/test2-neutral.PNG"" border=""10px; grey"">","null","","","","","","",""
"null","","html-keyboard-response","34","107473","0.0-2.0-2.10","","<div style=""font-size:60px;"">+</div>","null","","","","","","",""
"307.60499999450985","","image-keyboard-response","35","107781","0.0-2.0-0.11","","img/test3.PNG","32","practice","null","false","","","",""
"null","","html-keyboard-response","36","108783","0.0-2.0-1.11","","<img src=""img/test3-neutral.PNG"" border=""10px; grey"">","null","","","","","","",""
"null","","html-keyboard-response","37","109784","0.0-2.0-2.11","","<div style=""font-size:60px;"">+</div>","null","","","","","","",""
"2217.820000005304","","instructions","38","112002","0.0-3.0","[{""page_index"":0,""viewing_time"":2217.560000004596}]","","","","","","","","",""
"1187.5549999967916","","image-keyboard-response","39","113191","0.0-4.0-0.0","","img/green.png","32","trial","null","false","0.2,0.8","2:nogo_b","",""
"null","","html-keyboard-response","40","114193","0.0-4.0-1.0","","<img src=""img/green-n.png"" border=""10"">","null","trial","null","","0.2,0.8","2:nogo_b","0",""
"null","","html-keyboard-response","41","115196","0.0-4.0-2.0","","<div style=""font-size:60px;"">+</div>","null","","","","","","",""
"447.5899999961257","","image-keyboard-response","42","115644","0.0-4.0-0.1","","img/yellow.png","32","trial","32","true","0.8,0.2","1:go_a","",""
"null","","html-keyboard-response","43","116646","0.0-4.0-1.1","","<img src=""img/yellow-r.png"" border=""10"">","null","trial","32","","0.8,0.2","1:go_a","1",""
"null","","html-keyboard-response","44","117647","0.0-4.0-2.1","","<div style=""font-size:60px;"">+</div>","null","","","","","","",""
"344.7349999914877","","image-keyboard-response","45","117993","0.0-4.0-0.2","","img/yellow.png","32","trial","32","true","0.8,0.2","1:go_a","",""
"null","","html-keyboard-response","46","118995","0.0-4.0-1.2","","<img src=""img/yellow-r.png"" border=""10"">","null","trial","32","","0.8,0.2","1:go_a","1",""
"null","","html-keyboard-response","47","119996","0.0-4.0-2.2","","<div style=""font-size:60px;"">+</div>","null","","","","","","",""
"552.5099999940721","","image-keyboard-response","48","120549","0.0-4.0-0.3","","img/green.png","32","trial","null","false","0.2,0.8","2:nogo_b","",""
"null","","html-keyboard-response","49","121552","0.0-4.0-1.3","","<img src=""img/green-r.png"" border=""10"">","null","trial","null","","0.2,0.8","2:nogo_b","1",""
"null","","html-keyboard-response","50","122552","0.0-4.0-2.3","","<div style=""font-size:60px;"">+</div>","null","","","","","","",""
"351.38500000175554","","image-keyboard-response","51","122904","0.0-4.0-0.4","","img/yellow.png","32","trial","32","true","0.8,0.2","1:go_a","",""
"null","","html-keyboard-response","52","123907","0.0-4.0-1.4","","<img src=""img/yellow-r.png"" border=""10"">","null","trial","32","","0.8,0.2","1:go_a","1",""
"null","","html-keyboard-response","53","124908","0.0-4.0-2.4","","<div style=""font-size:60px;"">+</div>","null","","","","","","",""
"366.8150000012247","","image-keyboard-response","54","125275","0.0-4.0-0.5","","img/green.png","32","trial","null","false","0.2,0.8","2:nogo_b","",""
"null","","html-keyboard-response","55","126278","0.0-4.0-1.5","","<img src=""img/green-n.png"" border=""10"">","null","trial","null","","0.2,0.8","2:nogo_b","0",""
"null","","html-keyboard-response","56","127279","0.0-4.0-2.5","","<div style=""font-size:60px;"">+</div>","null","","","","","","",""
"null","","image-keyboard-response","57","128782","0.0-4.0-0.6","","img/green.png","null","trial","null","true","0.2,0.8","2:nogo_b","",""
"null","","html-keyboard-response","58","129784","0.0-4.0-1.6","","<img src=""img/green-r.png"">","null","trial","null","","0.2,0.8","2:nogo_b","1",""
"null","","html-keyboard-response","59","130786","0.0-4.0-2.6","","<div style=""font-size:60px;"">+</div>","null","","","","","","",""
"292.7600000111852","","image-keyboard-response","60","131080","0.0-4.0-0.7","","img/yellow.png","32","trial","32","true","0.8,0.2","1:go_a","",""
"null","","html-keyboard-response","61","132083","0.0-4.0-1.7","","<img src=""img/yellow-r.png"" border=""10"">","null","trial","32","","0.8,0.2","1:go_a","1",""
"null","","html-keyboard-response","62","133086","0.0-4.0-2.7","","<div style=""font-size:60px;"">+</div>","null","","","","","","",""
"365.29000000155065","","image-keyboard-response","63","133452","0.0-4.0-0.8","","img/yellow.png","32","trial","32","true","0.8,0.2","1:go_a","",""
"null","","html-keyboard-response","64","134454","0.0-4.0-1.8","","<img src=""img/yellow-r.png"" border=""10"">","null","trial","32","","0.8,0.2","1:go_a","1",""
"null","","html-keyboard-response","65","135455","0.0-4.0-2.8","","<div style=""font-size:60px;"">+</div>","null","","","","","","",""
"383.0100000050152","","image-keyboard-response","66","135839","0.0-4.0-0.9","","img/green.png","32","trial","null","false","0.2,0.8","2:nogo_b","",""
"null","","html-keyboard-response","67","136847","0.0-4.0-1.9","","<img src=""img/green-n.png"" border=""10"">","null","trial","null","","0.2,0.8","2:nogo_b","0",""
"null","","html-keyboard-response","68","137848","0.0-4.0-2.9","","<div style=""font-size:60px;"">+</div>","null","","","","","","",""
"359.8700000002282","","image-keyboard-response","69","138209","0.0-4.0-0.10","","img/yellow.png","32","trial","32","true","0.8,0.2","1:go_a","",""
"null","","html-keyboard-response","70","139212","0.0-4.0-1.10","","<img src=""img/yellow-r.png"" border=""10"">","null","trial","32","","0.8,0.2","1:go_a","1",""
"null","","html-keyboard-response","71","140214","0.0-4.0-2.10","","<div style=""font-size:60px;"">+</div>","null","","","","","","",""
"null","","image-keyboard-response","72","141716","0.0-4.0-0.11","","img/green.png","null","trial","null","true","0.2,0.8","2:nogo_b","",""
"null","","html-keyboard-response","73","142722","0.0-4.0-1.11","","<img src=""img/green-r.png"">","null","trial","null","","0.2,0.8","2:nogo_b","1",""
"null","","html-keyboard-response","74","143733","0.0-4.0-2.11","","<div style=""font-size:60px;"">+</div>","null","","","","","","",""
"287.79000000213273","","image-keyboard-response","75","144022","0.0-4.0-0.12","","img/yellow.png","32","trial","32","true","0.8,0.2","1:go_a","",""
"null","","html-keyboard-response","76","145024","0.0-4.0-1.12","","<img src=""img/yellow-r.png"" border=""10"">","null","trial","32","","0.8,0.2","1:go_a","1",""
"null","","html-keyboard-response","77","146025","0.0-4.0-2.12","","<div style=""font-size:60px;"">+</div>","null","","","","","","",""
"321.8250000063563","","image-keyboard-response","78","146347","0.0-4.0-0.13","","img/green.png","32","trial","null","false","0.2,0.8","2:nogo_b","",""
"null","","html-keyboard-response","79","147350","0.0-4.0-1.13","","<img src=""img/green-n.png"" border=""10"">","null","trial","null","","0.2,0.8","2:nogo_b","0",""
"null","","html-keyboard-response","80","148350","0.0-4.0-2.13","","<div style=""font-size:60px;"">+</div>","null","","","","","","",""
"328.76499999838416","","image-keyboard-response","81","148680","0.0-4.0-0.14","","img/yellow.png","32","trial","32","true","0.8,0.2","1:go_a","",""
"null","","html-keyboard-response","82","149682","0.0-4.0-1.14","","<img src=""img/yellow-r.png"" border=""10"">","null","trial","32","","0.8,0.2","1:go_a","1",""
"null","","html-keyboard-response","83","150684","0.0-4.0-2.14","","<div style=""font-size:60px;"">+</div>","null","","","","","","",""
"null","","image-keyboard-response","84","152184","0.0-4.0-0.15","","img/green.png","null","trial","null","true","0.2,0.8","2:nogo_b","",""
"null","","html-keyboard-response","85","153186","0.0-4.0-1.15","","<img src=""img/green-r.png"">","null","trial","null","","0.2,0.8","2:nogo_b","1",""
"null","","html-keyboard-response","86","154187","0.0-4.0-2.15","","<div style=""font-size:60px;"">+</div>","null","","","","","","",""
"251.46500000846572","","image-keyboard-response","87","154439","0.0-4.0-0.16","","img/green.png","32","trial","null","false","0.2,0.8","2:nogo_b","",""
"null","","html-keyboard-response","88","155441","0.0-4.0-1.16","","<img src=""img/green-n.png"" border=""10"">","null","trial","null","","0.2,0.8","2:nogo_b","0",""
"null","","html-keyboard-response","89","156443","0.0-4.0-2.16","","<div style=""font-size:60px;"">+</div>","null","","","","","","",""
"321.589999992284","","image-keyboard-response","90","156765","0.0-4.0-0.17","","img/yellow.png","32","trial","32","true","0.8,0.2","1:go_a","",""
"null","","html-keyboard-response","91","157767","0.0-4.0-1.17","","<img src=""img/yellow-r.png"" border=""10"">","null","trial","32","","0.8,0.2","1:go_a","1",""
"null","","html-keyboard-response","92","158768","0.0-4.0-2.17","","<div style=""font-size:60px;"">+</div>","null","","","","","","",""
"555.3600000130245","","image-keyboard-response","93","159324","0.0-4.0-0.18","","img/yellow.png","32","trial","32","true","0.8,0.2","1:go_a","",""
"null","","html-keyboard-response","94","160325","0.0-4.0-1.18","","<img src=""img/yellow-r.png"" border=""10"">","null","trial","32","","0.8,0.2","1:go_a","1",""
"null","","html-keyboard-response","95","161327","0.0-4.0-2.18","","<div style=""font-size:60px;"">+</div>","null","","","","","","",""
"null","","image-keyboard-response","96","162828","0.0-4.0-0.19","","img/green.png","null","trial","null","true","0.2,0.8","2:nogo_b","",""
"null","","html-keyboard-response","97","163831","0.0-4.0-1.19","","<img src=""img/green-r.png"">","null","trial","null","","0.2,0.8","2:nogo_b","1",""
"null","","html-keyboard-response","98","164833","0.0-4.0-2.19","","<div style=""font-size:60px;"">+</div>","null","","","","","","",""
"null","","image-keyboard-response","99","166335","0.0-4.0-0.20","","img/green.png","null","trial","null","true","0.2,0.8","2:nogo_b","",""
"null","","html-keyboard-response","100","167337","0.0-4.0-1.20","","<img src=""img/green-r.png"">","null","trial","null","","0.2,0.8","2:nogo_b","1",""
"null","","html-keyboard-response","101","168338","0.0-4.0-2.20","","<div style=""font-size:60px;"">+</div>","null","","","","","","",""
"515.7900000049267","","image-keyboard-response","102","168854","0.0-4.0-0.21","","img/yellow.png","32","trial","32","true","0.8,0.2","1:go_a","",""
"null","","html-keyboard-response","103","169856","0.0-4.0-1.21","","<img src=""img/yellow-r.png"" border=""10"">","null","trial","32","","0.8,0.2","1:go_a","1",""
"null","","html-keyboard-response","104","170857","0.0-4.0-2.21","","<div style=""font-size:60px;"">+</div>","null","","","","","","",""
"344.97999999439344","","image-keyboard-response","105","171203","0.0-4.0-0.22","","img/yellow.png","32","trial","32","true","0.8,0.2","1:go_a","",""
"null","","html-keyboard-response","106","172205","0.0-4.0-1.22","","<img src=""img/yellow-r.png"" border=""10"">","null","trial","32","","0.8,0.2","1:go_a","1",""
"null","","html-keyboard-response","107","173206","0.0-4.0-2.22","","<div style=""font-size:60px;"">+</div>","null","","","","","","",""
"null","","image-keyboard-response","108","174709","0.0-4.0-0.23","","img/green.png","null","trial","null","true","0.2,0.8","2:nogo_b","",""
"null","","html-keyboard-response","109","175711","0.0-4.0-1.23","","<img src=""img/green-r.png"">","null","trial","null","","0.2,0.8","2:nogo_b","1",""
"null","","html-keyboard-response","110","176713","0.0-4.0-2.23","","<div style=""font-size:60px;"">+</div>","null","","","","","","",""
"341.8200000014622","","image-keyboard-response","111","177055","0.0-4.0-0.24","","img/yellow.png","32","trial","32","true","0.8,0.2","1:go_a","",""
"null","","html-keyboard-response","112","178057","0.0-4.0-1.24","","<img src=""img/yellow-r.png"" border=""10"">","null","trial","32","","0.8,0.2","1:go_a","1",""
"null","","html-keyboard-response","113","179058","0.0-4.0-2.24","","<div style=""font-size:60px;"">+</div>","null","","","","","","",""
"null","","image-keyboard-response","114","180559","0.0-4.0-0.25","","img/green.png","null","trial","null","true","0.2,0.8","2:nogo_b","",""
"null","","html-keyboard-response","115","181561","0.0-4.0-1.25","","<img src=""img/green-n.png"">","null","trial","null","","0.2,0.8","2:nogo_b","0",""
"null","","html-keyboard-response","116","182563","0.0-4.0-2.25","","<div style=""font-size:60px;"">+</div>","null","","","","","","",""
"373.7249999976484","","image-keyboard-response","117","182938","0.0-4.0-0.26","","img/yellow.png","32","trial","32","true","0.8,0.2","1:go_a","",""
"null","","html-keyboard-response","118","183941","0.0-4.0-1.26","","<img src=""img/yellow-r.png"" border=""10"">","null","trial","32","","0.8,0.2","1:go_a","1",""
"null","","html-keyboard-response","119","184943","0.0-4.0-2.26","","<div style=""font-size:60px;"">+</div>","null","","","","","","",""
"null","","image-keyboard-response","120","186444","0.0-4.0-0.27","","img/green.png","null","trial","null","true","0.2,0.8","2:nogo_b","",""
"null","","html-keyboard-response","121","187446","0.0-4.0-1.27","","<img src=""img/green-n.png"">","null","trial","null","","0.2,0.8","2:nogo_b","0",""
"null","","html-keyboard-response","122","188447","0.0-4.0-2.27","","<div style=""font-size:60px;"">+</div>","null","","","","","","",""
"248.2999999920139","","image-keyboard-response","123","188696","0.0-4.0-0.28","","img/yellow.png","32","trial","32","true","0.8,0.2","1:go_a","",""
"null","","html-keyboard-response","124","189699","0.0-4.0-1.28","","<img src=""img/yellow-n.png"" border=""10"">","null","trial","32","","0.8,0.2","1:go_a","0",""
"null","","html-keyboard-response","125","190701","0.0-4.0-2.28","","<div style=""font-size:60px;"">+</div>","null","","","","","","",""
"199.94999999471474","","image-keyboard-response","126","190901","0.0-4.0-0.29","","img/green.png","32","trial","null","false","0.2,0.8","2:nogo_b","",""
"null","","html-keyboard-response","127","191903","0.0-4.0-1.29","","<img src=""img/green-n.png"" border=""10"">","null","trial","null","","0.2,0.8","2:nogo_b","0",""
"null","","html-keyboard-response","128","192915","0.0-4.0-2.29","","<div style=""font-size:60px;"">+</div>","null","","","","","","",""
"351.3200000015786","","image-keyboard-response","129","193267","0.0-4.0-0.30","","img/green.png","32","trial","null","false","0.2,0.8","2:nogo_b","",""
"null","","html-keyboard-response","130","194268","0.0-4.0-1.30","","<img src=""img/green-n.png"" border=""10"">","null","trial","null","","0.2,0.8","2:nogo_b","0",""
"null","","html-keyboard-response","131","195271","0.0-4.0-2.30","","<div style=""font-size:60px;"">+</div>","null","","","","","","",""
"330.31999999366235","","image-keyboard-response","132","195602","0.0-4.0-0.31","","img/yellow.png","32","trial","32","true","0.8,0.2","1:go_a","",""
"null","","html-keyboard-response","133","196604","0.0-4.0-1.31","","<img src=""img/yellow-r.png"" border=""10"">","null","trial","32","","0.8,0.2","1:go_a","1",""
"null","","html-keyboard-response","134","197605","0.0-4.0-2.31","","<div style=""font-size:60px;"">+</div>","null","","","","","","",""
"null","","image-keyboard-response","135","199106","0.0-4.0-0.32","","img/green.png","null","trial","null","true","0.2,0.8","2:nogo_b","",""
"null","","html-keyboard-response","136","200108","0.0-4.0-1.32","","<img src=""img/green-r.png"">","null","trial","null","","0.2,0.8","2:nogo_b","1",""
"null","","html-keyboard-response","137","201109","0.0-4.0-2.32","","<div style=""font-size:60px;"">+</div>","null","","","","","","",""
"337.12999999988824","","image-keyboard-response","138","201447","0.0-4.0-0.33","","img/yellow.png","32","trial","32","true","0.8,0.2","1:go_a","",""
"null","","html-keyboard-response","139","202448","0.0-4.0-1.33","","<img src=""img/yellow-r.png"" border=""10"">","null","trial","32","","0.8,0.2","1:go_a","1",""
"null","","html-keyboard-response","140","203449","0.0-4.0-2.33","","<div style=""font-size:60px;"">+</div>","null","","","","","","",""
"593.6750000109896","","image-keyboard-response","141","204044","0.0-4.0-0.34","","img/yellow.png","32","trial","32","true","0.8,0.2","1:go_a","",""
"null","","html-keyboard-response","142","205045","0.0-4.0-1.34","","<img src=""img/yellow-r.png"" border=""10"">","null","trial","32","","0.8,0.2","1:go_a","1",""
"null","","html-keyboard-response","143","206047","0.0-4.0-2.34","","<div style=""font-size:60px;"">+</div>","null","","","","","","",""
"null","","image-keyboard-response","144","207549","0.0-4.0-0.35","","img/green.png","null","trial","null","true","0.2,0.8","2:nogo_b","",""
"null","","html-keyboard-response","145","208551","0.0-4.0-1.35","","<img src=""img/green-r.png"">","null","trial","null","","0.2,0.8","2:nogo_b","1",""
"null","","html-keyboard-response","146","209552","0.0-4.0-2.35","","<div style=""font-size:60px;"">+</div>","null","","","","","","",""
"303.53000000468455","","image-keyboard-response","147","209856","0.0-4.0-0.36","","img/yellow.png","32","trial","32","true","0.8,0.2","1:go_a","",""
"null","","html-keyboard-response","148","210858","0.0-4.0-1.36","","<img src=""img/yellow-n.png"" border=""10"">","null","trial","32","","0.8,0.2","1:go_a","0",""
"null","","html-keyboard-response","149","211859","0.0-4.0-2.36","","<div style=""font-size:60px;"">+</div>","null","","","","","","",""
"329.4799999857787","","image-keyboard-response","150","212189","0.0-4.0-0.37","","img/green.png","32","trial","null","false","0.2,0.8","2:nogo_b","",""
"null","","html-keyboard-response","151","213191","0.0-4.0-1.37","","<img src=""img/green-r.png"" border=""10"">","null","trial","null","","0.2,0.8","2:nogo_b","1",""
"null","","html-keyboard-response","152","214193","0.0-4.0-2.37","","<div style=""font-size:60px;"">+</div>","null","","","","","","",""
"null","","image-keyboard-response","153","215696","0.0-4.0-0.38","","img/yellow.png","null","trial","32","false","0.8,0.2","1:go_a","",""
"null","","html-keyboard-response","154","216697","0.0-4.0-1.38","","<img src=""img/yellow-n.png"">","null","trial","32","","0.8,0.2","1:go_a","0",""
"null","","html-keyboard-response","155","217699","0.0-4.0-2.38","","<div style=""font-size:60px;"">+</div>","null","","","","","","",""
"308.34000000322703","","image-keyboard-response","156","218008","0.0-4.0-0.39","","img/green.png","32","trial","null","false","0.2,0.8","2:nogo_b","",""
"null","","html-keyboard-response","157","219011","0.0-4.0-1.39","","<img src=""img/green-n.png"" border=""10"">","null","trial","null","","0.2,0.8","2:nogo_b","0",""
"null","","html-keyboard-response","158","220012","0.0-4.0-2.39","","<div style=""font-size:60px;"">+</div>","null","","","","","","",""
"362.5250000040978","","image-keyboard-response","159","220375","0.0-4.0-0.40","","img/green.png","32","trial","null","false","0.2,0.8","2:nogo_b","",""
"null","","html-keyboard-response","160","221377","0.0-4.0-1.40","","<img src=""img/green-n.png"" border=""10"">","null","trial","null","","0.2,0.8","2:nogo_b","0",""
"null","","html-keyboard-response","161","222378","0.0-4.0-2.40","","<div style=""font-size:60px;"">+</div>","null","","","","","","",""
"303.97000000812113","","image-keyboard-response","162","222682","0.0-4.0-0.41","","img/yellow.png","32","trial","32","true","0.8,0.2","1:go_a","",""
"null","","html-keyboard-response","163","223684","0.0-4.0-1.41","","<img src=""img/yellow-r.png"" border=""10"">","null","trial","32","","0.8,0.2","1:go_a","1",""
"null","","html-keyboard-response","164","224685","0.0-4.0-2.41","","<div style=""font-size:60px;"">+</div>","null","","","","","","",""
"null","","image-keyboard-response","165","226186","0.0-4.0-0.42","","img/green.png","null","trial","null","true","0.2,0.8","2:nogo_b","",""
"null","","html-keyboard-response","166","227188","0.0-4.0-1.42","","<img src=""img/green-n.png"">","null","trial","null","","0.2,0.8","2:nogo_b","0",""
"null","","html-keyboard-response","167","228190","0.0-4.0-2.42","","<div style=""font-size:60px;"">+</div>","null","","","","","","",""
"316.19500000670087","","image-keyboard-response","168","228507","0.0-4.0-0.43","","img/yellow.png","32","trial","32","true","0.8,0.2","1:go_a","",""
"null","","html-keyboard-response","169","229509","0.0-4.0-1.43","","<img src=""img/yellow-r.png"" border=""10"">","null","trial","32","","0.8,0.2","1:go_a","1",""
"null","","html-keyboard-response","170","230510","0.0-4.0-2.43","","<div style=""font-size:60px;"">+</div>","null","","","","","","",""
"null","","image-keyboard-response","171","232013","0.0-4.0-0.44","","img/green.png","null","trial","null","true","0.2,0.8","2:nogo_b","",""
"null","","html-keyboard-response","172","233015","0.0-4.0-1.44","","<img src=""img/green-r.png"">","null","trial","null","","0.2,0.8","2:nogo_b","1",""
"null","","html-keyboard-response","173","234016","0.0-4.0-2.44","","<div style=""font-size:60px;"">+</div>","null","","","","","","",""
"289.35000000637956","","image-keyboard-response","174","234306","0.0-4.0-0.45","","img/yellow.png","32","trial","32","true","0.8,0.2","1:go_a","",""
"null","","html-keyboard-response","175","235308","0.0-4.0-1.45","","<img src=""img/yellow-n.png"" border=""10"">","null","trial","32","","0.8,0.2","1:go_a","0",""
"null","","html-keyboard-response","176","236309","0.0-4.0-2.45","","<div style=""font-size:60px;"">+</div>","null","","","","","","",""
"234.27999998966698","","image-keyboard-response","177","236545","0.0-4.0-0.46","","img/yellow.png","32","trial","32","true","0.8,0.2","1:go_a","",""
"null","","html-keyboard-response","178","237547","0.0-4.0-1.46","","<img src=""img/yellow-n.png"" border=""10"">","null","trial","32","","0.8,0.2","1:go_a","0",""
"null","","html-keyboard-response","179","238548","0.0-4.0-2.46","","<div style=""font-size:60px;"">+</div>","null","","","","","","",""
"293.79500000504777","","image-keyboard-response","180","238843","0.0-4.0-0.47","","img/green.png","32","trial","null","false","0.2,0.8","2:nogo_b","",""
"null","","html-keyboard-response","181","239845","0.0-4.0-1.47","","<img src=""img/green-n.png"" border=""10"">","null","trial","null","","0.2,0.8","2:nogo_b","0",""
"null","","html-keyboard-response","182","240846","0.0-4.0-2.47","","<div style=""font-size:60px;"">+</div>","null","","","","","","",""
"678.6149999970803","","image-keyboard-response","183","241525","0.0-4.0-0.48","","img/yellow.png","32","trial","32","true","0.8,0.2","1:go_a","",""
"null","","html-keyboard-response","184","242527","0.0-4.0-1.48","","<img src=""img/yellow-r.png"" border=""10"">","null","trial","32","","0.8,0.2","1:go_a","1",""
"null","","html-keyboard-response","185","243528","0.0-4.0-2.48","","<div style=""font-size:60px;"">+</div>","null","","","","","","",""
"614.9399999994785","","image-keyboard-response","186","244144","0.0-4.0-0.49","","img/green.png","32","trial","null","false","0.2,0.8","2:nogo_b","",""
"null","","html-keyboard-response","187","245146","0.0-4.0-1.49","","<img src=""img/green-n.png"" border=""10"">","null","trial","null","","0.2,0.8","2:nogo_b","0",""
"null","","html-keyboard-response","188","246147","0.0-4.0-2.49","","<div style=""font-size:60px;"">+</div>","null","","","","","","",""
"392.0499999949243","","image-keyboard-response","189","246540","0.0-4.0-0.50","","img/yellow.png","32","trial","32","true","0.8,0.2","1:go_a","",""
"null","","html-keyboard-response","190","247542","0.0-4.0-1.50","","<img src=""img/yellow-r.png"" border=""10"">","null","trial","32","","0.8,0.2","1:go_a","1",""
"null","","html-keyboard-response","191","248543","0.0-4.0-2.50","","<div style=""font-size:60px;"">+</div>","null","","","","","","",""
"430.7049999915762","","image-keyboard-response","192","248975","0.0-4.0-0.51","","img/green.png","32","trial","null","false","0.2,0.8","2:nogo_b","",""
"null","","html-keyboard-response","193","249976","0.0-4.0-1.51","","<img src=""img/green-n.png"" border=""10"">","null","trial","null","","0.2,0.8","2:nogo_b","0",""
"null","","html-keyboard-response","194","250977","0.0-4.0-2.51","","<div style=""font-size:60px;"">+</div>","null","","","","","","",""
"457.829999999376","","image-keyboard-response","195","251436","0.0-4.0-0.52","","img/green.png","32","trial","null","false","0.2,0.8","2:nogo_b","",""
"null","","html-keyboard-response","196","252437","0.0-4.0-1.52","","<img src=""img/green-n.png"" border=""10"">","null","trial","null","","0.2,0.8","2:nogo_b","0",""
"null","","html-keyboard-response","197","253438","0.0-4.0-2.52","","<div style=""font-size:60px;"">+</div>","null","","","","","","",""
"348.94000001077075","","image-keyboard-response","198","253788","0.0-4.0-0.53","","img/yellow.png","32","trial","32","true","0.8,0.2","1:go_a","",""
"null","","html-keyboard-response","199","254790","0.0-4.0-1.53","","<img src=""img/yellow-r.png"" border=""10"">","null","trial","32","","0.8,0.2","1:go_a","1",""
"null","","html-keyboard-response","200","255792","0.0-4.0-2.53","","<div style=""font-size:60px;"">+</div>","null","","","","","","",""
"null","","image-keyboard-response","201","257293","0.0-4.0-0.54","","img/green.png","null","trial","null","true","0.2,0.8","2:nogo_b","",""
"null","","html-keyboard-response","202","258295","0.0-4.0-1.54","","<img src=""img/green-r.png"">","null","trial","null","","0.2,0.8","2:nogo_b","1",""
"null","","html-keyboard-response","203","259297","0.0-4.0-2.54","","<div style=""font-size:60px;"">+</div>","null","","","","","","",""
"334.38999998907093","","image-keyboard-response","204","259632","0.0-4.0-0.55","","img/yellow.png","32","trial","32","true","0.8,0.2","1:go_a","",""
"null","","html-keyboard-response","205","260634","0.0-4.0-1.55","","<img src=""img/yellow-r.png"" border=""10"">","null","trial","32","","0.8,0.2","1:go_a","1",""
"null","","html-keyboard-response","206","261636","0.0-4.0-2.55","","<div style=""font-size:60px;"">+</div>","null","","","","","","",""
"416.4299999974901","","image-keyboard-response","207","262054","0.0-4.0-0.56","","img/yellow.png","32","trial","32","true","0.8,0.2","1:go_a","",""
"null","","html-keyboard-response","208","263056","0.0-4.0-1.56","","<img src=""img/yellow-r.png"" border=""10"">","null","trial","32","","0.8,0.2","1:go_a","1",""
"null","","html-keyboard-response","209","264070","0.0-4.0-2.56","","<div style=""font-size:60px;"">+</div>","null","","","","","","",""
"null","","image-keyboard-response","210","265572","0.0-4.0-0.57","","img/green.png","null","trial","null","true","0.2,0.8","2:nogo_b","",""
"null","","html-keyboard-response","211","266573","0.0-4.0-1.57","","<img src=""img/green-r.png"">","null","trial","null","","0.2,0.8","2:nogo_b","1",""
"null","","html-keyboard-response","212","267574","0.0-4.0-2.57","","<div style=""font-size:60px;"">+</div>","null","","","","","","",""
"326.46999999997206","","image-keyboard-response","213","267901","0.0-4.0-0.58","","img/green.png","32","trial","null","false","0.2,0.8","2:nogo_b","",""
"null","","html-keyboard-response","214","268904","0.0-4.0-1.58","","<img src=""img/green-n.png"" border=""10"">","null","trial","null","","0.2,0.8","2:nogo_b","0",""
"null","","html-keyboard-response","215","269906","0.0-4.0-2.58","","<div style=""font-size:60px;"">+</div>","null","","","","","","",""
"372.4499999952968","","image-keyboard-response","216","270279","0.0-4.0-0.59","","img/yellow.png","32","trial","32","true","0.8,0.2","1:go_a","",""
"null","","html-keyboard-response","217","271281","0.0-4.0-1.59","","<img src=""img/yellow-n.png"" border=""10"">","null","trial","32","","0.8,0.2","1:go_a","0",""
"null","","html-keyboard-response","218","272283","0.0-4.0-2.59","","<div style=""font-size:60px;"">+</div>","null","","","","","","",""
"2333.245000001625","","instructions","219","274617","0.0-5.0","[{""page_index"":0,""viewing_time"":2333.0000000132713}]","","","","","","","","",""
"868.7799999897834","","image-keyboard-response","220","275487","0.0-6.0-0.0","","img/red.png","32","trial","null","false","0.2,0.8","4:nogo_d","",""
"null","","html-keyboard-response","221","276489","0.0-6.0-1.0","","<img src=""img/red-n.png"" border=""10"">","null","trial","null","","0.2,0.8","4:nogo_d","0",""
"null","","html-keyboard-response","222","277490","0.0-6.0-2.0","","<div style=""font-size:60px;"">+</div>","null","","","","","","",""
"416.9899999978952","","image-keyboard-response","223","277908","0.0-6.0-0.1","","img/green.png","32","trial","32","true","0.8,0.2","3:go_c","",""
"null","","html-keyboard-response","224","278909","0.0-6.0-1.1","","<img src=""img/green-r.png"" border=""10"">","null","trial","32","","0.8,0.2","3:go_c","1",""
"null","","html-keyboard-response","225","279910","0.0-6.0-2.1","","<div style=""font-size:60px;"">+</div>","null","","","","","","",""
"505.25000000197906","","image-keyboard-response","226","280416","0.0-6.0-0.2","","img/blue.png","32","trial","null","false","0.2,0.8","2:nogo_b","",""
"null","","html-keyboard-response","227","281418","0.0-6.0-1.2","","<img src=""img/blue-n.png"" border=""10"">","null","trial","null","","0.2,0.8","2:nogo_b","0",""
"null","","html-keyboard-response","228","282429","0.0-6.0-2.2","","<div style=""font-size:60px;"">+</div>","null","","","","","","",""
"496.46999999822583","","image-keyboard-response","229","282926","0.0-6.0-0.3","","img/purple.png","32","trial","32","true","0.8,0.2","1:go_a","",""
"null","","html-keyboard-response","230","283928","0.0-6.0-1.3","","<img src=""img/purple-r.png"" border=""10"">","null","trial","32","","0.8,0.2","1:go_a","1",""
"null","","html-keyboard-response","231","284929","0.0-6.0-2.3","","<div style=""font-size:60px;"">+</div>","null","","","","","","",""
"383.04000000061933","","image-keyboard-response","232","285313","0.0-6.0-0.4","","img/green.png","32","trial","32","true","0.8,0.2","3:go_c","",""
"null","","html-keyboard-response","233","286316","0.0-6.0-1.4","","<img src=""img/green-r.png"" border=""10"">","null","trial","32","","0.8,0.2","3:go_c","1",""
"null","","html-keyboard-response","234","287317","0.0-6.0-2.4","","<div style=""font-size:60px;"">+</div>","null","","","","","","",""
"null","","image-keyboard-response","235","288818","0.0-6.0-0.5","","img/red.png","null","trial","null","true","0.2,0.8","4:nogo_d","",""
"null","","html-keyboard-response","236","289821","0.0-6.0-1.5","","<img src=""img/red-r.png"">","null","trial","null","","0.2,0.8","4:nogo_d","1",""
"null","","html-keyboard-response","237","290823","0.0-6.0-2.5","","<div style=""font-size:60px;"">+</div>","null","","","","","","",""
"null","","image-keyboard-response","238","292324","0.0-6.0-0.6","","img/blue.png","null","trial","null","true","0.2,0.8","2:nogo_b","",""
"null","","html-keyboard-response","239","293326","0.0-6.0-1.6","","<img src=""img/blue-r.png"">","null","trial","null","","0.2,0.8","2:nogo_b","1",""
"null","","html-keyboard-response","240","294327","0.0-6.0-2.6","","<div style=""font-size:60px;"">+</div>","null","","","","","","",""
"364.6849999931874","","image-keyboard-response","241","294693","0.0-6.0-0.7","","img/purple.png","32","trial","32","true","0.8,0.2","1:go_a","",""
"null","","html-keyboard-response","242","295694","0.0-6.0-1.7","","<img src=""img/purple-r.png"" border=""10"">","null","trial","32","","0.8,0.2","1:go_a","1",""
"null","","html-keyboard-response","243","296695","0.0-6.0-2.7","","<div style=""font-size:60px;"">+</div>","null","","","","","","",""
"335.0150000042049","","image-keyboard-response","244","297031","0.0-6.0-0.8","","img/green.png","32","trial","32","true","0.8,0.2","3:go_c","",""
"null","","html-keyboard-response","245","298033","0.0-6.0-1.8","","<img src=""img/green-r.png"" border=""10"">","null","trial","32","","0.8,0.2","3:go_c","1",""
"null","","html-keyboard-response","246","299034","0.0-6.0-2.8","","<div style=""font-size:60px;"">+</div>","null","","","","","","",""
"null","","image-keyboard-response","247","300535","0.0-6.0-0.9","","img/blue.png","null","trial","null","true","0.2,0.8","2:nogo_b","",""
"null","","html-keyboard-response","248","301538","0.0-6.0-1.9","","<img src=""img/blue-r.png"">","null","trial","null","","0.2,0.8","2:nogo_b","1",""
"null","","html-keyboard-response","249","302538","0.0-6.0-2.9","","<div style=""font-size:60px;"">+</div>","null","","","","","","",""
"null","","image-keyboard-response","250","304041","0.0-6.0-0.10","","img/red.png","null","trial","null","true","0.2,0.8","4:nogo_d","",""
"null","","html-keyboard-response","251","305043","0.0-6.0-1.10","","<img src=""img/red-r.png"">","null","trial","null","","0.2,0.8","4:nogo_d","1",""
"null","","html-keyboard-response","252","306045","0.0-6.0-2.10","","<div style=""font-size:60px;"">+</div>","null","","","","","","",""
"443.104999998468","","image-keyboard-response","253","306489","0.0-6.0-0.11","","img/purple.png","32","trial","32","true","0.8,0.2","1:go_a","",""
"null","","html-keyboard-response","254","307491","0.0-6.0-1.11","","<img src=""img/purple-r.png"" border=""10"">","null","trial","32","","0.8,0.2","1:go_a","1",""
"null","","html-keyboard-response","255","308493","0.0-6.0-2.11","","<div style=""font-size:60px;"">+</div>","null","","","","","","",""
"286.9000000064261","","image-keyboard-response","256","308781","0.0-6.0-0.12","","img/green.png","32","trial","32","true","0.8,0.2","3:go_c","",""
"null","","html-keyboard-response","257","309783","0.0-6.0-1.12","","<img src=""img/green-n.png"" border=""10"">","null","trial","32","","0.8,0.2","3:go_c","0",""
"null","","html-keyboard-response","258","310784","0.0-6.0-2.12","","<div style=""font-size:60px;"">+</div>","null","","","","","","",""
"null","","image-keyboard-response","259","312285","0.0-6.0-0.13","","img/blue.png","null","trial","null","true","0.2,0.8","2:nogo_b","",""
"null","","html-keyboard-response","260","313289","0.0-6.0-1.13","","<img src=""img/blue-r.png"">","null","trial","null","","0.2,0.8","2:nogo_b","1",""
"null","","html-keyboard-response","261","314290","0.0-6.0-2.13","","<div style=""font-size:60px;"">+</div>","null","","","","","","",""
"904.8349999939092","","image-keyboard-response","262","315196","0.0-6.0-0.14","","img/purple.png","32","trial","32","true","0.8,0.2","1:go_a","",""
"null","","html-keyboard-response","263","316197","0.0-6.0-1.14","","<img src=""img/purple-r.png"" border=""10"">","null","trial","32","","0.8,0.2","1:go_a","1",""
"null","","html-keyboard-response","264","317199","0.0-6.0-2.14","","<div style=""font-size:60px;"">+</div>","null","","","","","","",""
"null","","image-keyboard-response","265","318699","0.0-6.0-0.15","","img/red.png","null","trial","null","true","0.2,0.8","4:nogo_d","",""
"null","","html-keyboard-response","266","319702","0.0-6.0-1.15","","<img src=""img/red-r.png"">","null","trial","null","","0.2,0.8","4:nogo_d","1",""
"null","","html-keyboard-response","267","320704","0.0-6.0-2.15","","<div style=""font-size:60px;"">+</div>","null","","","","","","",""
"352.6350000029197","","image-keyboard-response","268","321057","0.0-6.0-0.16","","img/purple.png","32","trial","32","true","0.8,0.2","1:go_a","",""
"null","","html-keyboard-response","269","322059","0.0-6.0-1.16","","<img src=""img/purple-n.png"" border=""10"">","null","trial","32","","0.8,0.2","1:go_a","0",""
"null","","html-keyboard-response","270","323061","0.0-6.0-2.16","","<div style=""font-size:60px;"">+</div>","null","","","","","","",""
"653.7399999942863","","image-keyboard-response","271","323715","0.0-6.0-0.17","","img/red.png","32","trial","null","false","0.2,0.8","4:nogo_d","",""
"null","","html-keyboard-response","272","324717","0.0-6.0-1.17","","<img src=""img/red-n.png"" border=""10"">","null","trial","null","","0.2,0.8","4:nogo_d","0",""
"null","","html-keyboard-response","273","325719","0.0-6.0-2.17","","<div style=""font-size:60px;"">+</div>","null","","","","","","",""
"310.63999999605585","","image-keyboard-response","274","326030","0.0-6.0-0.18","","img/blue.png","32","trial","null","false","0.2,0.8","2:nogo_b","",""
"null","","html-keyboard-response","275","327032","0.0-6.0-1.18","","<img src=""img/blue-n.png"" border=""10"">","null","trial","null","","0.2,0.8","2:nogo_b","0",""
"null","","html-keyboard-response","276","328033","0.0-6.0-2.18","","<div style=""font-size:60px;"">+</div>","null","","","","","","",""
"315.5499999993481","","image-keyboard-response","277","328349","0.0-6.0-0.19","","img/green.png","32","trial","32","true","0.8,0.2","3:go_c","",""
"null","","html-keyboard-response","278","329352","0.0-6.0-1.19","","<img src=""img/green-r.png"" border=""10"">","null","trial","32","","0.8,0.2","3:go_c","1",""
"null","","html-keyboard-response","279","330354","0.0-6.0-2.19","","<div style=""font-size:60px;"">+</div>","null","","","","","","",""
"383.4000000060769","","image-keyboard-response","280","330738","0.0-6.0-0.20","","img/green.png","32","trial","32","true","0.8,0.2","3:go_c","",""
"null","","html-keyboard-response","281","331739","0.0-6.0-1.20","","<img src=""img/green-r.png"" border=""10"">","null","trial","32","","0.8,0.2","3:go_c","1",""
"null","","html-keyboard-response","282","332741","0.0-6.0-2.20","","<div style=""font-size:60px;"">+</div>","null","","","","","","",""
"null","","image-keyboard-response","283","334242","0.0-6.0-0.21","","img/blue.png","null","trial","null","true","0.2,0.8","2:nogo_b","",""
"null","","html-keyboard-response","284","335243","0.0-6.0-1.21","","<img src=""img/blue-r.png"">","null","trial","null","","0.2,0.8","2:nogo_b","1",""
"null","","html-keyboard-response","285","336244","0.0-6.0-2.21","","<div style=""font-size:60px;"">+</div>","null","","","","","","",""
"null","","image-keyboard-response","286","337746","0.0-6.0-0.22","","img/red.png","null","trial","null","true","0.2,0.8","4:nogo_d","",""
"null","","html-keyboard-response","287","338748","0.0-6.0-1.22","","<img src=""img/red-n.png"">","null","trial","null","","0.2,0.8","4:nogo_d","0",""
"null","","html-keyboard-response","288","339749","0.0-6.0-2.22","","<div style=""font-size:60px;"">+</div>","null","","","","","","",""
"381.4299999939976","","image-keyboard-response","289","340131","0.0-6.0-0.23","","img/purple.png","32","trial","32","true","0.8,0.2","1:go_a","",""
"null","","html-keyboard-response","290","341132","0.0-6.0-1.23","","<img src=""img/purple-r.png"" border=""10"">","null","trial","32","","0.8,0.2","1:go_a","1",""
"null","","html-keyboard-response","291","342133","0.0-6.0-2.23","","<div style=""font-size:60px;"">+</div>","null","","","","","","",""
"446.5399999899091","","image-keyboard-response","292","342581","0.0-6.0-0.24","","img/purple.png","32","trial","32","true","0.8,0.2","1:go_a","",""
"null","","html-keyboard-response","293","343583","0.0-6.0-1.24","","<img src=""img/purple-n.png"" border=""10"">","null","trial","32","","0.8,0.2","1:go_a","0",""
"null","","html-keyboard-response","294","344585","0.0-6.0-2.24","","<div style=""font-size:60px;"">+</div>","null","","","","","","",""
"null","","image-keyboard-response","295","346087","0.0-6.0-0.25","","img/blue.png","null","trial","null","true","0.2,0.8","2:nogo_b","",""
"null","","html-keyboard-response","296","347088","0.0-6.0-1.25","","<img src=""img/blue-r.png"">","null","trial","null","","0.2,0.8","2:nogo_b","1",""
"null","","html-keyboard-response","297","348090","0.0-6.0-2.25","","<div style=""font-size:60px;"">+</div>","null","","","","","","",""
"null","","image-keyboard-response","298","349592","0.0-6.0-0.26","","img/red.png","null","trial","null","true","0.2,0.8","4:nogo_d","",""
"null","","html-keyboard-response","299","350594","0.0-6.0-1.26","","<img src=""img/red-n.png"">","null","trial","null","","0.2,0.8","4:nogo_d","0",""
"null","","html-keyboard-response","300","351596","0.0-6.0-2.26","","<div style=""font-size:60px;"">+</div>","null","","","","","","",""
"361.64499999722466","","image-keyboard-response","301","351958","0.0-6.0-0.27","","img/green.png","32","trial","32","true","0.8,0.2","3:go_c","",""
"null","","html-keyboard-response","302","352960","0.0-6.0-1.27","","<img src=""img/green-n.png"" border=""10"">","null","trial","32","","0.8,0.2","3:go_c","0",""
"null","","html-keyboard-response","303","353961","0.0-6.0-2.27","","<div style=""font-size:60px;"">+</div>","null","","","","","","",""
"276.39499999349937","","image-keyboard-response","304","354238","0.0-6.0-0.28","","img/purple.png","32","trial","32","true","0.8,0.2","1:go_a","",""
"null","","html-keyboard-response","305","355240","0.0-6.0-1.28","","<img src=""img/purple-r.png"" border=""10"">","null","trial","32","","0.8,0.2","1:go_a","1",""
"null","","html-keyboard-response","306","356241","0.0-6.0-2.28","","<div style=""font-size:60px;"">+</div>","null","","","","","","",""
"null","","image-keyboard-response","307","357744","0.0-6.0-0.29","","img/red.png","null","trial","null","true","0.2,0.8","4:nogo_d","",""
"null","","html-keyboard-response","308","358746","0.0-6.0-1.29","","<img src=""img/red-r.png"">","null","trial","null","","0.2,0.8","4:nogo_d","1",""
"null","","html-keyboard-response","309","359747","0.0-6.0-2.29","","<div style=""font-size:60px;"">+</div>","null","","","","","","",""
"588.610000006156","","image-keyboard-response","310","360336","0.0-6.0-0.30","","img/green.png","32","trial","32","true","0.8,0.2","3:go_c","",""
"null","","html-keyboard-response","311","361338","0.0-6.0-1.30","","<img src=""img/green-r.png"" border=""10"">","null","trial","32","","0.8,0.2","3:go_c","1",""
"null","","html-keyboard-response","312","362339","0.0-6.0-2.30","","<div style=""font-size:60px;"">+</div>","null","","","","","","",""
"null","","image-keyboard-response","313","363840","0.0-6.0-0.31","","img/blue.png","null","trial","null","true","0.2,0.8","2:nogo_b","",""
"null","","html-keyboard-response","314","364843","0.0-6.0-1.31","","<img src=""img/blue-r.png"">","null","trial","null","","0.2,0.8","2:nogo_b","1",""
"null","","html-keyboard-response","315","365845","0.0-6.0-2.31","","<div style=""font-size:60px;"">+</div>","null","","","","","","",""
"null","","image-keyboard-response","316","367347","0.0-6.0-0.32","","img/red.png","null","trial","null","true","0.2,0.8","4:nogo_d","",""
"null","","html-keyboard-response","317","368348","0.0-6.0-1.32","","<img src=""img/red-r.png"">","null","trial","null","","0.2,0.8","4:nogo_d","1",""
"null","","html-keyboard-response","318","369349","0.0-6.0-2.32","","<div style=""font-size:60px;"">+</div>","null","","","","","","",""
"315.904999995837","","image-keyboard-response","319","369666","0.0-6.0-0.33","","img/purple.png","32","trial","32","true","0.8,0.2","1:go_a","",""
"null","","html-keyboard-response","320","370681","0.0-6.0-1.33","","<img src=""img/purple-r.png"" border=""10"">","null","trial","32","","0.8,0.2","1:go_a","1",""
"null","","html-keyboard-response","321","371682","0.0-6.0-2.33","","<div style=""font-size:60px;"">+</div>","null","","","","","","",""
"null","","image-keyboard-response","322","373184","0.0-6.0-0.34","","img/blue.png","null","trial","null","true","0.2,0.8","2:nogo_b","",""
"null","","html-keyboard-response","323","374185","0.0-6.0-1.34","","<img src=""img/blue-r.png"">","null","trial","null","","0.2,0.8","2:nogo_b","1",""
"null","","html-keyboard-response","324","375187","0.0-6.0-2.34","","<div style=""font-size:60px;"">+</div>","null","","","","","","",""
"317.719999991823","","image-keyboard-response","325","375506","0.0-6.0-0.35","","img/green.png","32","trial","32","true","0.8,0.2","3:go_c","",""
"null","","html-keyboard-response","326","376508","0.0-6.0-1.35","","<img src=""img/green-n.png"" border=""10"">","null","trial","32","","0.8,0.2","3:go_c","0",""
"null","","html-keyboard-response","327","377509","0.0-6.0-2.35","","<div style=""font-size:60px;"">+</div>","null","","","","","","",""
"null","","image-keyboard-response","328","379011","0.0-6.0-0.36","","img/blue.png","null","trial","null","true","0.2,0.8","2:nogo_b","",""
"null","","html-keyboard-response","329","380012","0.0-6.0-1.36","","<img src=""img/blue-n.png"">","null","trial","null","","0.2,0.8","2:nogo_b","0",""
"null","","html-keyboard-response","330","381014","0.0-6.0-2.36","","<div style=""font-size:60px;"">+</div>","null","","","","","","",""
"361.5999999892665","","image-keyboard-response","331","381376","0.0-6.0-0.37","","img/green.png","32","trial","32","true","0.8,0.2","3:go_c","",""
"null","","html-keyboard-response","332","382378","0.0-6.0-1.37","","<img src=""img/green-n.png"" border=""10"">","null","trial","32","","0.8,0.2","3:go_c","0",""
"null","","html-keyboard-response","333","383380","0.0-6.0-2.37","","<div style=""font-size:60px;"">+</div>","null","","","","","","",""
"null","","image-keyboard-response","334","384882","0.0-6.0-0.38","","img/red.png","null","trial","null","true","0.2,0.8","4:nogo_d","",""
"null","","html-keyboard-response","335","385884","0.0-6.0-1.38","","<img src=""img/red-r.png"">","null","trial","null","","0.2,0.8","4:nogo_d","1",""
"null","","html-keyboard-response","336","386884","0.0-6.0-2.38","","<div style=""font-size:60px;"">+</div>","null","","","","","","",""
"342.33999998832587","","image-keyboard-response","337","387227","0.0-6.0-0.39","","img/purple.png","32","trial","32","true","0.8,0.2","1:go_a","",""
"null","","html-keyboard-response","338","388229","0.0-6.0-1.39","","<img src=""img/purple-r.png"" border=""10"">","null","trial","32","","0.8,0.2","1:go_a","1",""
"null","","html-keyboard-response","339","389231","0.0-6.0-2.39","","<div style=""font-size:60px;"">+</div>","null","","","","","","",""
"null","","image-keyboard-response","340","390732","0.0-6.0-0.40","","img/red.png","null","trial","null","true","0.2,0.8","4:nogo_d","",""
"null","","html-keyboard-response","341","391734","0.0-6.0-1.40","","<img src=""img/red-r.png"">","null","trial","null","","0.2,0.8","4:nogo_d","1",""
"null","","html-keyboard-response","342","392736","0.0-6.0-2.40","","<div style=""font-size:60px;"">+</div>","null","","","","","","",""
"390.6950000091456","","image-keyboard-response","343","393127","0.0-6.0-0.41","","img/green.png","32","trial","32","true","0.8,0.2","3:go_c","",""
"null","","html-keyboard-response","344","394130","0.0-6.0-1.41","","<img src=""img/green-n.png"" border=""10"">","null","trial","32","","0.8,0.2","3:go_c","0",""
"null","","html-keyboard-response","345","395131","0.0-6.0-2.41","","<div style=""font-size:60px;"">+</div>","null","","","","","","",""
"null","","image-keyboard-response","346","396632","0.0-6.0-0.42","","img/blue.png","null","trial","null","true","0.2,0.8","2:nogo_b","",""
"null","","html-keyboard-response","347","397634","0.0-6.0-1.42","","<img src=""img/blue-r.png"">","null","trial","null","","0.2,0.8","2:nogo_b","1",""
"null","","html-keyboard-response","348","398636","0.0-6.0-2.42","","<div style=""font-size:60px;"">+</div>","null","","","","","","",""
"395.2699999936158","","image-keyboard-response","349","399032","0.0-6.0-0.43","","img/purple.png","32","trial","32","true","0.8,0.2","1:go_a","",""
"null","","html-keyboard-response","350","400034","0.0-6.0-1.43","","<img src=""img/purple-r.png"" border=""10"">","null","trial","32","","0.8,0.2","1:go_a","1",""
"null","","html-keyboard-response","351","401036","0.0-6.0-2.43","","<div style=""font-size:60px;"">+</div>","null","","","","","","",""
"null","","image-keyboard-response","352","402537","0.0-6.0-0.44","","img/red.png","null","trial","null","true","0.2,0.8","4:nogo_d","",""
"null","","html-keyboard-response","353","403552","0.0-6.0-1.44","","<img src=""img/red-r.png"">","null","trial","null","","0.2,0.8","4:nogo_d","1",""
"null","","html-keyboard-response","354","404553","0.0-6.0-2.44","","<div style=""font-size:60px;"">+</div>","null","","","","","","",""
"827.7700000035111","","image-keyboard-response","355","405381","0.0-6.0-0.45","","img/purple.png","32","trial","32","true","0.8,0.2","1:go_a","",""
"null","","html-keyboard-response","356","406383","0.0-6.0-1.45","","<img src=""img/purple-r.png"" border=""10"">","null","trial","32","","0.8,0.2","1:go_a","1",""
"null","","html-keyboard-response","357","407384","0.0-6.0-2.45","","<div style=""font-size:60px;"">+</div>","null","","","","","","",""
"null","","image-keyboard-response","358","408885","0.0-6.0-0.46","","img/blue.png","null","trial","null","true","0.2,0.8","2:nogo_b","",""
"null","","html-keyboard-response","359","409888","0.0-6.0-1.46","","<img src=""img/blue-r.png"">","null","trial","null","","0.2,0.8","2:nogo_b","1",""
"null","","html-keyboard-response","360","410890","0.0-6.0-2.46","","<div style=""font-size:60px;"">+</div>","null","","","","","","",""
"292.47500000928994","","image-keyboard-response","361","411183","0.0-6.0-0.47","","img/green.png","32","trial","32","true","0.8,0.2","3:go_c","",""
"null","","html-keyboard-response","362","412185","0.0-6.0-1.47","","<img src=""img/green-n.png"" border=""10"">","null","trial","32","","0.8,0.2","3:go_c","0",""
"null","","html-keyboard-response","363","413186","0.0-6.0-2.47","","<div style=""font-size:60px;"">+</div>","null","","","","","","",""
"411.1700000066776","","image-keyboard-response","364","413598","0.0-6.0-0.48","","img/green.png","32","trial","32","true","0.8,0.2","3:go_c","",""
"null","","html-keyboard-response","365","414599","0.0-6.0-1.48","","<img src=""img/green-r.png"" border=""10"">","null","trial","32","","0.8,0.2","3:go_c","1",""
"null","","html-keyboard-response","366","415601","0.0-6.0-2.48","","<div style=""font-size:60px;"">+</div>","null","","","","","","",""
"null","","image-keyboard-response","367","417103","0.0-6.0-0.49","","img/blue.png","null","trial","null","true","0.2,0.8","2:nogo_b","",""
"null","","html-keyboard-response","368","418105","0.0-6.0-1.49","","<img src=""img/blue-n.png"">","null","trial","null","","0.2,0.8","2:nogo_b","0",""
"null","","html-keyboard-response","369","419106","0.0-6.0-2.49","","<div style=""font-size:60px;"">+</div>","null","","","","","","",""
"null","","image-keyboard-response","370","420607","0.0-6.0-0.50","","img/red.png","null","trial","null","true","0.2,0.8","4:nogo_d","",""
"null","","html-keyboard-response","371","421609","0.0-6.0-1.50","","<img src=""img/red-r.png"">","null","trial","null","","0.2,0.8","4:nogo_d","1",""
"null","","html-keyboard-response","372","422611","0.0-6.0-2.50","","<div style=""font-size:60px;"">+</div>","null","","","","","","",""
"333.809999996447","","image-keyboard-response","373","422946","0.0-6.0-0.51","","img/purple.png","32","trial","32","true","0.8,0.2","1:go_a","",""
"null","","html-keyboard-response","374","423948","0.0-6.0-1.51","","<img src=""img/purple-r.png"" border=""10"">","null","trial","32","","0.8,0.2","1:go_a","1",""
"null","","html-keyboard-response","375","424949","0.0-6.0-2.51","","<div style=""font-size:60px;"">+</div>","null","","","","","","",""
"420.20499998761807","","image-keyboard-response","376","425370","0.0-6.0-0.52","","img/purple.png","32","trial","32","true","0.8,0.2","1:go_a","",""
"null","","html-keyboard-response","377","426372","0.0-6.0-1.52","","<img src=""img/purple-r.png"" border=""10"">","null","trial","32","","0.8,0.2","1:go_a","1",""
"null","","html-keyboard-response","378","427373","0.0-6.0-2.52","","<div style=""font-size:60px;"">+</div>","null","","","","","","",""
"414.6900000050664","","image-keyboard-response","379","427789","0.0-6.0-0.53","","img/green.png","32","trial","32","true","0.8,0.2","3:go_c","",""
"null","","html-keyboard-response","380","428791","0.0-6.0-1.53","","<img src=""img/green-n.png"" border=""10"">","null","trial","32","","0.8,0.2","3:go_c","0",""
"null","","html-keyboard-response","381","429793","0.0-6.0-2.53","","<div style=""font-size:60px;"">+</div>","null","","","","","","",""
"null","","image-keyboard-response","382","431294","0.0-6.0-0.54","","img/red.png","null","trial","null","true","0.2,0.8","4:nogo_d","",""
"null","","html-keyboard-response","383","432297","0.0-6.0-1.54","","<img src=""img/red-r.png"">","null","trial","null","","0.2,0.8","4:nogo_d","1",""
"null","","html-keyboard-response","384","433300","0.0-6.0-2.54","","<div style=""font-size:60px;"">+</div>","null","","","","","","",""
"null","","image-keyboard-response","385","434801","0.0-6.0-0.55","","img/blue.png","null","trial","null","true","0.2,0.8","2:nogo_b","",""
"null","","html-keyboard-response","386","435803","0.0-6.0-1.55","","<img src=""img/blue-r.png"">","null","trial","null","","0.2,0.8","2:nogo_b","1",""
"null","","html-keyboard-response","387","436804","0.0-6.0-2.55","","<div style=""font-size:60px;"">+</div>","null","","","","","","",""
"null","","image-keyboard-response","388","438305","0.0-6.0-0.56","","img/red.png","null","trial","null","true","0.2,0.8","4:nogo_d","",""
"null","","html-keyboard-response","389","439307","0.0-6.0-1.56","","<img src=""img/red-r.png"">","null","trial","null","","0.2,0.8","4:nogo_d","1",""
"null","","html-keyboard-response","390","440309","0.0-6.0-2.56","","<div style=""font-size:60px;"">+</div>","null","","","","","","",""
"398.1350000103703","","image-keyboard-response","391","440708","0.0-6.0-0.57","","img/purple.png","32","trial","32","true","0.8,0.2","1:go_a","",""
"null","","html-keyboard-response","392","441711","0.0-6.0-1.57","","<img src=""img/purple-r.png"" border=""10"">","null","trial","32","","0.8,0.2","1:go_a","1",""
"null","","html-keyboard-response","393","442713","0.0-6.0-2.57","","<div style=""font-size:60px;"">+</div>","null","","","","","","",""
"433.7949999899138","","image-keyboard-response","394","443148","0.0-6.0-0.58","","img/green.png","32","trial","32","true","0.8,0.2","3:go_c","",""
"null","","html-keyboard-response","395","444150","0.0-6.0-1.58","","<img src=""img/green-n.png"" border=""10"">","null","trial","32","","0.8,0.2","3:go_c","0",""
"null","","html-keyboard-response","396","445152","0.0-6.0-2.58","","<div style=""font-size:60px;"">+</div>","null","","","","","","",""
"null","","image-keyboard-response","397","446653","0.0-6.0-0.59","","img/blue.png","null","trial","null","true","0.2,0.8","2:nogo_b","",""
"null","","html-keyboard-response","398","447655","0.0-6.0-1.59","","<img src=""img/blue-r.png"">","null","trial","null","","0.2,0.8","2:nogo_b","1",""
"null","","html-keyboard-response","399","448656","0.0-6.0-2.59","","<div style=""font-size:60px;"">+</div>","null","","","","","","",""
"562.5949999957811","","image-keyboard-response","400","449220","0.0-6.0-0.60","","img/purple.png","32","trial","32","true","0.8,0.2","1:go_a","",""
"null","","html-keyboard-response","401","450222","0.0-6.0-1.60","","<img src=""img/purple-r.png"" border=""10"">","null","trial","32","","0.8,0.2","1:go_a","1",""
"null","","html-keyboard-response","402","451223","0.0-6.0-2.60","","<div style=""font-size:60px;"">+</div>","null","","","","","","",""
"null","","image-keyboard-response","403","452724","0.0-6.0-0.61","","img/red.png","null","trial","null","true","0.2,0.8","4:nogo_d","",""
"null","","html-keyboard-response","404","453726","0.0-6.0-1.61","","<img src=""img/red-r.png"">","null","trial","null","","0.2,0.8","4:nogo_d","1",""
"null","","html-keyboard-response","405","454727","0.0-6.0-2.61","","<div style=""font-size:60px;"">+</div>","null","","","","","","",""
"285.4350000125123","","image-keyboard-response","406","455013","0.0-6.0-0.62","","img/green.png","32","trial","32","true","0.8,0.2","3:go_c","",""
"null","","html-keyboard-response","407","456015","0.0-6.0-1.62","","<img src=""img/green-n.png"" border=""10"">","null","trial","32","","0.8,0.2","3:go_c","0",""
"null","","html-keyboard-response","408","457016","0.0-6.0-2.62","","<div style=""font-size:60px;"">+</div>","null","","","","","","",""
"null","","image-keyboard-response","409","458518","0.0-6.0-0.63","","img/blue.png","null","trial","null","true","0.2,0.8","2:nogo_b","",""
"null","","html-keyboard-response","410","459521","0.0-6.0-1.63","","<img src=""img/blue-r.png"">","null","trial","null","","0.2,0.8","2:nogo_b","1",""
"null","","html-keyboard-response","411","460522","0.0-6.0-2.63","","<div style=""font-size:60px;"">+</div>","null","","","","","","",""
"435.24999999499414","","image-keyboard-response","412","460958","0.0-6.0-0.64","","img/green.png","32","trial","32","true","0.8,0.2","3:go_c","",""
"null","","html-keyboard-response","413","461960","0.0-6.0-1.64","","<img src=""img/green-n.png"" border=""10"">","null","trial","32","","0.8,0.2","3:go_c","0",""
"null","","html-keyboard-response","414","462962","0.0-6.0-2.64","","<div style=""font-size:60px;"">+</div>","null","","","","","","",""
"null","","image-keyboard-response","415","464464","0.0-6.0-0.65","","img/red.png","null","trial","null","true","0.2,0.8","4:nogo_d","",""
"null","","html-keyboard-response","416","465465","0.0-6.0-1.65","","<img src=""img/red-r.png"">","null","trial","null","","0.2,0.8","4:nogo_d","1",""
"null","","html-keyboard-response","417","466466","0.0-6.0-2.65","","<div style=""font-size:60px;"">+</div>","null","","","","","","",""
"null","","image-keyboard-response","418","467968","0.0-6.0-0.66","","img/blue.png","null","trial","null","true","0.2,0.8","2:nogo_b","",""
"null","","html-keyboard-response","419","468970","0.0-6.0-1.66","","<img src=""img/blue-r.png"">","null","trial","null","","0.2,0.8","2:nogo_b","1",""
"null","","html-keyboard-response","420","469972","0.0-6.0-2.66","","<div style=""font-size:60px;"">+</div>","null","","","","","","",""
"443.69000000006054","","image-keyboard-response","421","470416","0.0-6.0-0.67","","img/purple.png","32","trial","32","true","0.8,0.2","1:go_a","",""
"null","","html-keyboard-response","422","471418","0.0-6.0-1.67","","<img src=""img/purple-r.png"" border=""10"">","null","trial","32","","0.8,0.2","1:go_a","1",""
"null","","html-keyboard-response","423","472420","0.0-6.0-2.67","","<div style=""font-size:60px;"">+</div>","null","","","","","","",""
"null","","image-keyboard-response","424","473921","0.0-6.0-0.68","","img/blue.png","null","trial","null","true","0.2,0.8","2:nogo_b","",""
"null","","html-keyboard-response","425","474922","0.0-6.0-1.68","","<img src=""img/blue-r.png"">","null","trial","null","","0.2,0.8","2:nogo_b","1",""
"null","","html-keyboard-response","426","475924","0.0-6.0-2.68","","<div style=""font-size:60px;"">+</div>","null","","","","","","",""
"370.71000000287313","","image-keyboard-response","427","476295","0.0-6.0-0.69","","img/green.png","32","trial","32","true","0.8,0.2","3:go_c","",""
"null","","html-keyboard-response","428","477296","0.0-6.0-1.69","","<img src=""img/green-n.png"" border=""10"">","null","trial","32","","0.8,0.2","3:go_c","0",""
"null","","html-keyboard-response","429","478298","0.0-6.0-2.69","","<div style=""font-size:60px;"">+</div>","null","","","","","","",""
"null","","image-keyboard-response","430","479799","0.0-6.0-0.70","","img/red.png","null","trial","null","true","0.2,0.8","4:nogo_d","",""
"null","","html-keyboard-response","431","480802","0.0-6.0-1.70","","<img src=""img/red-r.png"">","null","trial","null","","0.2,0.8","4:nogo_d","1",""
"null","","html-keyboard-response","432","481803","0.0-6.0-2.70","","<div style=""font-size:60px;"">+</div>","null","","","","","","",""
"395.85999998962507","","image-keyboard-response","433","482200","0.0-6.0-0.71","","img/purple.png","32","trial","32","true","0.8,0.2","1:go_a","",""
"null","","html-keyboard-response","434","483202","0.0-6.0-1.71","","<img src=""img/purple-r.png"" border=""10"">","null","trial","32","","0.8,0.2","1:go_a","1",""
"null","","html-keyboard-response","435","484205","0.0-6.0-2.71","","<div style=""font-size:60px;"">+</div>","null","","","","","","",""
"573.4799999918323","","image-keyboard-response","436","484779","0.0-6.0-0.72","","img/purple.png","32","trial","32","true","0.8,0.2","1:go_a","",""
"null","","html-keyboard-response","437","485781","0.0-6.0-1.72","","<img src=""img/purple-r.png"" border=""10"">","null","trial","32","","0.8,0.2","1:go_a","1",""
"null","","html-keyboard-response","438","486783","0.0-6.0-2.72","","<div style=""font-size:60px;"">+</div>","null","","","","","","",""
"530.0100000022212","","image-keyboard-response","439","487314","0.0-6.0-0.73","","img/green.png","32","trial","32","true","0.8,0.2","3:go_c","",""
"null","","html-keyboard-response","440","488315","0.0-6.0-1.73","","<img src=""img/green-n.png"" border=""10"">","null","trial","32","","0.8,0.2","3:go_c","0",""
"null","","html-keyboard-response","441","489316","0.0-6.0-2.73","","<div style=""font-size:60px;"">+</div>","null","","","","","","",""
"null","","image-keyboard-response","442","490818","0.0-6.0-0.74","","img/red.png","null","trial","null","true","0.2,0.8","4:nogo_d","",""
"null","","html-keyboard-response","443","491821","0.0-6.0-1.74","","<img src=""img/red-r.png"">","null","trial","null","","0.2,0.8","4:nogo_d","1",""
"null","","html-keyboard-response","444","492821","0.0-6.0-2.74","","<div style=""font-size:60px;"">+</div>","null","","","","","","",""
"301.1499999993248","","image-keyboard-response","445","493123","0.0-6.0-0.75","","img/blue.png","32","trial","null","false","0.2,0.8","2:nogo_b","",""
"null","","html-keyboard-response","446","494127","0.0-6.0-1.75","","<img src=""img/blue-r.png"" border=""10"">","null","trial","null","","0.2,0.8","2:nogo_b","1",""
"null","","html-keyboard-response","447","495128","0.0-6.0-2.75","","<div style=""font-size:60px;"">+</div>","null","","","","","","",""
"459.1099999961443","","image-keyboard-response","448","495588","0.0-6.0-0.76","","img/purple.png","32","trial","32","true","0.8,0.2","1:go_a","",""
"null","","html-keyboard-response","449","496590","0.0-6.0-1.76","","<img src=""img/purple-r.png"" border=""10"">","null","trial","32","","0.8,0.2","1:go_a","1",""
"null","","html-keyboard-response","450","497591","0.0-6.0-2.76","","<div style=""font-size:60px;"">+</div>","null","","","","","","",""
"465.2549999882467","","image-keyboard-response","451","498057","0.0-6.0-0.77","","img/green.png","32","trial","32","true","0.8,0.2","3:go_c","",""
"null","","html-keyboard-response","452","499059","0.0-6.0-1.77","","<img src=""img/green-r.png"" border=""10"">","null","trial","32","","0.8,0.2","3:go_c","1",""
"null","","html-keyboard-response","453","500060","0.0-6.0-2.77","","<div style=""font-size:60px;"">+</div>","null","","","","","","",""
"287.8550000023097","","image-keyboard-response","454","500348","0.0-6.0-0.78","","img/blue.png","32","trial","null","false","0.2,0.8","2:nogo_b","",""
"null","","html-keyboard-response","455","501351","0.0-6.0-1.78","","<img src=""img/blue-n.png"" border=""10"">","null","trial","null","","0.2,0.8","2:nogo_b","0",""
"null","","html-keyboard-response","456","502352","0.0-6.0-2.78","","<div style=""font-size:60px;"">+</div>","null","","","","","","",""
"424.1000000038184","","image-keyboard-response","457","502776","0.0-6.0-0.79","","img/red.png","32","trial","null","false","0.2,0.8","4:nogo_d","",""
"null","","html-keyboard-response","458","503778","0.0-6.0-1.79","","<img src=""img/red-n.png"" border=""10"">","null","trial","null","","0.2,0.8","4:nogo_d","0",""
"null","","html-keyboard-response","459","504779","0.0-6.0-2.79","","<div style=""font-size:60px;"">+</div>","null","","","","","","",""
"364.5900000119582","","image-keyboard-response","460","505145","0.0-6.0-0.80","","img/purple.png","32","trial","32","true","0.8,0.2","1:go_a","",""
"null","","html-keyboard-response","461","506147","0.0-6.0-1.80","","<img src=""img/purple-r.png"" border=""10"">","null","trial","32","","0.8,0.2","1:go_a","1",""
"null","","html-keyboard-response","462","507149","0.0-6.0-2.80","","<div style=""font-size:60px;"">+</div>","null","","","","","","",""
"740.8350000041537","","image-keyboard-response","463","507891","0.0-6.0-0.81","","img/blue.png","32","trial","null","false","0.2,0.8","2:nogo_b","",""
"null","","html-keyboard-response","464","508893","0.0-6.0-1.81","","<img src=""img/blue-n.png"" border=""10"">","null","trial","null","","0.2,0.8","2:nogo_b","0",""
"null","","html-keyboard-response","465","509894","0.0-6.0-2.81","","<div style=""font-size:60px;"">+</div>","null","","","","","","",""
"394.4049999990966","","image-keyboard-response","466","510289","0.0-6.0-0.82","","img/green.png","32","trial","32","true","0.8,0.2","3:go_c","",""
"null","","html-keyboard-response","467","511290","0.0-6.0-1.82","","<img src=""img/green-r.png"" border=""10"">","null","trial","32","","0.8,0.2","3:go_c","1",""
"null","","html-keyboard-response","468","512292","0.0-6.0-2.82","","<div style=""font-size:60px;"">+</div>","null","","","","","","",""
"null","","image-keyboard-response","469","513793","0.0-6.0-0.83","","img/red.png","null","trial","null","true","0.2,0.8","4:nogo_d","",""
"null","","html-keyboard-response","470","514795","0.0-6.0-1.83","","<img src=""img/red-r.png"">","null","trial","null","","0.2,0.8","4:nogo_d","1",""
"null","","html-keyboard-response","471","515797","0.0-6.0-2.83","","<div style=""font-size:60px;"">+</div>","null","","","","","","",""
"439.73499999265186","","image-keyboard-response","472","516238","0.0-6.0-0.84","","img/green.png","32","trial","32","true","0.8,0.2","3:go_c","",""
"null","","html-keyboard-response","473","517239","0.0-6.0-1.84","","<img src=""img/green-r.png"" border=""10"">","null","trial","32","","0.8,0.2","3:go_c","1",""
"null","","html-keyboard-response","474","518241","0.0-6.0-2.84","","<div style=""font-size:60px;"">+</div>","null","","","","","","",""
"null","","image-keyboard-response","475","519742","0.0-6.0-0.85","","img/blue.png","null","trial","null","true","0.2,0.8","2:nogo_b","",""
"null","","html-keyboard-response","476","520744","0.0-6.0-1.85","","<img src=""img/blue-r.png"">","null","trial","null","","0.2,0.8","2:nogo_b","1",""
"null","","html-keyboard-response","477","521745","0.0-6.0-2.85","","<div style=""font-size:60px;"">+</div>","null","","","","","","",""
"515.6649999989895","","image-keyboard-response","478","522262","0.0-6.0-0.86","","img/purple.png","32","trial","32","true","0.8,0.2","1:go_a","",""
"null","","html-keyboard-response","479","523264","0.0-6.0-1.86","","<img src=""img/purple-n.png"" border=""10"">","null","trial","32","","0.8,0.2","1:go_a","0",""
"null","","html-keyboard-response","480","524266","0.0-6.0-2.86","","<div style=""font-size:60px;"">+</div>","null","","","","","","",""
"374.78499999269843","","image-keyboard-response","481","524642","0.0-6.0-0.87","","img/red.png","32","trial","null","false","0.2,0.8","4:nogo_d","",""
"null","","html-keyboard-response","482","525644","0.0-6.0-1.87","","<img src=""img/red-n.png"" border=""10"">","null","trial","null","","0.2,0.8","4:nogo_d","0",""
"null","","html-keyboard-response","483","526645","0.0-6.0-2.87","","<div style=""font-size:60px;"">+</div>","null","","","","","","",""
"null","","image-keyboard-response","484","528147","0.0-6.0-0.88","","img/red.png","null","trial","null","true","0.2,0.8","4:nogo_d","",""
"null","","html-keyboard-response","485","529148","0.0-6.0-1.88","","<img src=""img/red-r.png"">","null","trial","null","","0.2,0.8","4:nogo_d","1",""
"null","","html-keyboard-response","486","530150","0.0-6.0-2.88","","<div style=""font-size:60px;"">+</div>","null","","","","","","",""
"342.7649999939604","","image-keyboard-response","487","530493","0.0-6.0-0.89","","img/purple.png","32","trial","32","true","0.8,0.2","1:go_a","",""
"null","","html-keyboard-response","488","531495","0.0-6.0-1.89","","<img src=""img/purple-n.png"" border=""10"">","null","trial","32","","0.8,0.2","1:go_a","0",""
"null","","html-keyboard-response","489","532497","0.0-6.0-2.89","","<div style=""font-size:60px;"">+</div>","null","","","","","","",""
"480.1699999952689","","image-keyboard-response","490","532978","0.0-6.0-0.90","","img/green.png","32","trial","32","true","0.8,0.2","3:go_c","",""
"null","","html-keyboard-response","491","533980","0.0-6.0-1.90","","<img src=""img/green-r.png"" border=""10"">","null","trial","32","","0.8,0.2","3:go_c","1",""
"null","","html-keyboard-response","492","534981","0.0-6.0-2.90","","<div style=""font-size:60px;"">+</div>","null","","","","","","",""
"313.8749999925494","","image-keyboard-response","493","535296","0.0-6.0-0.91","","img/blue.png","32","trial","null","false","0.2,0.8","2:nogo_b","",""
"null","","html-keyboard-response","494","536298","0.0-6.0-1.91","","<img src=""img/blue-n.png"" border=""10"">","null","trial","null","","0.2,0.8","2:nogo_b","0",""
"null","","html-keyboard-response","495","537299","0.0-6.0-2.91","","<div style=""font-size:60px;"">+</div>","null","","","","","","",""
"null","","image-keyboard-response","496","538801","0.0-6.0-0.92","","img/red.png","null","trial","null","true","0.2,0.8","4:nogo_d","",""
"null","","html-keyboard-response","497","539804","0.0-6.0-1.92","","<img src=""img/red-r.png"">","null","trial","null","","0.2,0.8","4:nogo_d","1",""
"null","","html-keyboard-response","498","540805","0.0-6.0-2.92","","<div style=""font-size:60px;"">+</div>","null","","","","","","",""
"336.2699999997858","","image-keyboard-response","499","541142","0.0-6.0-0.93","","img/green.png","32","trial","32","true","0.8,0.2","3:go_c","",""
"null","","html-keyboard-response","500","542145","0.0-6.0-1.93","","<img src=""img/green-n.png"" border=""10"">","null","trial","32","","0.8,0.2","3:go_c","0",""
"null","","html-keyboard-response","501","543146","0.0-6.0-2.93","","<div style=""font-size:60px;"">+</div>","null","","","","","","",""
"389.2749999940861","","image-keyboard-response","502","543536","0.0-6.0-0.94","","img/blue.png","32","trial","null","false","0.2,0.8","2:nogo_b","",""
"null","","html-keyboard-response","503","544538","0.0-6.0-1.94","","<img src=""img/blue-n.png"" border=""10"">","null","trial","null","","0.2,0.8","2:nogo_b","0",""
"null","","html-keyboard-response","504","545540","0.0-6.0-2.94","","<div style=""font-size:60px;"">+</div>","null","","","","","","",""
"518.0049999908078","","image-keyboard-response","505","546058","0.0-6.0-0.95","","img/purple.png","32","trial","32","true","0.8,0.2","1:go_a","",""
"null","","html-keyboard-response","506","547061","0.0-6.0-1.95","","<img src=""img/purple-r.png"" border=""10"">","null","trial","32","","0.8,0.2","1:go_a","1",""
"null","","html-keyboard-response","507","548063","0.0-6.0-2.95","","<div style=""font-size:60px;"">+</div>","null","","","","","","",""
"null","","image-keyboard-response","508","549565","0.0-6.0-0.96","","img/blue.png","null","trial","null","true","0.2,0.8","2:nogo_b","",""
"null","","html-keyboard-response","509","550566","0.0-6.0-1.96","","<img src=""img/blue-n.png"">","null","trial","null","","0.2,0.8","2:nogo_b","0",""
"null","","html-keyboard-response","510","551567","0.0-6.0-2.96","","<div style=""font-size:60px;"">+</div>","null","","","","","","",""
"446.2950000015553","","image-keyboard-response","511","552014","0.0-6.0-0.97","","img/green.png","32","trial","32","true","0.8,0.2","3:go_c","",""
"null","","html-keyboard-response","512","553016","0.0-6.0-1.97","","<img src=""img/green-r.png"" border=""10"">","null","trial","32","","0.8,0.2","3:go_c","1",""
"null","","html-keyboard-response","513","554018","0.0-6.0-2.97","","<div style=""font-size:60px;"">+</div>","null","","","","","","",""
"null","","image-keyboard-response","514","555520","0.0-6.0-0.98","","img/red.png","null","trial","null","true","0.2,0.8","4:nogo_d","",""
"null","","html-keyboard-response","515","556522","0.0-6.0-1.98","","<img src=""img/red-r.png"">","null","trial","null","","0.2,0.8","4:nogo_d","1",""
"null","","html-keyboard-response","516","557523","0.0-6.0-2.98","","<div style=""font-size:60px;"">+</div>","null","","","","","","",""
"599.3599999928847","","image-keyboard-response","517","558123","0.0-6.0-0.99","","img/purple.png","32","trial","32","true","0.8,0.2","1:go_a","",""
"null","","html-keyboard-response","518","559126","0.0-6.0-1.99","","<img src=""img/purple-r.png"" border=""10"">","null","trial","32","","0.8,0.2","1:go_a","1",""
"null","","html-keyboard-response","519","560127","0.0-6.0-2.99","","<div style=""font-size:60px;"">+</div>","null","","","","","","",""
"614.6200000075623","","image-keyboard-response","520","560743","0.0-6.0-0.100","","img/green.png","32","trial","32","true","0.8,0.2","3:go_c","",""
"null","","html-keyboard-response","521","561744","0.0-6.0-1.100","","<img src=""img/green-n.png"" border=""10"">","null","trial","32","","0.8,0.2","3:go_c","0",""
"null","","html-keyboard-response","522","562747","0.0-6.0-2.100","","<div style=""font-size:60px;"">+</div>","null","","","","","","",""
"null","","image-keyboard-response","523","564248","0.0-6.0-0.101","","img/blue.png","null","trial","null","true","0.2,0.8","2:nogo_b","",""
"null","","html-keyboard-response","524","565250","0.0-6.0-1.101","","<img src=""img/blue-r.png"">","null","trial","null","","0.2,0.8","2:nogo_b","1",""
"null","","html-keyboard-response","525","566252","0.0-6.0-2.101","","<div style=""font-size:60px;"">+</div>","null","","","","","","",""
"387.26999999198597","","image-keyboard-response","526","566640","0.0-6.0-0.102","","img/purple.png","32","trial","32","true","0.8,0.2","1:go_a","",""
"null","","html-keyboard-response","527","567642","0.0-6.0-1.102","","<img src=""img/purple-r.png"" border=""10"">","null","trial","32","","0.8,0.2","1:go_a","1",""
"null","","html-keyboard-response","528","568643","0.0-6.0-2.102","","<div style=""font-size:60px;"">+</div>","null","","","","","","",""
"null","","image-keyboard-response","529","570144","0.0-6.0-0.103","","img/red.png","null","trial","null","true","0.2,0.8","4:nogo_d","",""
"null","","html-keyboard-response","530","571145","0.0-6.0-1.103","","<img src=""img/red-n.png"">","null","trial","null","","0.2,0.8","4:nogo_d","0",""
"null","","html-keyboard-response","531","572147","0.0-6.0-2.103","","<div style=""font-size:60px;"">+</div>","null","","","","","","",""
"null","","image-keyboard-response","532","573648","0.0-6.0-0.104","","img/red.png","null","trial","null","true","0.2,0.8","4:nogo_d","",""
"null","","html-keyboard-response","533","574650","0.0-6.0-1.104","","<img src=""img/red-r.png"">","null","trial","null","","0.2,0.8","4:nogo_d","1",""
"null","","html-keyboard-response","534","575652","0.0-6.0-2.104","","<div style=""font-size:60px;"">+</div>","null","","","","","","",""
"459.92999999725726","","image-keyboard-response","535","576112","0.0-6.0-0.105","","img/purple.png","32","trial","32","true","0.8,0.2","1:go_a","",""
"null","","html-keyboard-response","536","577114","0.0-6.0-1.105","","<img src=""img/purple-n.png"" border=""10"">","null","trial","32","","0.8,0.2","1:go_a","0",""
"null","","html-keyboard-response","537","578115","0.0-6.0-2.105","","<div style=""font-size:60px;"">+</div>","null","","","","","","",""
"375.97500000265427","","image-keyboard-response","538","578492","0.0-6.0-0.106","","img/green.png","32","trial","32","true","0.8,0.2","3:go_c","",""
"null","","html-keyboard-response","539","579494","0.0-6.0-1.106","","<img src=""img/green-r.png"" border=""10"">","null","trial","32","","0.8,0.2","3:go_c","1",""
"null","","html-keyboard-response","540","580496","0.0-6.0-2.106","","<div style=""font-size:60px;"">+</div>","null","","","","","","",""
"null","","image-keyboard-response","541","581997","0.0-6.0-0.107","","img/blue.png","null","trial","null","true","0.2,0.8","2:nogo_b","",""
"null","","html-keyboard-response","542","583000","0.0-6.0-1.107","","<img src=""img/blue-r.png"">","null","trial","null","","0.2,0.8","2:nogo_b","1",""
"null","","html-keyboard-response","543","584001","0.0-6.0-2.107","","<div style=""font-size:60px;"">+</div>","null","","","","","","",""
"363.855000003241","","image-keyboard-response","544","584366","0.0-6.0-0.108","","img/blue.png","32","trial","null","false","0.2,0.8","2:nogo_b","",""
"null","","html-keyboard-response","545","585369","0.0-6.0-1.108","","<img src=""img/blue-n.png"" border=""10"">","null","trial","null","","0.2,0.8","2:nogo_b","0",""
"null","","html-keyboard-response","546","586370","0.0-6.0-2.108","","<div style=""font-size:60px;"">+</div>","null","","","","","","",""
"346.5100000030361","","image-keyboard-response","547","586717","0.0-6.0-0.109","","img/green.png","32","trial","32","true","0.8,0.2","3:go_c","",""
"null","","html-keyboard-response","548","587719","0.0-6.0-1.109","","<img src=""img/green-r.png"" border=""10"">","null","trial","32","","0.8,0.2","3:go_c","1",""
"null","","html-keyboard-response","549","588721","0.0-6.0-2.109","","<div style=""font-size:60px;"">+</div>","null","","","","","","",""
"null","","image-keyboard-response","550","590222","0.0-6.0-0.110","","img/red.png","null","trial","null","true","0.2,0.8","4:nogo_d","",""
"null","","html-keyboard-response","551","591225","0.0-6.0-1.110","","<img src=""img/red-r.png"">","null","trial","null","","0.2,0.8","4:nogo_d","1",""
"null","","html-keyboard-response","552","592225","0.0-6.0-2.110","","<div style=""font-size:60px;"">+</div>","null","","","","","","",""
"406.20999998645857","","image-keyboard-response","553","592632","0.0-6.0-0.111","","img/purple.png","32","trial","32","true","0.8,0.2","1:go_a","",""
"null","","html-keyboard-response","554","593634","0.0-6.0-1.111","","<img src=""img/purple-r.png"" border=""10"">","null","trial","32","","0.8,0.2","1:go_a","1",""
"null","","html-keyboard-response","555","594636","0.0-6.0-2.111","","<div style=""font-size:60px;"">+</div>","null","","","","","","",""
"567.815000002156","","image-keyboard-response","556","595205","0.0-6.0-0.112","","img/purple.png","32","trial","32","true","0.8,0.2","1:go_a","",""
"null","","html-keyboard-response","557","596206","0.0-6.0-1.112","","<img src=""img/purple-r.png"" border=""10"">","null","trial","32","","0.8,0.2","1:go_a","1",""
"null","","html-keyboard-response","558","597208","0.0-6.0-2.112","","<div style=""font-size:60px;"">+</div>","null","","","","","","",""
"409.0299999952549","","image-keyboard-response","559","597617","0.0-6.0-0.113","","img/green.png","32","trial","32","true","0.8,0.2","3:go_c","",""
"null","","html-keyboard-response","560","598620","0.0-6.0-1.113","","<img src=""img/green-n.png"" border=""10"">","null","trial","32","","0.8,0.2","3:go_c","0",""
"null","","html-keyboard-response","561","599620","0.0-6.0-2.113","","<div style=""font-size:60px;"">+</div>","null","","","","","","",""
"null","","image-keyboard-response","562","601134","0.0-6.0-0.114","","img/blue.png","null","trial","null","true","0.2,0.8","2:nogo_b","",""
"null","","html-keyboard-response","563","602136","0.0-6.0-1.114","","<img src=""img/blue-r.png"">","null","trial","null","","0.2,0.8","2:nogo_b","1",""
"null","","html-keyboard-response","564","603139","0.0-6.0-2.114","","<div style=""font-size:60px;"">+</div>","null","","","","","","",""
"null","","image-keyboard-response","565","604643","0.0-6.0-0.115","","img/red.png","null","trial","null","true","0.2,0.8","4:nogo_d","",""
"null","","html-keyboard-response","566","605646","0.0-6.0-1.115","","<img src=""img/red-r.png"">","null","trial","null","","0.2,0.8","4:nogo_d","1",""
"null","","html-keyboard-response","567","606647","0.0-6.0-2.115","","<div style=""font-size:60px;"">+</div>","null","","","","","","",""
"397.7350000059232","","image-keyboard-response","568","607046","0.0-6.0-0.116","","img/purple.png","32","trial","32","true","0.8,0.2","1:go_a","",""
"null","","html-keyboard-response","569","608048","0.0-6.0-1.116","","<img src=""img/purple-r.png"" border=""10"">","null","trial","32","","0.8,0.2","1:go_a","1",""
"null","","html-keyboard-response","570","609050","0.0-6.0-2.116","","<div style=""font-size:60px;"">+</div>","null","","","","","","",""
"546.6799999994691","","image-keyboard-response","571","609597","0.0-6.0-0.117","","img/blue.png","32","trial","null","false","0.2,0.8","2:nogo_b","",""
"null","","html-keyboard-response","572","610600","0.0-6.0-1.117","","<img src=""img/blue-n.png"" border=""10"">","null","trial","null","","0.2,0.8","2:nogo_b","0",""
"null","","html-keyboard-response","573","611601","0.0-6.0-2.117","","<div style=""font-size:60px;"">+</div>","null","","","","","","",""
"null","","image-keyboard-response","574","613103","0.0-6.0-0.118","","img/red.png","null","trial","null","true","0.2,0.8","4:nogo_d","",""
"null","","html-keyboard-response","575","614105","0.0-6.0-1.118","","<img src=""img/red-n.png"">","null","trial","null","","0.2,0.8","4:nogo_d","0",""
"null","","html-keyboard-response","576","615113","0.0-6.0-2.118","","<div style=""font-size:60px;"">+</div>","null","","","","","","",""
"301.8000000010943","","image-keyboard-response","577","615416","0.0-6.0-0.119","","img/green.png","32","trial","32","true","0.8,0.2","3:go_c","",""
"null","","html-keyboard-response","578","616418","0.0-6.0-1.119","","<img src=""img/green-n.png"" border=""10"">","null","trial","32","","0.8,0.2","3:go_c","0",""
"null","","html-keyboard-response","579","617419","0.0-6.0-2.119","","<div style=""font-size:60px;"">+</div>","null","","","","","","",""
"2448.084999996354","","instructions","580","619868","0.0-7.0","[{""page_index"":0,""viewing_time"":2447.890000010375}]","","","","","","","","",""
"678.9599999901839","","image-keyboard-response","581","620548","0.0-8.0-0.0","","img/purple.png","32","trial","null","false","0.2,0.8","2:nogo_b","",""
"null","","html-keyboard-response","582","621550","0.0-8.0-1.0","","<img src=""img/purple-n.png"" border=""10"">","null","trial","null","","0.2,0.8","2:nogo_b","0",""
"null","","html-keyboard-response","583","622552","0.0-8.0-2.0","","<div style=""font-size:60px;"">+</div>","null","","","","","","",""
"264.0700000047218","","image-keyboard-response","584","622817","0.0-8.0-0.1","","img/red.png","32","trial","32","true","0.6,0.4","3:go_c","",""
"null","","html-keyboard-response","585","623818","0.0-8.0-1.1","","<img src=""img/red-n.png"" border=""10"">","null","trial","32","","0.6,0.4","3:go_c","0",""
"null","","html-keyboard-response","586","624820","0.0-8.0-2.1","","<div style=""font-size:60px;"">+</div>","null","","","","","","",""
"254.04499999422114","","image-keyboard-response","587","625075","0.0-8.0-0.2","","img/green.png","32","trial","32","true","0.8,0.2","1:go_a","",""
"null","","html-keyboard-response","588","626076","0.0-8.0-1.2","","<img src=""img/green-r.png"" border=""10"">","null","trial","32","","0.8,0.2","1:go_a","1",""
"null","","html-keyboard-response","589","627079","0.0-8.0-2.2","","<div style=""font-size:60px;"">+</div>","null","","","","","","",""
"663.7400000035996","","image-keyboard-response","590","627744","0.0-8.0-0.3","","img/orange.png","32","trial","null","false","0.4,0.6","4:nogo_d","",""
"null","","html-keyboard-response","591","628745","0.0-8.0-1.3","","<img src=""img/orange-r.png"" border=""10"">","null","trial","null","","0.4,0.6","4:nogo_d","1",""
"null","","html-keyboard-response","592","629746","0.0-8.0-2.3","","<div style=""font-size:60px;"">+</div>","null","","","","","","",""
"544.4850000058068","","image-keyboard-response","593","630292","0.0-8.0-0.4","","img/green.png","32","trial","32","true","0.8,0.2","1:go_a","",""
"null","","html-keyboard-response","594","631294","0.0-8.0-1.4","","<img src=""img/green-n.png"" border=""10"">","null","trial","32","","0.8,0.2","1:go_a","0",""
"null","","html-keyboard-response","595","632295","0.0-8.0-2.4","","<div style=""font-size:60px;"">+</div>","null","","","","","","",""
"672.2500000032596","","image-keyboard-response","596","632968","0.0-8.0-0.5","","img/purple.png","32","trial","null","false","0.2,0.8","2:nogo_b","",""
"null","","html-keyboard-response","597","633971","0.0-8.0-1.5","","<img src=""img/purple-n.png"" border=""10"">","null","trial","null","","0.2,0.8","2:nogo_b","0",""
"null","","html-keyboard-response","598","634972","0.0-8.0-2.5","","<div style=""font-size:60px;"">+</div>","null","","","","","","",""
"454.249999995227","","image-keyboard-response","599","635427","0.0-8.0-0.6","","img/orange.png","32","trial","null","false","0.4,0.6","4:nogo_d","",""
"null","","html-keyboard-response","600","636429","0.0-8.0-1.6","","<img src=""img/orange-n.png"" border=""10"">","null","trial","null","","0.4,0.6","4:nogo_d","0",""
"null","","html-keyboard-response","601","637431","0.0-8.0-2.6","","<div style=""font-size:60px;"">+</div>","null","","","","","","",""
"431.06499999703374","","image-keyboard-response","602","637863","0.0-8.0-0.7","","img/red.png","32","trial","32","true","0.6,0.4","3:go_c","",""
"null","","html-keyboard-response","603","638865","0.0-8.0-1.7","","<img src=""img/red-n.png"" border=""10"">","null","trial","32","","0.6,0.4","3:go_c","0",""
"null","","html-keyboard-response","604","639866","0.0-8.0-2.7","","<div style=""font-size:60px;"">+</div>","null","","","","","","",""
"925.7199999992736","","image-keyboard-response","605","640793","0.0-8.0-0.8","","img/orange.png","32","trial","null","false","0.4,0.6","4:nogo_d","",""
"null","","html-keyboard-response","606","641795","0.0-8.0-1.8","","<img src=""img/orange-r.png"" border=""10"">","null","trial","null","","0.4,0.6","4:nogo_d","1",""
"null","","html-keyboard-response","607","642796","0.0-8.0-2.8","","<div style=""font-size:60px;"">+</div>","null","","","","","","",""
"638.5449999943376","","image-keyboard-response","608","643436","0.0-8.0-0.9","","img/purple.png","32","trial","null","false","0.2,0.8","2:nogo_b","",""
"null","","html-keyboard-response","609","644437","0.0-8.0-1.9","","<img src=""img/purple-r.png"" border=""10"">","null","trial","null","","0.2,0.8","2:nogo_b","1",""
"null","","html-keyboard-response","610","645439","0.0-8.0-2.9","","<div style=""font-size:60px;"">+</div>","null","","","","","","",""
"366.15500001062173","","image-keyboard-response","611","645806","0.0-8.0-0.10","","img/green.png","32","trial","32","true","0.8,0.2","1:go_a","",""
"null","","html-keyboard-response","612","646808","0.0-8.0-1.10","","<img src=""img/green-r.png"" border=""10"">","null","trial","32","","0.8,0.2","1:go_a","1",""
"null","","html-keyboard-response","613","647809","0.0-8.0-2.10","","<div style=""font-size:60px;"">+</div>","null","","","","","","",""
"null","","image-keyboard-response","614","649310","0.0-8.0-0.11","","img/red.png","null","trial","32","false","0.6,0.4","3:go_c","",""
"null","","html-keyboard-response","615","650312","0.0-8.0-1.11","","<img src=""img/red-n.png"">","null","trial","32","","0.6,0.4","3:go_c","0",""
"null","","html-keyboard-response","616","651313","0.0-8.0-2.11","","<div style=""font-size:60px;"">+</div>","null","","","","","","",""
"383.4050000004936","","image-keyboard-response","617","651697","0.0-8.0-0.12","","img/orange.png","32","trial","null","false","0.4,0.6","4:nogo_d","",""
"null","","html-keyboard-response","618","652699","0.0-8.0-1.12","","<img src=""img/orange-n.png"" border=""10"">","null","trial","null","","0.4,0.6","4:nogo_d","0",""
"null","","html-keyboard-response","619","653700","0.0-8.0-2.12","","<div style=""font-size:60px;"">+</div>","null","","","","","","",""
"null","","image-keyboard-response","620","655203","0.0-8.0-0.13","","img/red.png","null","trial","32","false","0.6,0.4","3:go_c","",""
"null","","html-keyboard-response","621","656205","0.0-8.0-1.13","","<img src=""img/red-n.png"">","null","trial","32","","0.6,0.4","3:go_c","0",""
"null","","html-keyboard-response","622","657207","0.0-8.0-2.13","","<div style=""font-size:60px;"">+</div>","null","","","","","","",""
"549.7250000044005","","image-keyboard-response","623","657757","0.0-8.0-0.14","","img/purple.png","32","trial","null","false","0.2,0.8","2:nogo_b","",""
"null","","html-keyboard-response","624","658760","0.0-8.0-1.14","","<img src=""img/purple-r.png"" border=""10"">","null","trial","null","","0.2,0.8","2:nogo_b","1",""
"null","","html-keyboard-response","625","659772","0.0-8.0-2.14","","<div style=""font-size:60px;"">+</div>","null","","","","","","",""
"326.8800000078045","","image-keyboard-response","626","660100","0.0-8.0-0.15","","img/green.png","32","trial","32","true","0.8,0.2","1:go_a","",""
"null","","html-keyboard-response","627","661102","0.0-8.0-1.15","","<img src=""img/green-r.png"" border=""10"">","null","trial","32","","0.8,0.2","1:go_a","1",""
"null","","html-keyboard-response","628","662104","0.0-8.0-2.15","","<div style=""font-size:60px;"">+</div>","null","","","","","","",""
"646.020000000135","","image-keyboard-response","629","662751","0.0-8.0-0.16","","img/purple.png","32","trial","null","false","0.2,0.8","2:nogo_b","",""
"null","","html-keyboard-response","630","663753","0.0-8.0-1.16","","<img src=""img/purple-r.png"" border=""10"">","null","trial","null","","0.2,0.8","2:nogo_b","1",""
"null","","html-keyboard-response","631","664755","0.0-8.0-2.16","","<div style=""font-size:60px;"">+</div>","null","","","","","","",""
"340.02000000327826","","image-keyboard-response","632","665096","0.0-8.0-0.17","","img/green.png","32","trial","32","true","0.8,0.2","1:go_a","",""
"null","","html-keyboard-response","633","666098","0.0-8.0-1.17","","<img src=""img/green-r.png"" border=""10"">","null","trial","32","","0.8,0.2","1:go_a","1",""
"null","","html-keyboard-response","634","667100","0.0-8.0-2.17","","<div style=""font-size:60px;"">+</div>","null","","","","","","",""
"631.7649999982677","","image-keyboard-response","635","667733","0.0-8.0-0.18","","img/orange.png","32","trial","null","false","0.4,0.6","4:nogo_d","",""
"null","","html-keyboard-response","636","668735","0.0-8.0-1.18","","<img src=""img/orange-n.png"" border=""10"">","null","trial","null","","0.4,0.6","4:nogo_d","0",""
"null","","html-keyboard-response","637","669736","0.0-8.0-2.18","","<div style=""font-size:60px;"">+</div>","null","","","","","","",""
"null","","image-keyboard-response","638","671237","0.0-8.0-0.19","","img/red.png","null","trial","32","false","0.6,0.4","3:go_c","",""
"null","","html-keyboard-response","639","672239","0.0-8.0-1.19","","<img src=""img/red-n.png"">","null","trial","32","","0.6,0.4","3:go_c","0",""
"null","","html-keyboard-response","640","673241","0.0-8.0-2.19","","<div style=""font-size:60px;"">+</div>","null","","","","","","",""
"301.8749999901047","","image-keyboard-response","641","673544","0.0-8.0-0.20","","img/purple.png","32","trial","null","false","0.2,0.8","2:nogo_b","",""
"null","","html-keyboard-response","642","674545","0.0-8.0-1.20","","<img src=""img/purple-n.png"" border=""10"">","null","trial","null","","0.2,0.8","2:nogo_b","0",""
"null","","html-keyboard-response","643","675546","0.0-8.0-2.20","","<div style=""font-size:60px;"">+</div>","null","","","","","","",""
"300.49500000313856","","image-keyboard-response","644","675848","0.0-8.0-0.21","","img/green.png","32","trial","32","true","0.8,0.2","1:go_a","",""
"null","","html-keyboard-response","645","676849","0.0-8.0-1.21","","<img src=""img/green-r.png"" border=""10"">","null","trial","32","","0.8,0.2","1:go_a","1",""
"null","","html-keyboard-response","646","677851","0.0-8.0-2.21","","<div style=""font-size:60px;"">+</div>","null","","","","","","",""
"null","","image-keyboard-response","647","679353","0.0-8.0-0.22","","img/red.png","null","trial","32","false","0.6,0.4","3:go_c","",""
"null","","html-keyboard-response","648","680355","0.0-8.0-1.22","","<img src=""img/red-r.png"">","null","trial","32","","0.6,0.4","3:go_c","1",""
"null","","html-keyboard-response","649","681356","0.0-8.0-2.22","","<div style=""font-size:60px;"">+</div>","null","","","","","","",""
"311.0200000082841","","image-keyboard-response","650","681668","0.0-8.0-0.23","","img/orange.png","32","trial","null","false","0.4,0.6","4:nogo_d","",""
"null","","html-keyboard-response","651","682671","0.0-8.0-1.23","","<img src=""img/orange-n.png"" border=""10"">","null","trial","null","","0.4,0.6","4:nogo_d","0",""
"null","","html-keyboard-response","652","683672","0.0-8.0-2.23","","<div style=""font-size:60px;"">+</div>","null","","","","","","",""
"677.6700000045821","","image-keyboard-response","653","684350","0.0-8.0-0.24","","img/orange.png","32","trial","null","false","0.4,0.6","4:nogo_d","",""
"null","","html-keyboard-response","654","685352","0.0-8.0-1.24","","<img src=""img/orange-r.png"" border=""10"">","null","trial","null","","0.4,0.6","4:nogo_d","1",""
"null","","html-keyboard-response","655","686354","0.0-8.0-2.24","","<div style=""font-size:60px;"">+</div>","null","","","","","","",""
"371.71000000671484","","image-keyboard-response","656","686726","0.0-8.0-0.25","","img/purple.png","32","trial","null","false","0.2,0.8","2:nogo_b","",""
"null","","html-keyboard-response","657","687729","0.0-8.0-1.25","","<img src=""img/purple-r.png"" border=""10"">","null","trial","null","","0.2,0.8","2:nogo_b","1",""
"null","","html-keyboard-response","658","688731","0.0-8.0-2.25","","<div style=""font-size:60px;"">+</div>","null","","","","","","",""
"null","","image-keyboard-response","659","690232","0.0-8.0-0.26","","img/red.png","null","trial","32","false","0.6,0.4","3:go_c","",""
"null","","html-keyboard-response","660","691234","0.0-8.0-1.26","","<img src=""img/red-n.png"">","null","trial","32","","0.6,0.4","3:go_c","0",""
"null","","html-keyboard-response","661","692236","0.0-8.0-2.26","","<div style=""font-size:60px;"">+</div>","null","","","","","","",""
"342.38500001083594","","image-keyboard-response","662","692579","0.0-8.0-0.27","","img/green.png","32","trial","32","true","0.8,0.2","1:go_a","",""
"null","","html-keyboard-response","663","693581","0.0-8.0-1.27","","<img src=""img/green-n.png"" border=""10"">","null","trial","32","","0.8,0.2","1:go_a","0",""
"null","","html-keyboard-response","664","694583","0.0-8.0-2.27","","<div style=""font-size:60px;"">+</div>","null","","","","","","",""
"391.5300000080606","","image-keyboard-response","665","694976","0.0-8.0-0.28","","img/green.png","32","trial","32","true","0.8,0.2","1:go_a","",""
"null","","html-keyboard-response","666","695979","0.0-8.0-1.28","","<img src=""img/green-n.png"" border=""10"">","null","trial","32","","0.8,0.2","1:go_a","0",""
"null","","html-keyboard-response","667","696981","0.0-8.0-2.28","","<div style=""font-size:60px;"">+</div>","null","","","","","","",""
"null","","image-keyboard-response","668","698483","0.0-8.0-0.29","","img/red.png","null","trial","32","false","0.6,0.4","3:go_c","",""
"null","","html-keyboard-response","669","699485","0.0-8.0-1.29","","<img src=""img/red-n.png"">","null","trial","32","","0.6,0.4","3:go_c","0",""
"null","","html-keyboard-response","670","700486","0.0-8.0-2.29","","<div style=""font-size:60px;"">+</div>","null","","","","","","",""
"518.5599999967963","","image-keyboard-response","671","701006","0.0-8.0-0.30","","img/orange.png","32","trial","null","false","0.4,0.6","4:nogo_d","",""
"null","","html-keyboard-response","672","702007","0.0-8.0-1.30","","<img src=""img/orange-r.png"" border=""10"">","null","trial","null","","0.4,0.6","4:nogo_d","1",""
"null","","html-keyboard-response","673","703009","0.0-8.0-2.30","","<div style=""font-size:60px;"">+</div>","null","","","","","","",""
"503.3250000124099","","image-keyboard-response","674","703513","0.0-8.0-0.31","","img/purple.png","32","trial","null","false","0.2,0.8","2:nogo_b","",""
