"rt","url","trial_type","trial_index","time_elapsed","internal_node_id","view_history","stimulus","key_press","test_part","correct_response","correct","use_rew","which_stim","reward","responses"
"5603","consent.html","external-html","0","5722","0.0-0.0","","","","","","","","","",""
"79981","","instructions","1","85705","0.0-1.0","[{""page_index"":0,""viewing_time"":5056},{""page_index"":1,""viewing_time"":15274},{""page_index"":2,""viewing_time"":6060},{""page_index"":3,""viewing_time"":22614},{""page_index"":4,""viewing_time"":11810},{""page_index"":5,""viewing_time"":6614},{""page_index"":6,""viewing_time"":12552}]","","","","","","","","",""
"952","","image-keyboard-response","2","86661","0.0-2.0-0.0","","img/test1.PNG","32","practice","32","true","","","",""
"null","","html-keyboard-response","3","87676","0.0-2.0-1.0","","<img src=""img/test1-reward.PNG"" border=""10px; grey"">","null","","","","","","",""
"null","","html-keyboard-response","4","88696","0.0-2.0-2.0","","<div style=""font-size:60px;"">+</div>","null","","","","","","",""
"null","","image-keyboard-response","5","90207","0.0-2.0-0.1","","img/test3.PNG","null","practice","null","true","","","",""
"null","","html-keyboard-response","6","91217","0.0-2.0-1.1","","<img src=""img/test3-reward.PNG"">","null","","","","","","",""
"null","","html-keyboard-response","7","92226","0.0-2.0-2.1","","<div style=""font-size:60px;"">+</div>","null","","","","","","",""
"null","","image-keyboard-response","8","93746","0.0-2.0-0.2","","img/test2.PNG","null","practice","null","true","","","",""
"null","","html-keyboard-response","9","94757","0.0-2.0-1.2","","<img src=""img/test2-reward.PNG"">","null","","","","","","",""
"null","","html-keyboard-response","10","95767","0.0-2.0-2.2","","<div style=""font-size:60px;"">+</div>","null","","","","","","",""
"null","","image-keyboard-response","11","97277","0.0-2.0-0.3","","img/test2.PNG","null","practice","null","true","","","",""
"null","","html-keyboard-response","12","98296","0.0-2.0-1.3","","<img src=""img/test2-reward.PNG"">","null","","","","","","",""
"null","","html-keyboard-response","13","99307","0.0-2.0-2.3","","<div style=""font-size:60px;"">+</div>","null","","","","","","",""
"551","","image-keyboard-response","14","99859","0.0-2.0-0.4","","img/test1.PNG","32","practice","32","true","","","",""
"null","","html-keyboard-response","15","100876","0.0-2.0-1.4","","<img src=""img/test1-reward.PNG"" border=""10px; grey"">","null","","","","","","",""
"null","","html-keyboard-response","16","101886","0.0-2.0-2.4","","<div style=""font-size:60px;"">+</div>","null","","","","","","",""
"null","","image-keyboard-response","17","103398","0.0-2.0-0.5","","img/test3.PNG","null","practice","null","true","","","",""
"null","","html-keyboard-response","18","104402","0.0-2.0-1.5","","<img src=""img/test3-reward.PNG"">","null","","","","","","",""
"null","","html-keyboard-response","19","105406","0.0-2.0-2.5","","<div style=""font-size:60px;"">+</div>","null","","","","","","",""
"null","","image-keyboard-response","20","106926","0.0-2.0-0.6","","img/test2.PNG","null","practice","null","true","","","",""
"null","","html-keyboard-response","21","107936","0.0-2.0-1.6","","<img src=""img/test2-reward.PNG"">","null","","","","","","",""
"null","","html-keyboard-response","22","108956","0.0-2.0-2.6","","<div style=""font-size:60px;"">+</div>","null","","","","","","",""
"404","","image-keyboard-response","23","109362","0.0-2.0-0.7","","img/test1.PNG","32","practice","32","true","","","",""
"null","","html-keyboard-response","24","110367","0.0-2.0-1.7","","<img src=""img/test1-reward.PNG"" border=""10px; grey"">","null","","","","","","",""
"null","","html-keyboard-response","25","111376","0.0-2.0-2.7","","<div style=""font-size:60px;"">+</div>","null","","","","","","",""
"null","","image-keyboard-response","26","112886","0.0-2.0-0.8","","img/test3.PNG","null","practice","null","true","","","",""
"null","","html-keyboard-response","27","113906","0.0-2.0-1.8","","<img src=""img/test3-reward.PNG"">","null","","","","","","",""
"null","","html-keyboard-response","28","114921","0.0-2.0-2.8","","<div style=""font-size:60px;"">+</div>","null","","","","","","",""
"null","","image-keyboard-response","29","116427","0.0-2.0-0.9","","img/test3.PNG","null","practice","null","true","","","",""
"null","","html-keyboard-response","30","117434","0.0-2.0-1.9","","<img src=""img/test3-reward.PNG"">","null","","","","","","",""
"null","","html-keyboard-response","31","118434","0.0-2.0-2.9","","<div style=""font-size:60px;"">+</div>","null","","","","","","",""
"608","","image-keyboard-response","32","119043","0.0-2.0-0.10","","img/test1.PNG","32","practice","32","true","","","",""
"null","","html-keyboard-response","33","120055","0.0-2.0-1.10","","<img src=""img/test1-reward.PNG"" border=""10px; grey"">","null","","","","","","",""
"null","","html-keyboard-response","34","121076","0.0-2.0-2.10","","<div style=""font-size:60px;"">+</div>","null","","","","","","",""
"null","","image-keyboard-response","35","122586","0.0-2.0-0.11","","img/test2.PNG","null","practice","null","true","","","",""
"null","","html-keyboard-response","36","123597","0.0-2.0-1.11","","<img src=""img/test2-reward.PNG"">","null","","","","","","",""
"null","","html-keyboard-response","37","124617","0.0-2.0-2.11","","<div style=""font-size:60px;"">+</div>","null","","","","","","",""
"3132","","instructions","38","127747","0.0-3.0","[{""page_index"":0,""viewing_time"":3132}]","","","","","","","","",""
"1262","","image-keyboard-response","39","129010","0.0-4.0-0.0","","img/red.png","32","trial","null","false","0.2,0.8","2:nogo_b","",""
"null","","html-keyboard-response","40","130026","0.0-4.0-1.0","","<img src=""img/red-n.png"" border=""10"">","null","trial","null","","0.2,0.8","2:nogo_b","0",""
"null","","html-keyboard-response","41","131036","0.0-4.0-2.0","","<div style=""font-size:60px;"">+</div>","null","","","","","","",""
"725","","image-keyboard-response","42","131762","0.0-4.0-0.1","","img/pink.png","32","trial","32","true","0.8,0.2","1:go_a","",""
"null","","html-keyboard-response","43","132776","0.0-4.0-1.1","","<img src=""img/pink-r.png"" border=""10"">","null","trial","32","","0.8,0.2","1:go_a","1",""
"null","","html-keyboard-response","44","133786","0.0-4.0-2.1","","<div style=""font-size:60px;"">+</div>","null","","","","","","",""
"1111","","image-keyboard-response","45","134898","0.0-4.0-0.2","","img/red.png","32","trial","null","false","0.2,0.8","2:nogo_b","",""
"null","","html-keyboard-response","46","135906","0.0-4.0-1.2","","<img src=""img/red-n.png"" border=""10"">","null","trial","null","","0.2,0.8","2:nogo_b","0",""
"null","","html-keyboard-response","47","136916","0.0-4.0-2.2","","<div style=""font-size:60px;"">+</div>","null","","","","","","",""
"541","","image-keyboard-response","48","137459","0.0-4.0-0.3","","img/pink.png","32","trial","32","true","0.8,0.2","1:go_a","",""
"null","","html-keyboard-response","49","138466","0.0-4.0-1.3","","<img src=""img/pink-r.png"" border=""10"">","null","trial","32","","0.8,0.2","1:go_a","1",""
"null","","html-keyboard-response","50","139474","0.0-4.0-2.3","","<div style=""font-size:60px;"">+</div>","null","","","","","","",""
"null","","image-keyboard-response","51","140986","0.0-4.0-0.4","","img/red.png","null","trial","null","true","0.2,0.8","2:nogo_b","",""
"null","","html-keyboard-response","52","141998","0.0-4.0-1.4","","<img src=""img/red-r.png"">","null","trial","null","","0.2,0.8","2:nogo_b","1",""
"null","","html-keyboard-response","53","143001","0.0-4.0-2.4","","<div style=""font-size:60px;"">+</div>","null","","","","","","",""
"521","","image-keyboard-response","54","143522","0.0-4.0-0.5","","img/pink.png","32","trial","32","true","0.8,0.2","1:go_a","",""
"null","","html-keyboard-response","55","144535","0.0-4.0-1.5","","<img src=""img/pink-r.png"" border=""10"">","null","trial","32","","0.8,0.2","1:go_a","1",""
"null","","html-keyboard-response","56","145546","0.0-4.0-2.5","","<div style=""font-size:60px;"">+</div>","null","","","","","","",""
"null","","image-keyboard-response","57","147056","0.0-4.0-0.6","","img/red.png","null","trial","null","true","0.2,0.8","2:nogo_b","",""
"null","","html-keyboard-response","58","148065","0.0-4.0-1.6","","<img src=""img/red-n.png"">","null","trial","null","","0.2,0.8","2:nogo_b","0",""
"null","","html-keyboard-response","59","149085","0.0-4.0-2.6","","<div style=""font-size:60px;"">+</div>","null","","","","","","",""
"500","","image-keyboard-response","60","149587","0.0-4.0-0.7","","img/pink.png","32","trial","32","true","0.8,0.2","1:go_a","",""
"null","","html-keyboard-response","61","150591","0.0-4.0-1.7","","<img src=""img/pink-n.png"" border=""10"">","null","trial","32","","0.8,0.2","1:go_a","0",""
"null","","html-keyboard-response","62","151605","0.0-4.0-2.7","","<div style=""font-size:60px;"">+</div>","null","","","","","","",""
"null","","image-keyboard-response","63","153119","0.0-4.0-0.8","","img/red.png","null","trial","null","true","0.2,0.8","2:nogo_b","",""
"null","","html-keyboard-response","64","154136","0.0-4.0-1.8","","<img src=""img/red-r.png"">","null","trial","null","","0.2,0.8","2:nogo_b","1",""
"null","","html-keyboard-response","65","155146","0.0-4.0-2.8","","<div style=""font-size:60px;"">+</div>","null","","","","","","",""
"456","","image-keyboard-response","66","155602","0.0-4.0-0.9","","img/pink.png","32","trial","32","true","0.8,0.2","1:go_a","",""
"null","","html-keyboard-response","67","156611","0.0-4.0-1.9","","<img src=""img/pink-r.png"" border=""10"">","null","trial","32","","0.8,0.2","1:go_a","1",""
"null","","html-keyboard-response","68","157616","0.0-4.0-2.9","","<div style=""font-size:60px;"">+</div>","null","","","","","","",""
"null","","image-keyboard-response","69","159135","0.0-4.0-0.10","","img/red.png","null","trial","null","true","0.2,0.8","2:nogo_b","",""
"null","","html-keyboard-response","70","160146","0.0-4.0-1.10","","<img src=""img/red-r.png"">","null","trial","null","","0.2,0.8","2:nogo_b","1",""
"null","","html-keyboard-response","71","161156","0.0-4.0-2.10","","<div style=""font-size:60px;"">+</div>","null","","","","","","",""
"541","","image-keyboard-response","72","161698","0.0-4.0-0.11","","img/pink.png","32","trial","32","true","0.8,0.2","1:go_a","",""
"null","","html-keyboard-response","73","162706","0.0-4.0-1.11","","<img src=""img/pink-r.png"" border=""10"">","null","trial","32","","0.8,0.2","1:go_a","1",""
"null","","html-keyboard-response","74","163726","0.0-4.0-2.11","","<div style=""font-size:60px;"">+</div>","null","","","","","","",""
"436","","image-keyboard-response","75","164163","0.0-4.0-0.12","","img/red.png","32","trial","null","false","0.2,0.8","2:nogo_b","",""
"null","","html-keyboard-response","76","165166","0.0-4.0-1.12","","<img src=""img/red-n.png"" border=""10"">","null","trial","null","","0.2,0.8","2:nogo_b","0",""
"null","","html-keyboard-response","77","166176","0.0-4.0-2.12","","<div style=""font-size:60px;"">+</div>","null","","","","","","",""
"482","","image-keyboard-response","78","166658","0.0-4.0-0.13","","img/pink.png","32","trial","32","true","0.8,0.2","1:go_a","",""
"null","","html-keyboard-response","79","167665","0.0-4.0-1.13","","<img src=""img/pink-r.png"" border=""10"">","null","trial","32","","0.8,0.2","1:go_a","1",""
"null","","html-keyboard-response","80","168685","0.0-4.0-2.13","","<div style=""font-size:60px;"">+</div>","null","","","","","","",""
"516","","image-keyboard-response","81","169203","0.0-4.0-0.14","","img/red.png","32","trial","null","false","0.2,0.8","2:nogo_b","",""
"null","","html-keyboard-response","82","170206","0.0-4.0-1.14","","<img src=""img/red-n.png"" border=""10"">","null","trial","null","","0.2,0.8","2:nogo_b","0",""
"null","","html-keyboard-response","83","171226","0.0-4.0-2.14","","<div style=""font-size:60px;"">+</div>","null","","","","","","",""
"375","","image-keyboard-response","84","171602","0.0-4.0-0.15","","img/pink.png","32","trial","32","true","0.8,0.2","1:go_a","",""
"null","","html-keyboard-response","85","172613","0.0-4.0-1.15","","<img src=""img/pink-r.png"" border=""10"">","null","trial","32","","0.8,0.2","1:go_a","1",""
"null","","html-keyboard-response","86","173626","0.0-4.0-2.15","","<div style=""font-size:60px;"">+</div>","null","","","","","","",""
"null","","image-keyboard-response","87","175146","0.0-4.0-0.16","","img/red.png","null","trial","null","true","0.2,0.8","2:nogo_b","",""
"null","","html-keyboard-response","88","176156","0.0-4.0-1.16","","<img src=""img/red-r.png"">","null","trial","null","","0.2,0.8","2:nogo_b","1",""
"null","","html-keyboard-response","89","177165","0.0-4.0-2.16","","<div style=""font-size:60px;"">+</div>","null","","","","","","",""
"452","","image-keyboard-response","90","177618","0.0-4.0-0.17","","img/pink.png","32","trial","32","true","0.8,0.2","1:go_a","",""
"null","","html-keyboard-response","91","178626","0.0-4.0-1.17","","<img src=""img/pink-n.png"" border=""10"">","null","trial","32","","0.8,0.2","1:go_a","0",""
"null","","html-keyboard-response","92","179636","0.0-4.0-2.17","","<div style=""font-size:60px;"">+</div>","null","","","","","","",""
"null","","image-keyboard-response","93","181145","0.0-4.0-0.18","","img/red.png","null","trial","null","true","0.2,0.8","2:nogo_b","",""
"null","","html-keyboard-response","94","182161","0.0-4.0-1.18","","<img src=""img/red-r.png"">","null","trial","null","","0.2,0.8","2:nogo_b","1",""
"null","","html-keyboard-response","95","183166","0.0-4.0-2.18","","<div style=""font-size:60px;"">+</div>","null","","","","","","",""
"516","","image-keyboard-response","96","183682","0.0-4.0-0.19","","img/pink.png","32","trial","32","true","0.8,0.2","1:go_a","",""
"null","","html-keyboard-response","97","184685","0.0-4.0-1.19","","<img src=""img/pink-r.png"" border=""10"">","null","trial","32","","0.8,0.2","1:go_a","1",""
"null","","html-keyboard-response","98","185696","0.0-4.0-2.19","","<div style=""font-size:60px;"">+</div>","null","","","","","","",""
"753","","image-keyboard-response","99","186451","0.0-4.0-0.20","","img/pink.png","32","trial","32","true","0.8,0.2","1:go_a","",""
"null","","html-keyboard-response","100","187465","0.0-4.0-1.20","","<img src=""img/pink-r.png"" border=""10"">","null","trial","32","","0.8,0.2","1:go_a","1",""
"null","","html-keyboard-response","101","188475","0.0-4.0-2.20","","<div style=""font-size:60px;"">+</div>","null","","","","","","",""
"null","","image-keyboard-response","102","189975","0.0-4.0-0.21","","img/red.png","null","trial","null","true","0.2,0.8","2:nogo_b","",""
"null","","html-keyboard-response","103","190985","0.0-4.0-1.21","","<img src=""img/red-r.png"">","null","trial","null","","0.2,0.8","2:nogo_b","1",""
"null","","html-keyboard-response","104","191991","0.0-4.0-2.21","","<div style=""font-size:60px;"">+</div>","null","","","","","","",""
"666","","image-keyboard-response","105","192657","0.0-4.0-0.22","","img/red.png","32","trial","null","false","0.2,0.8","2:nogo_b","",""
"null","","html-keyboard-response","106","193667","0.0-4.0-1.22","","<img src=""img/red-n.png"" border=""10"">","null","trial","null","","0.2,0.8","2:nogo_b","0",""
"null","","html-keyboard-response","107","194676","0.0-4.0-2.22","","<div style=""font-size:60px;"">+</div>","null","","","","","","",""
"478","","image-keyboard-response","108","195154","0.0-4.0-0.23","","img/pink.png","32","trial","32","true","0.8,0.2","1:go_a","",""
"null","","html-keyboard-response","109","196164","0.0-4.0-1.23","","<img src=""img/pink-r.png"" border=""10"">","null","trial","32","","0.8,0.2","1:go_a","1",""
"null","","html-keyboard-response","110","197176","0.0-4.0-2.23","","<div style=""font-size:60px;"">+</div>","null","","","","","","",""
"617","","image-keyboard-response","111","197793","0.0-4.0-0.24","","img/pink.png","32","trial","32","true","0.8,0.2","1:go_a","",""
"null","","html-keyboard-response","112","198806","0.0-4.0-1.24","","<img src=""img/pink-r.png"" border=""10"">","null","trial","32","","0.8,0.2","1:go_a","1",""
"null","","html-keyboard-response","113","199811","0.0-4.0-2.24","","<div style=""font-size:60px;"">+</div>","null","","","","","","",""
"null","","image-keyboard-response","114","201315","0.0-4.0-0.25","","img/red.png","null","trial","null","true","0.2,0.8","2:nogo_b","",""
"null","","html-keyboard-response","115","202335","0.0-4.0-1.25","","<img src=""img/red-r.png"">","null","trial","null","","0.2,0.8","2:nogo_b","1",""
"null","","html-keyboard-response","116","203346","0.0-4.0-2.25","","<div style=""font-size:60px;"">+</div>","null","","","","","","",""
"null","","image-keyboard-response","117","204855","0.0-4.0-0.26","","img/red.png","null","trial","null","true","0.2,0.8","2:nogo_b","",""
"null","","html-keyboard-response","118","205876","0.0-4.0-1.26","","<img src=""img/red-r.png"">","null","trial","null","","0.2,0.8","2:nogo_b","1",""
"null","","html-keyboard-response","119","206885","0.0-4.0-2.26","","<div style=""font-size:60px;"">+</div>","null","","","","","","",""
"412","","image-keyboard-response","120","207297","0.0-4.0-0.27","","img/pink.png","32","trial","32","true","0.8,0.2","1:go_a","",""
"null","","html-keyboard-response","121","208305","0.0-4.0-1.27","","<img src=""img/pink-n.png"" border=""10"">","null","trial","32","","0.8,0.2","1:go_a","0",""
"null","","html-keyboard-response","122","209315","0.0-4.0-2.27","","<div style=""font-size:60px;"">+</div>","null","","","","","","",""
"null","","image-keyboard-response","123","210835","0.0-4.0-0.28","","img/red.png","null","trial","null","true","0.2,0.8","2:nogo_b","",""
"null","","html-keyboard-response","124","211845","0.0-4.0-1.28","","<img src=""img/red-r.png"">","null","trial","null","","0.2,0.8","2:nogo_b","1",""
"null","","html-keyboard-response","125","212855","0.0-4.0-2.28","","<div style=""font-size:60px;"">+</div>","null","","","","","","",""
"523","","image-keyboard-response","126","213377","0.0-4.0-0.29","","img/pink.png","32","trial","32","true","0.8,0.2","1:go_a","",""
"null","","html-keyboard-response","127","214395","0.0-4.0-1.29","","<img src=""img/pink-r.png"" border=""10"">","null","trial","32","","0.8,0.2","1:go_a","1",""
"null","","html-keyboard-response","128","215405","0.0-4.0-2.29","","<div style=""font-size:60px;"">+</div>","null","","","","","","",""
"644","","image-keyboard-response","129","216050","0.0-4.0-0.30","","img/pink.png","32","trial","32","true","0.8,0.2","1:go_a","",""
"null","","html-keyboard-response","130","217055","0.0-4.0-1.30","","<img src=""img/pink-n.png"" border=""10"">","null","trial","32","","0.8,0.2","1:go_a","0",""
"null","","html-keyboard-response","131","218066","0.0-4.0-2.30","","<div style=""font-size:60px;"">+</div>","null","","","","","","",""
"null","","image-keyboard-response","132","219575","0.0-4.0-0.31","","img/red.png","null","trial","null","true","0.2,0.8","2:nogo_b","",""
"null","","html-keyboard-response","133","220585","0.0-4.0-1.31","","<img src=""img/red-r.png"">","null","trial","null","","0.2,0.8","2:nogo_b","1",""
"null","","html-keyboard-response","134","221605","0.0-4.0-2.31","","<div style=""font-size:60px;"">+</div>","null","","","","","","",""
"null","","image-keyboard-response","135","223115","0.0-4.0-0.32","","img/red.png","null","trial","null","true","0.2,0.8","2:nogo_b","",""
"null","","html-keyboard-response","136","224125","0.0-4.0-1.32","","<img src=""img/red-r.png"">","null","trial","null","","0.2,0.8","2:nogo_b","1",""
"null","","html-keyboard-response","137","225135","0.0-4.0-2.32","","<div style=""font-size:60px;"">+</div>","null","","","","","","",""
"513","","image-keyboard-response","138","225649","0.0-4.0-0.33","","img/pink.png","32","trial","32","true","0.8,0.2","1:go_a","",""
"null","","html-keyboard-response","139","226655","0.0-4.0-1.33","","<img src=""img/pink-r.png"" border=""10"">","null","trial","32","","0.8,0.2","1:go_a","1",""
"null","","html-keyboard-response","140","227675","0.0-4.0-2.33","","<div style=""font-size:60px;"">+</div>","null","","","","","","",""
"565","","image-keyboard-response","141","228241","0.0-4.0-0.34","","img/red.png","32","trial","null","false","0.2,0.8","2:nogo_b","",""
"null","","html-keyboard-response","142","229245","0.0-4.0-1.34","","<img src=""img/red-n.png"" border=""10"">","null","trial","null","","0.2,0.8","2:nogo_b","0",""
"null","","html-keyboard-response","143","230255","0.0-4.0-2.34","","<div style=""font-size:60px;"">+</div>","null","","","","","","",""
"514","","image-keyboard-response","144","230769","0.0-4.0-0.35","","img/pink.png","32","trial","32","true","0.8,0.2","1:go_a","",""
"null","","html-keyboard-response","145","231786","0.0-4.0-1.35","","<img src=""img/pink-n.png"" border=""10"">","null","trial","32","","0.8,0.2","1:go_a","0",""
"null","","html-keyboard-response","146","232795","0.0-4.0-2.35","","<div style=""font-size:60px;"">+</div>","null","","","","","","",""
"742","","image-keyboard-response","147","233538","0.0-4.0-0.36","","img/red.png","32","trial","null","false","0.2,0.8","2:nogo_b","",""
"null","","html-keyboard-response","148","234545","0.0-4.0-1.36","","<img src=""img/red-n.png"" border=""10"">","null","trial","null","","0.2,0.8","2:nogo_b","0",""
"null","","html-keyboard-response","149","235555","0.0-4.0-2.36","","<div style=""font-size:60px;"">+</div>","null","","","","","","",""
"493","","image-keyboard-response","150","236049","0.0-4.0-0.37","","img/pink.png","32","trial","32","true","0.8,0.2","1:go_a","",""
"null","","html-keyboard-response","151","237055","0.0-4.0-1.37","","<img src=""img/pink-r.png"" border=""10"">","null","trial","32","","0.8,0.2","1:go_a","1",""
"null","","html-keyboard-response","152","238062","0.0-4.0-2.37","","<div style=""font-size:60px;"">+</div>","null","","","","","","",""
"500","","image-keyboard-response","153","238561","0.0-4.0-0.38","","img/pink.png","32","trial","32","true","0.8,0.2","1:go_a","",""
"null","","html-keyboard-response","154","239570","0.0-4.0-1.38","","<img src=""img/pink-n.png"" border=""10"">","null","trial","32","","0.8,0.2","1:go_a","0",""
"null","","html-keyboard-response","155","240585","0.0-4.0-2.38","","<div style=""font-size:60px;"">+</div>","null","","","","","","",""
"null","","image-keyboard-response","156","242095","0.0-4.0-0.39","","img/red.png","null","trial","null","true","0.2,0.8","2:nogo_b","",""
"null","","html-keyboard-response","157","243115","0.0-4.0-1.39","","<img src=""img/red-r.png"">","null","trial","null","","0.2,0.8","2:nogo_b","1",""
"null","","html-keyboard-response","158","244125","0.0-4.0-2.39","","<div style=""font-size:60px;"">+</div>","null","","","","","","",""
"517","","image-keyboard-response","159","244641","0.0-4.0-0.40","","img/pink.png","32","trial","32","true","0.8,0.2","1:go_a","",""
"null","","html-keyboard-response","160","245655","0.0-4.0-1.40","","<img src=""img/pink-n.png"" border=""10"">","null","trial","32","","0.8,0.2","1:go_a","0",""
"null","","html-keyboard-response","161","246664","0.0-4.0-2.40","","<div style=""font-size:60px;"">+</div>","null","","","","","","",""
"null","","image-keyboard-response","162","248175","0.0-4.0-0.41","","img/red.png","null","trial","null","true","0.2,0.8","2:nogo_b","",""
"null","","html-keyboard-response","163","249186","0.0-4.0-1.41","","<img src=""img/red-r.png"">","null","trial","null","","0.2,0.8","2:nogo_b","1",""
"null","","html-keyboard-response","164","250200","0.0-4.0-2.41","","<div style=""font-size:60px;"">+</div>","null","","","","","","",""
"null","","image-keyboard-response","165","251705","0.0-4.0-0.42","","img/red.png","null","trial","null","true","0.2,0.8","2:nogo_b","",""
"null","","html-keyboard-response","166","252725","0.0-4.0-1.42","","<img src=""img/red-n.png"">","null","trial","null","","0.2,0.8","2:nogo_b","0",""
"null","","html-keyboard-response","167","253745","0.0-4.0-2.42","","<div style=""font-size:60px;"">+</div>","null","","","","","","",""
"511","","image-keyboard-response","168","254257","0.0-4.0-0.43","","img/pink.png","32","trial","32","true","0.8,0.2","1:go_a","",""
"null","","html-keyboard-response","169","255265","0.0-4.0-1.43","","<img src=""img/pink-n.png"" border=""10"">","null","trial","32","","0.8,0.2","1:go_a","0",""
"null","","html-keyboard-response","170","256273","0.0-4.0-2.43","","<div style=""font-size:60px;"">+</div>","null","","","","","","",""
"null","","image-keyboard-response","171","257785","0.0-4.0-0.44","","img/red.png","null","trial","null","true","0.2,0.8","2:nogo_b","",""
"null","","html-keyboard-response","172","258795","0.0-4.0-1.44","","<img src=""img/red-r.png"">","null","trial","null","","0.2,0.8","2:nogo_b","1",""
"null","","html-keyboard-response","173","259807","0.0-4.0-2.44","","<div style=""font-size:60px;"">+</div>","null","","","","","","",""
"530","","image-keyboard-response","174","260338","0.0-4.0-0.45","","img/pink.png","32","trial","32","true","0.8,0.2","1:go_a","",""
"null","","html-keyboard-response","175","261345","0.0-4.0-1.45","","<img src=""img/pink-n.png"" border=""10"">","null","trial","32","","0.8,0.2","1:go_a","0",""
"null","","html-keyboard-response","176","262356","0.0-4.0-2.45","","<div style=""font-size:60px;"">+</div>","null","","","","","","",""
"540","","image-keyboard-response","177","262897","0.0-4.0-0.46","","img/red.png","32","trial","null","false","0.2,0.8","2:nogo_b","",""
"null","","html-keyboard-response","178","263905","0.0-4.0-1.46","","<img src=""img/red-n.png"" border=""10"">","null","trial","null","","0.2,0.8","2:nogo_b","0",""
"null","","html-keyboard-response","179","264925","0.0-4.0-2.46","","<div style=""font-size:60px;"">+</div>","null","","","","","","",""
"548","","image-keyboard-response","180","265473","0.0-4.0-0.47","","img/pink.png","32","trial","32","true","0.8,0.2","1:go_a","",""
"null","","html-keyboard-response","181","266474","0.0-4.0-1.47","","<img src=""img/pink-r.png"" border=""10"">","null","trial","32","","0.8,0.2","1:go_a","1",""
"null","","html-keyboard-response","182","267485","0.0-4.0-2.47","","<div style=""font-size:60px;"">+</div>","null","","","","","","",""
"null","","image-keyboard-response","183","269005","0.0-4.0-0.48","","img/red.png","null","trial","null","true","0.2,0.8","2:nogo_b","",""
"null","","html-keyboard-response","184","270015","0.0-4.0-1.48","","<img src=""img/red-r.png"">","null","trial","null","","0.2,0.8","2:nogo_b","1",""
"null","","html-keyboard-response","185","271035","0.0-4.0-2.48","","<div style=""font-size:60px;"">+</div>","null","","","","","","",""
"471","","image-keyboard-response","186","271505","0.0-4.0-0.49","","img/pink.png","32","trial","32","true","0.8,0.2","1:go_a","",""
"null","","html-keyboard-response","187","272510","0.0-4.0-1.49","","<img src=""img/pink-n.png"" border=""10"">","null","trial","32","","0.8,0.2","1:go_a","0",""
"null","","html-keyboard-response","188","273515","0.0-4.0-2.49","","<div style=""font-size:60px;"">+</div>","null","","","","","","",""
"629","","image-keyboard-response","189","274145","0.0-4.0-0.50","","img/pink.png","32","trial","32","true","0.8,0.2","1:go_a","",""
"null","","html-keyboard-response","190","275165","0.0-4.0-1.50","","<img src=""img/pink-r.png"" border=""10"">","null","trial","32","","0.8,0.2","1:go_a","1",""
"null","","html-keyboard-response","191","276174","0.0-4.0-2.50","","<div style=""font-size:60px;"">+</div>","null","","","","","","",""
"null","","image-keyboard-response","192","277685","0.0-4.0-0.51","","img/red.png","null","trial","null","true","0.2,0.8","2:nogo_b","",""
"null","","html-keyboard-response","193","278695","0.0-4.0-1.51","","<img src=""img/red-n.png"">","null","trial","null","","0.2,0.8","2:nogo_b","0",""
"null","","html-keyboard-response","194","279715","0.0-4.0-2.51","","<div style=""font-size:60px;"">+</div>","null","","","","","","",""
"542","","image-keyboard-response","195","280257","0.0-4.0-0.52","","img/pink.png","32","trial","32","true","0.8,0.2","1:go_a","",""
"null","","html-keyboard-response","196","281270","0.0-4.0-1.52","","<img src=""img/pink-r.png"" border=""10"">","null","trial","32","","0.8,0.2","1:go_a","1",""
"null","","html-keyboard-response","197","282275","0.0-4.0-2.52","","<div style=""font-size:60px;"">+</div>","null","","","","","","",""
"669","","image-keyboard-response","198","282945","0.0-4.0-0.53","","img/red.png","32","trial","null","false","0.2,0.8","2:nogo_b","",""
"null","","html-keyboard-response","199","283965","0.0-4.0-1.53","","<img src=""img/red-n.png"" border=""10"">","null","trial","null","","0.2,0.8","2:nogo_b","0",""
"null","","html-keyboard-response","200","284975","0.0-4.0-2.53","","<div style=""font-size:60px;"">+</div>","null","","","","","","",""
"466","","image-keyboard-response","201","285441","0.0-4.0-0.54","","img/pink.png","32","trial","32","true","0.8,0.2","1:go_a","",""
"null","","html-keyboard-response","202","286450","0.0-4.0-1.54","","<img src=""img/pink-r.png"" border=""10"">","null","trial","32","","0.8,0.2","1:go_a","1",""
"null","","html-keyboard-response","203","287464","0.0-4.0-2.54","","<div style=""font-size:60px;"">+</div>","null","","","","","","",""
"null","","image-keyboard-response","204","288974","0.0-4.0-0.55","","img/red.png","null","trial","null","true","0.2,0.8","2:nogo_b","",""
"null","","html-keyboard-response","205","289985","0.0-4.0-1.55","","<img src=""img/red-r.png"">","null","trial","null","","0.2,0.8","2:nogo_b","1",""
"null","","html-keyboard-response","206","291004","0.0-4.0-2.55","","<div style=""font-size:60px;"">+</div>","null","","","","","","",""
"628","","image-keyboard-response","207","291633","0.0-4.0-0.56","","img/pink.png","32","trial","32","true","0.8,0.2","1:go_a","",""
"null","","html-keyboard-response","208","292635","0.0-4.0-1.56","","<img src=""img/pink-r.png"" border=""10"">","null","trial","32","","0.8,0.2","1:go_a","1",""
"null","","html-keyboard-response","209","293640","0.0-4.0-2.56","","<div style=""font-size:60px;"">+</div>","null","","","","","","",""
"null","","image-keyboard-response","210","295154","0.0-4.0-0.57","","img/red.png","null","trial","null","true","0.2,0.8","2:nogo_b","",""
"null","","html-keyboard-response","211","296165","0.0-4.0-1.57","","<img src=""img/red-r.png"">","null","trial","null","","0.2,0.8","2:nogo_b","1",""
"null","","html-keyboard-response","212","297185","0.0-4.0-2.57","","<div style=""font-size:60px;"">+</div>","null","","","","","","",""
"399","","image-keyboard-response","213","297585","0.0-4.0-0.58","","img/pink.png","32","trial","32","true","0.8,0.2","1:go_a","",""
"null","","html-keyboard-response","214","298595","0.0-4.0-1.58","","<img src=""img/pink-r.png"" border=""10"">","null","trial","32","","0.8,0.2","1:go_a","1",""
"null","","html-keyboard-response","215","299604","0.0-4.0-2.58","","<div style=""font-size:60px;"">+</div>","null","","","","","","",""
"588","","image-keyboard-response","216","300193","0.0-4.0-0.59","","img/red.png","32","trial","null","false","0.2,0.8","2:nogo_b","",""
"null","","html-keyboard-response","217","301204","0.0-4.0-1.59","","<img src=""img/red-r.png"" border=""10"">","null","trial","null","","0.2,0.8","2:nogo_b","1",""
"null","","html-keyboard-response","218","302224","0.0-4.0-2.59","","<div style=""font-size:60px;"">+</div>","null","","","","","","",""
"2773","","instructions","219","304998","0.0-5.0","[{""page_index"":0,""viewing_time"":2772}]","","","","","","","","",""
"1354","","image-keyboard-response","220","306352","0.0-6.0-0.0","","img/grey.png","32","trial","null","false","0,1","4:nogo_d","",""
"null","","html-keyboard-response","221","307364","0.0-6.0-1.0","","<img src=""img/grey-n.png"" border=""10"">","null","trial","null","","0,1","4:nogo_d","0",""
"null","","html-keyboard-response","222","308374","0.0-6.0-2.0","","<div style=""font-size:60px;"">+</div>","null","","","","","","",""
"553","","image-keyboard-response","223","308928","0.0-6.0-0.1","","img/blue.png","32","trial","32","true","0.8,0.2","1:go_a","",""
"null","","html-keyboard-response","224","309934","0.0-6.0-1.1","","<img src=""img/blue-r.png"" border=""10"">","null","trial","32","","0.8,0.2","1:go_a","1",""
"null","","html-keyboard-response","225","310943","0.0-6.0-2.1","","<div style=""font-size:60px;"">+</div>","null","","","","","","",""
"850","","image-keyboard-response","226","311793","0.0-6.0-0.2","","img/purple.png","32","trial","null","false","0.2,0.8","2:nogo_b","",""
"null","","html-keyboard-response","227","312794","0.0-6.0-1.2","","<img src=""img/purple-n.png"" border=""10"">","null","trial","null","","0.2,0.8","2:nogo_b","0",""
"null","","html-keyboard-response","228","313814","0.0-6.0-2.2","","<div style=""font-size:60px;"">+</div>","null","","","","","","",""
"602","","image-keyboard-response","229","314416","0.0-6.0-0.3","","img/orange.png","32","trial","32","true","1,0","3:go_c","",""
"null","","html-keyboard-response","230","315425","0.0-6.0-1.3","","<img src=""img/orange-r.png"" border=""10"">","null","trial","32","","1,0","3:go_c","1",""
"null","","html-keyboard-response","231","316435","0.0-6.0-2.3","","<div style=""font-size:60px;"">+</div>","null","","","","","","",""
"637","","image-keyboard-response","232","317072","0.0-6.0-0.4","","img/grey.png","32","trial","null","false","0,1","4:nogo_d","",""
"null","","html-keyboard-response","233","318084","0.0-6.0-1.4","","<img src=""img/grey-n.png"" border=""10"">","null","trial","null","","0,1","4:nogo_d","0",""
"null","","html-keyboard-response","234","319095","0.0-6.0-2.4","","<div style=""font-size:60px;"">+</div>","null","","","","","","",""
"473","","image-keyboard-response","235","319568","0.0-6.0-0.5","","img/blue.png","32","trial","32","true","0.8,0.2","1:go_a","",""
"null","","html-keyboard-response","236","320574","0.0-6.0-1.5","","<img src=""img/blue-r.png"" border=""10"">","null","trial","32","","0.8,0.2","1:go_a","1",""
"null","","html-keyboard-response","237","321585","0.0-6.0-2.5","","<div style=""font-size:60px;"">+</div>","null","","","","","","",""
"null","","image-keyboard-response","238","323094","0.0-6.0-0.6","","img/purple.png","null","trial","null","true","0.2,0.8","2:nogo_b","",""
"null","","html-keyboard-response","239","324104","0.0-6.0-1.6","","<img src=""img/purple-r.png"">","null","trial","null","","0.2,0.8","2:nogo_b","1",""
"null","","html-keyboard-response","240","325124","0.0-6.0-2.6","","<div style=""font-size:60px;"">+</div>","null","","","","","","",""
"412","","image-keyboard-response","241","325536","0.0-6.0-0.7","","img/orange.png","32","trial","32","true","1,0","3:go_c","",""
"null","","html-keyboard-response","242","326549","0.0-6.0-1.7","","<img src=""img/orange-r.png"" border=""10"">","null","trial","32","","1,0","3:go_c","1",""
"null","","html-keyboard-response","243","327564","0.0-6.0-2.7","","<div style=""font-size:60px;"">+</div>","null","","","","","","",""
"468","","image-keyboard-response","244","328032","0.0-6.0-0.8","","img/blue.png","32","trial","32","true","0.8,0.2","1:go_a","",""
"null","","html-keyboard-response","245","329034","0.0-6.0-1.8","","<img src=""img/blue-r.png"" border=""10"">","null","trial","32","","0.8,0.2","1:go_a","1",""
"null","","html-keyboard-response","246","330054","0.0-6.0-2.8","","<div style=""font-size:60px;"">+</div>","null","","","","","","",""
"null","","image-keyboard-response","247","331564","0.0-6.0-0.9","","img/purple.png","null","trial","null","true","0.2,0.8","2:nogo_b","",""
"null","","html-keyboard-response","248","332574","0.0-6.0-1.9","","<img src=""img/purple-n.png"">","null","trial","null","","0.2,0.8","2:nogo_b","0",""
"null","","html-keyboard-response","249","333586","0.0-6.0-2.9","","<div style=""font-size:60px;"">+</div>","null","","","","","","",""
"null","","image-keyboard-response","250","335094","0.0-6.0-0.10","","img/grey.png","null","trial","null","true","0,1","4:nogo_d","",""
"null","","html-keyboard-response","251","336114","0.0-6.0-1.10","","<img src=""img/grey-r.png"">","null","trial","null","","0,1","4:nogo_d","1",""
"null","","html-keyboard-response","252","337134","0.0-6.0-2.10","","<div style=""font-size:60px;"">+</div>","null","","","","","","",""
"402","","image-keyboard-response","253","337537","0.0-6.0-0.11","","img/orange.png","32","trial","32","true","1,0","3:go_c","",""
"null","","html-keyboard-response","254","338554","0.0-6.0-1.11","","<img src=""img/orange-r.png"" border=""10"">","null","trial","32","","1,0","3:go_c","1",""
"null","","html-keyboard-response","255","339574","0.0-6.0-2.11","","<div style=""font-size:60px;"">+</div>","null","","","","","","",""
"521","","image-keyboard-response","256","340096","0.0-6.0-0.12","","img/blue.png","32","trial","32","true","0.8,0.2","1:go_a","",""
"null","","html-keyboard-response","257","341104","0.0-6.0-1.12","","<img src=""img/blue-r.png"" border=""10"">","null","trial","32","","0.8,0.2","1:go_a","1",""
"null","","html-keyboard-response","258","342114","0.0-6.0-2.12","","<div style=""font-size:60px;"">+</div>","null","","","","","","",""
"654","","image-keyboard-response","259","342768","0.0-6.0-0.13","","img/orange.png","32","trial","32","true","1,0","3:go_c","",""
"null","","html-keyboard-response","260","343785","0.0-6.0-1.13","","<img src=""img/orange-r.png"" border=""10"">","null","trial","32","","1,0","3:go_c","1",""
"null","","html-keyboard-response","261","344804","0.0-6.0-2.13","","<div style=""font-size:60px;"">+</div>","null","","","","","","",""
"null","","image-keyboard-response","262","346324","0.0-6.0-0.14","","img/grey.png","null","trial","null","true","0,1","4:nogo_d","",""
"null","","html-keyboard-response","263","347335","0.0-6.0-1.14","","<img src=""img/grey-r.png"">","null","trial","null","","0,1","4:nogo_d","1",""
"null","","html-keyboard-response","264","348344","0.0-6.0-2.14","","<div style=""font-size:60px;"">+</div>","null","","","","","","",""
"null","","image-keyboard-response","265","349849","0.0-6.0-0.15","","img/purple.png","null","trial","null","true","0.2,0.8","2:nogo_b","",""
"null","","html-keyboard-response","266","350864","0.0-6.0-1.15","","<img src=""img/purple-r.png"">","null","trial","null","","0.2,0.8","2:nogo_b","1",""
"null","","html-keyboard-response","267","351874","0.0-6.0-2.15","","<div style=""font-size:60px;"">+</div>","null","","","","","","",""
"null","","image-keyboard-response","268","353379","0.0-6.0-0.16","","img/grey.png","null","trial","null","true","0,1","4:nogo_d","",""
"null","","html-keyboard-response","269","354384","0.0-6.0-1.16","","<img src=""img/grey-r.png"">","null","trial","null","","0,1","4:nogo_d","1",""
"null","","html-keyboard-response","270","355394","0.0-6.0-2.16","","<div style=""font-size:60px;"">+</div>","null","","","","","","",""
"null","","image-keyboard-response","271","356904","0.0-6.0-0.17","","img/purple.png","null","trial","null","true","0.2,0.8","2:nogo_b","",""
"null","","html-keyboard-response","272","357924","0.0-6.0-1.17","","<img src=""img/purple-r.png"">","null","trial","null","","0.2,0.8","2:nogo_b","1",""
"null","","html-keyboard-response","273","358934","0.0-6.0-2.17","","<div style=""font-size:60px;"">+</div>","null","","","","","","",""
"537","","image-keyboard-response","274","359472","0.0-6.0-0.18","","img/orange.png","32","trial","32","true","1,0","3:go_c","",""
"null","","html-keyboard-response","275","360484","0.0-6.0-1.18","","<img src=""img/orange-r.png"" border=""10"">","null","trial","32","","1,0","3:go_c","1",""
"null","","html-keyboard-response","276","361499","0.0-6.0-2.18","","<div style=""font-size:60px;"">+</div>","null","","","","","","",""
"500","","image-keyboard-response","277","361999","0.0-6.0-0.19","","img/blue.png","32","trial","32","true","0.8,0.2","1:go_a","",""
"null","","html-keyboard-response","278","363024","0.0-6.0-1.19","","<img src=""img/blue-r.png"" border=""10"">","null","trial","32","","0.8,0.2","1:go_a","1",""
"null","","html-keyboard-response","279","364044","0.0-6.0-2.19","","<div style=""font-size:60px;"">+</div>","null","","","","","","",""
"483","","image-keyboard-response","280","364528","0.0-6.0-0.20","","img/blue.png","32","trial","32","true","0.8,0.2","1:go_a","",""
"null","","html-keyboard-response","281","365544","0.0-6.0-1.20","","<img src=""img/blue-n.png"" border=""10"">","null","trial","32","","0.8,0.2","1:go_a","0",""
"null","","html-keyboard-response","282","366550","0.0-6.0-2.20","","<div style=""font-size:60px;"">+</div>","null","","","","","","",""
"658","","image-keyboard-response","283","367208","0.0-6.0-0.21","","img/grey.png","32","trial","null","false","0,1","4:nogo_d","",""
"null","","html-keyboard-response","284","368214","0.0-6.0-1.21","","<img src=""img/grey-n.png"" border=""10"">","null","trial","null","","0,1","4:nogo_d","0",""
"null","","html-keyboard-response","285","369223","0.0-6.0-2.21","","<div style=""font-size:60px;"">+</div>","null","","","","","","",""
"550","","image-keyboard-response","286","369775","0.0-6.0-0.22","","img/orange.png","32","trial","32","true","1,0","3:go_c","",""
"null","","html-keyboard-response","287","370794","0.0-6.0-1.22","","<img src=""img/orange-r.png"" border=""10"">","null","trial","32","","1,0","3:go_c","1",""
"null","","html-keyboard-response","288","371804","0.0-6.0-2.22","","<div style=""font-size:60px;"">+</div>","null","","","","","","",""
"531","","image-keyboard-response","289","372336","0.0-6.0-0.23","","img/purple.png","32","trial","null","false","0.2,0.8","2:nogo_b","",""
"null","","html-keyboard-response","290","373354","0.0-6.0-1.23","","<img src=""img/purple-r.png"" border=""10"">","null","trial","null","","0.2,0.8","2:nogo_b","1",""
"null","","html-keyboard-response","291","374374","0.0-6.0-2.23","","<div style=""font-size:60px;"">+</div>","null","","","","","","",""
"681","","image-keyboard-response","292","375056","0.0-6.0-0.24","","img/purple.png","32","trial","null","false","0.2,0.8","2:nogo_b","",""
"null","","html-keyboard-response","293","376064","0.0-6.0-1.24","","<img src=""img/purple-n.png"" border=""10"">","null","trial","null","","0.2,0.8","2:nogo_b","0",""
"null","","html-keyboard-response","294","377074","0.0-6.0-2.24","","<div style=""font-size:60px;"">+</div>","null","","","","","","",""
"542","","image-keyboard-response","295","377616","0.0-6.0-0.25","","img/orange.png","32","trial","32","true","1,0","3:go_c","",""
"null","","html-keyboard-response","296","378624","0.0-6.0-1.25","","<img src=""img/orange-r.png"" border=""10"">","null","trial","32","","1,0","3:go_c","1",""
"null","","html-keyboard-response","297","379634","0.0-6.0-2.25","","<div style=""font-size:60px;"">+</div>","null","","","","","","",""
"542","","image-keyboard-response","298","380176","0.0-6.0-0.26","","img/blue.png","32","trial","32","true","0.8,0.2","1:go_a","",""
"null","","html-keyboard-response","299","381184","0.0-6.0-1.26","","<img src=""img/blue-r.png"" border=""10"">","null","trial","32","","0.8,0.2","1:go_a","1",""
"null","","html-keyboard-response","300","382194","0.0-6.0-2.26","","<div style=""font-size:60px;"">+</div>","null","","","","","","",""
"null","","image-keyboard-response","301","383703","0.0-6.0-0.27","","img/grey.png","null","trial","null","true","0,1","4:nogo_d","",""
"null","","html-keyboard-response","302","384703","0.0-6.0-1.27","","<img src=""img/grey-r.png"">","null","trial","null","","0,1","4:nogo_d","1",""
"null","","html-keyboard-response","303","385714","0.0-6.0-2.27","","<div style=""font-size:60px;"">+</div>","null","","","","","","",""
"445","","image-keyboard-response","304","386160","0.0-6.0-0.28","","img/blue.png","32","trial","32","true","0.8,0.2","1:go_a","",""
"null","","html-keyboard-response","305","387163","0.0-6.0-1.28","","<img src=""img/blue-r.png"" border=""10"">","null","trial","32","","0.8,0.2","1:go_a","1",""
"null","","html-keyboard-response","306","388184","0.0-6.0-2.28","","<div style=""font-size:60px;"">+</div>","null","","","","","","",""
"null","","image-keyboard-response","307","389704","0.0-6.0-0.29","","img/grey.png","null","trial","null","true","0,1","4:nogo_d","",""
"null","","html-keyboard-response","308","390724","0.0-6.0-1.29","","<img src=""img/grey-r.png"">","null","trial","null","","0,1","4:nogo_d","1",""
"null","","html-keyboard-response","309","391733","0.0-6.0-2.29","","<div style=""font-size:60px;"">+</div>","null","","","","","","",""
"489","","image-keyboard-response","310","392224","0.0-6.0-0.30","","img/orange.png","32","trial","32","true","1,0","3:go_c","",""
"null","","html-keyboard-response","311","393244","0.0-6.0-1.30","","<img src=""img/orange-r.png"" border=""10"">","null","trial","32","","1,0","3:go_c","1",""
"null","","html-keyboard-response","312","394254","0.0-6.0-2.30","","<div style=""font-size:60px;"">+</div>","null","","","","","","",""
"null","","image-keyboard-response","313","395774","0.0-6.0-0.31","","img/purple.png","null","trial","null","true","0.2,0.8","2:nogo_b","",""
"null","","html-keyboard-response","314","396794","0.0-6.0-1.31","","<img src=""img/purple-r.png"">","null","trial","null","","0.2,0.8","2:nogo_b","1",""
"null","","html-keyboard-response","315","397814","0.0-6.0-2.31","","<div style=""font-size:60px;"">+</div>","null","","","","","","",""
"858","","image-keyboard-response","316","398671","0.0-6.0-0.32","","img/grey.png","32","trial","null","false","0,1","4:nogo_d","",""
"null","","html-keyboard-response","317","399683","0.0-6.0-1.32","","<img src=""img/grey-n.png"" border=""10"">","null","trial","null","","0,1","4:nogo_d","0",""
"null","","html-keyboard-response","318","400694","0.0-6.0-2.32","","<div style=""font-size:60px;"">+</div>","null","","","","","","",""
"458","","image-keyboard-response","319","401152","0.0-6.0-0.33","","img/blue.png","32","trial","32","true","0.8,0.2","1:go_a","",""
"null","","html-keyboard-response","320","402153","0.0-6.0-1.33","","<img src=""img/blue-r.png"" border=""10"">","null","trial","32","","0.8,0.2","1:go_a","1",""
"null","","html-keyboard-response","321","403159","0.0-6.0-2.33","","<div style=""font-size:60px;"">+</div>","null","","","","","","",""
"392","","image-keyboard-response","322","403552","0.0-6.0-0.34","","img/orange.png","32","trial","32","true","1,0","3:go_c","",""
"null","","html-keyboard-response","323","404560","0.0-6.0-1.34","","<img src=""img/orange-r.png"" border=""10"">","null","trial","32","","1,0","3:go_c","1",""
"null","","html-keyboard-response","324","405574","0.0-6.0-2.34","","<div style=""font-size:60px;"">+</div>","null","","","","","","",""
"714","","image-keyboard-response","325","406288","0.0-6.0-0.35","","img/purple.png","32","trial","null","false","0.2,0.8","2:nogo_b","",""
"null","","html-keyboard-response","326","407303","0.0-6.0-1.35","","<img src=""img/purple-r.png"" border=""10"">","null","trial","null","","0.2,0.8","2:nogo_b","1",""
"null","","html-keyboard-response","327","408323","0.0-6.0-2.35","","<div style=""font-size:60px;"">+</div>","null","","","","","","",""
"540","","image-keyboard-response","328","408864","0.0-6.0-0.36","","img/purple.png","32","trial","null","false","0.2,0.8","2:nogo_b","",""
"null","","html-keyboard-response","329","409873","0.0-6.0-1.36","","<img src=""img/purple-r.png"" border=""10"">","null","trial","null","","0.2,0.8","2:nogo_b","1",""
"null","","html-keyboard-response","330","410884","0.0-6.0-2.36","","<div style=""font-size:60px;"">+</div>","null","","","","","","",""
"523","","image-keyboard-response","331","411407","0.0-6.0-0.37","","img/blue.png","32","trial","32","true","0.8,0.2","1:go_a","",""
"null","","html-keyboard-response","332","412414","0.0-6.0-1.37","","<img src=""img/blue-r.png"" border=""10"">","null","trial","32","","0.8,0.2","1:go_a","1",""
"null","","html-keyboard-response","333","413423","0.0-6.0-2.37","","<div style=""font-size:60px;"">+</div>","null","","","","","","",""
"720","","image-keyboard-response","334","414144","0.0-6.0-0.38","","img/grey.png","32","trial","null","false","0,1","4:nogo_d","",""
"null","","html-keyboard-response","335","415153","0.0-6.0-1.38","","<img src=""img/grey-n.png"" border=""10"">","null","trial","null","","0,1","4:nogo_d","0",""
"null","","html-keyboard-response","336","416173","0.0-6.0-2.38","","<div style=""font-size:60px;"">+</div>","null","","","","","","",""
"482","","image-keyboard-response","337","416656","0.0-6.0-0.39","","img/orange.png","32","trial","32","true","1,0","3:go_c","",""
"null","","html-keyboard-response","338","417664","0.0-6.0-1.39","","<img src=""img/orange-r.png"" border=""10"">","null","trial","32","","1,0","3:go_c","1",""
"null","","html-keyboard-response","339","418673","0.0-6.0-2.39","","<div style=""font-size:60px;"">+</div>","null","","","","","","",""
"430","","image-keyboard-response","340","419105","0.0-6.0-0.40","","img/blue.png","32","trial","32","true","0.8,0.2","1:go_a","",""
"null","","html-keyboard-response","341","420114","0.0-6.0-1.40","","<img src=""img/blue-n.png"" border=""10"">","null","trial","32","","0.8,0.2","1:go_a","0",""
"null","","html-keyboard-response","342","421124","0.0-6.0-2.40","","<div style=""font-size:60px;"">+</div>","null","","","","","","",""
"874","","image-keyboard-response","343","421999","0.0-6.0-0.41","","img/grey.png","32","trial","null","false","0,1","4:nogo_d","",""
"null","","html-keyboard-response","344","423014","0.0-6.0-1.41","","<img src=""img/grey-n.png"" border=""10"">","null","trial","null","","0,1","4:nogo_d","0",""
"null","","html-keyboard-response","345","424023","0.0-6.0-2.41","","<div style=""font-size:60px;"">+</div>","null","","","","","","",""
"456","","image-keyboard-response","346","424479","0.0-6.0-0.42","","img/orange.png","32","trial","32","true","1,0","3:go_c","",""
"null","","html-keyboard-response","347","425493","0.0-6.0-1.42","","<img src=""img/orange-r.png"" border=""10"">","null","trial","32","","1,0","3:go_c","1",""
"null","","html-keyboard-response","348","426513","0.0-6.0-2.42","","<div style=""font-size:60px;"">+</div>","null","","","","","","",""
"null","","image-keyboard-response","349","428023","0.0-6.0-0.43","","img/purple.png","null","trial","null","true","0.2,0.8","2:nogo_b","",""
"null","","html-keyboard-response","350","429034","0.0-6.0-1.43","","<img src=""img/purple-r.png"">","null","trial","null","","0.2,0.8","2:nogo_b","1",""
"null","","html-keyboard-response","351","430043","0.0-6.0-2.43","","<div style=""font-size:60px;"">+</div>","null","","","","","","",""
"483","","image-keyboard-response","352","430528","0.0-6.0-0.44","","img/orange.png","32","trial","32","true","1,0","3:go_c","",""
"null","","html-keyboard-response","353","431543","0.0-6.0-1.44","","<img src=""img/orange-r.png"" border=""10"">","null","trial","32","","1,0","3:go_c","1",""
"null","","html-keyboard-response","354","432560","0.0-6.0-2.44","","<div style=""font-size:60px;"">+</div>","null","","","","","","",""
"null","","image-keyboard-response","355","434073","0.0-6.0-0.45","","img/grey.png","null","trial","null","true","0,1","4:nogo_d","",""
"null","","html-keyboard-response","356","435094","0.0-6.0-1.45","","<img src=""img/grey-r.png"">","null","trial","null","","0,1","4:nogo_d","1",""
"null","","html-keyboard-response","357","436103","0.0-6.0-2.45","","<div style=""font-size:60px;"">+</div>","null","","","","","","",""
"null","","image-keyboard-response","358","437613","0.0-6.0-0.46","","img/purple.png","null","trial","null","true","0.2,0.8","2:nogo_b","",""
"null","","html-keyboard-response","359","438623","0.0-6.0-1.46","","<img src=""img/purple-n.png"">","null","trial","null","","0.2,0.8","2:nogo_b","0",""
"null","","html-keyboard-response","360","439634","0.0-6.0-2.46","","<div style=""font-size:60px;"">+</div>","null","","","","","","",""
"509","","image-keyboard-response","361","440144","0.0-6.0-0.47","","img/blue.png","32","trial","32","true","0.8,0.2","1:go_a","",""
"null","","html-keyboard-response","362","441153","0.0-6.0-1.47","","<img src=""img/blue-n.png"" border=""10"">","null","trial","32","","0.8,0.2","1:go_a","0",""
"null","","html-keyboard-response","363","442173","0.0-6.0-2.47","","<div style=""font-size:60px;"">+</div>","null","","","","","","",""
"657","","image-keyboard-response","364","442831","0.0-6.0-0.48","","img/grey.png","32","trial","null","false","0,1","4:nogo_d","",""
"null","","html-keyboard-response","365","443833","0.0-6.0-1.48","","<img src=""img/grey-n.png"" border=""10"">","null","trial","null","","0,1","4:nogo_d","0",""
"null","","html-keyboard-response","366","444853","0.0-6.0-2.48","","<div style=""font-size:60px;"">+</div>","null","","","","","","",""
"778","","image-keyboard-response","367","445632","0.0-6.0-0.49","","img/purple.png","32","trial","null","false","0.2,0.8","2:nogo_b","",""
"null","","html-keyboard-response","368","446643","0.0-6.0-1.49","","<img src=""img/purple-n.png"" border=""10"">","null","trial","null","","0.2,0.8","2:nogo_b","0",""
"null","","html-keyboard-response","369","447654","0.0-6.0-2.49","","<div style=""font-size:60px;"">+</div>","null","","","","","","",""
"457","","image-keyboard-response","370","448111","0.0-6.0-0.50","","img/orange.png","32","trial","32","true","1,0","3:go_c","",""
"null","","html-keyboard-response","371","449113","0.0-6.0-1.50","","<img src=""img/orange-r.png"" border=""10"">","null","trial","32","","1,0","3:go_c","1",""
"null","","html-keyboard-response","372","450123","0.0-6.0-2.50","","<div style=""font-size:60px;"">+</div>","null","","","","","","",""
"564","","image-keyboard-response","373","450687","0.0-6.0-0.51","","img/blue.png","32","trial","32","true","0.8,0.2","1:go_a","",""
"null","","html-keyboard-response","374","451699","0.0-6.0-1.51","","<img src=""img/blue-r.png"" border=""10"">","null","trial","32","","0.8,0.2","1:go_a","1",""
"null","","html-keyboard-response","375","452702","0.0-6.0-2.51","","<div style=""font-size:60px;"">+</div>","null","","","","","","",""
"null","","image-keyboard-response","376","454213","0.0-6.0-0.52","","img/grey.png","null","trial","null","true","0,1","4:nogo_d","",""
"null","","html-keyboard-response","377","455233","0.0-6.0-1.52","","<img src=""img/grey-r.png"">","null","trial","null","","0,1","4:nogo_d","1",""
"null","","html-keyboard-response","378","456243","0.0-6.0-2.52","","<div style=""font-size:60px;"">+</div>","null","","","","","","",""
"1147","","image-keyboard-response","379","457392","0.0-6.0-0.53","","img/purple.png","32","trial","null","false","0.2,0.8","2:nogo_b","",""
"null","","html-keyboard-response","380","458403","0.0-6.0-1.53","","<img src=""img/purple-n.png"" border=""10"">","null","trial","null","","0.2,0.8","2:nogo_b","0",""
"null","","html-keyboard-response","381","459423","0.0-6.0-2.53","","<div style=""font-size:60px;"">+</div>","null","","","","","","",""
"511","","image-keyboard-response","382","459935","0.0-6.0-0.54","","img/orange.png","32","trial","32","true","1,0","3:go_c","",""
"null","","html-keyboard-response","383","460953","0.0-6.0-1.54","","<img src=""img/orange-r.png"" border=""10"">","null","trial","32","","1,0","3:go_c","1",""
"null","","html-keyboard-response","384","461963","0.0-6.0-2.54","","<div style=""font-size:60px;"">+</div>","null","","","","","","",""
"499","","image-keyboard-response","385","462463","0.0-6.0-0.55","","img/blue.png","32","trial","32","true","0.8,0.2","1:go_a","",""
"null","","html-keyboard-response","386","463470","0.0-6.0-1.55","","<img src=""img/blue-r.png"" border=""10"">","null","trial","32","","0.8,0.2","1:go_a","1",""
"null","","html-keyboard-response","387","464470","0.0-6.0-2.55","","<div style=""font-size:60px;"">+</div>","null","","","","","","",""
"584","","image-keyboard-response","388","465055","0.0-6.0-0.56","","img/orange.png","32","trial","32","true","1,0","3:go_c","",""
"null","","html-keyboard-response","389","466063","0.0-6.0-1.56","","<img src=""img/orange-r.png"" border=""10"">","null","trial","32","","1,0","3:go_c","1",""
"null","","html-keyboard-response","390","467073","0.0-6.0-2.56","","<div style=""font-size:60px;"">+</div>","null","","","","","","",""
"557","","image-keyboard-response","391","467631","0.0-6.0-0.57","","img/blue.png","32","trial","32","true","0.8,0.2","1:go_a","",""
"null","","html-keyboard-response","392","468643","0.0-6.0-1.57","","<img src=""img/blue-r.png"" border=""10"">","null","trial","32","","0.8,0.2","1:go_a","1",""
"null","","html-keyboard-response","393","469663","0.0-6.0-2.57","","<div style=""font-size:60px;"">+</div>","null","","","","","","",""
"null","","image-keyboard-response","394","471183","0.0-6.0-0.58","","img/purple.png","null","trial","null","true","0.2,0.8","2:nogo_b","",""
"null","","html-keyboard-response","395","472203","0.0-6.0-1.58","","<img src=""img/purple-r.png"">","null","trial","null","","0.2,0.8","2:nogo_b","1",""
"null","","html-keyboard-response","396","473213","0.0-6.0-2.58","","<div style=""font-size:60px;"">+</div>","null","","","","","","",""
"null","","image-keyboard-response","397","474733","0.0-6.0-0.59","","img/grey.png","null","trial","null","true","0,1","4:nogo_d","",""
"null","","html-keyboard-response","398","475743","0.0-6.0-1.59","","<img src=""img/grey-r.png"">","null","trial","null","","0,1","4:nogo_d","1",""
"null","","html-keyboard-response","399","476753","0.0-6.0-2.59","","<div style=""font-size:60px;"">+</div>","null","","","","","","",""
"null","","image-keyboard-response","400","478260","0.0-6.0-0.60","","img/grey.png","null","trial","null","true","0,1","4:nogo_d","",""
"null","","html-keyboard-response","401","479264","0.0-6.0-1.60","","<img src=""img/grey-r.png"">","null","trial","null","","0,1","4:nogo_d","1",""
"null","","html-keyboard-response","402","480276","0.0-6.0-2.60","","<div style=""font-size:60px;"">+</div>","null","","","","","","",""
"490","","image-keyboard-response","403","480767","0.0-6.0-0.61","","img/orange.png","32","trial","32","true","1,0","3:go_c","",""
"null","","html-keyboard-response","404","481772","0.0-6.0-1.61","","<img src=""img/orange-r.png"" border=""10"">","null","trial","32","","1,0","3:go_c","1",""
"null","","html-keyboard-response","405","482773","0.0-6.0-2.61","","<div style=""font-size:60px;"">+</div>","null","","","","","","",""
"634","","image-keyboard-response","406","483407","0.0-6.0-0.62","","img/blue.png","32","trial","32","true","0.8,0.2","1:go_a","",""
"null","","html-keyboard-response","407","484409","0.0-6.0-1.62","","<img src=""img/blue-r.png"" border=""10"">","null","trial","32","","0.8,0.2","1:go_a","1",""
"null","","html-keyboard-response","408","485419","0.0-6.0-2.62","","<div style=""font-size:60px;"">+</div>","null","","","","","","",""
"null","","image-keyboard-response","409","486923","0.0-6.0-0.63","","img/purple.png","null","trial","null","true","0.2,0.8","2:nogo_b","",""
"null","","html-keyboard-response","410","487933","0.0-6.0-1.63","","<img src=""img/purple-n.png"">","null","trial","null","","0.2,0.8","2:nogo_b","0",""
"null","","html-keyboard-response","411","488951","0.0-6.0-2.63","","<div style=""font-size:60px;"">+</div>","null","","","","","","",""
"534","","image-keyboard-response","412","489487","0.0-6.0-0.64","","img/blue.png","32","trial","32","true","0.8,0.2","1:go_a","",""
"null","","html-keyboard-response","413","490503","0.0-6.0-1.64","","<img src=""img/blue-r.png"" border=""10"">","null","trial","32","","0.8,0.2","1:go_a","1",""
"null","","html-keyboard-response","414","491513","0.0-6.0-2.64","","<div style=""font-size:60px;"">+</div>","null","","","","","","",""
"485","","image-keyboard-response","415","491999","0.0-6.0-0.65","","img/orange.png","32","trial","32","true","1,0","3:go_c","",""
"null","","html-keyboard-response","416","493012","0.0-6.0-1.65","","<img src=""img/orange-r.png"" border=""10"">","null","trial","32","","1,0","3:go_c","1",""
"null","","html-keyboard-response","417","494033","0.0-6.0-2.65","","<div style=""font-size:60px;"">+</div>","null","","","","","","",""
"782","","image-keyboard-response","418","494815","0.0-6.0-0.66","","img/grey.png","32","trial","null","false","0,1","4:nogo_d","",""
"null","","html-keyboard-response","419","495822","0.0-6.0-1.66","","<img src=""img/grey-n.png"" border=""10"">","null","trial","null","","0,1","4:nogo_d","0",""
"null","","html-keyboard-response","420","496843","0.0-6.0-2.66","","<div style=""font-size:60px;"">+</div>","null","","","","","","",""
"1044","","image-keyboard-response","421","497887","0.0-6.0-0.67","","img/purple.png","32","trial","null","false","0.2,0.8","2:nogo_b","",""
"null","","html-keyboard-response","422","498898","0.0-6.0-1.67","","<img src=""img/purple-n.png"" border=""10"">","null","trial","null","","0.2,0.8","2:nogo_b","0",""
"null","","html-keyboard-response","423","499923","0.0-6.0-2.67","","<div style=""font-size:60px;"">+</div>","null","","","","","","",""
"null","","image-keyboard-response","424","501443","0.0-6.0-0.68","","img/grey.png","null","trial","null","true","0,1","4:nogo_d","",""
"null","","html-keyboard-response","425","502453","0.0-6.0-1.68","","<img src=""img/grey-r.png"">","null","trial","null","","0,1","4:nogo_d","1",""
"null","","html-keyboard-response","426","503473","0.0-6.0-2.68","","<div style=""font-size:60px;"">+</div>","null","","","","","","",""
"null","","image-keyboard-response","427","504992","0.0-6.0-0.69","","img/purple.png","null","trial","null","true","0.2,0.8","2:nogo_b","",""
"null","","html-keyboard-response","428","506013","0.0-6.0-1.69","","<img src=""img/purple-r.png"">","null","trial","null","","0.2,0.8","2:nogo_b","1",""
"null","","html-keyboard-response","429","507019","0.0-6.0-2.69","","<div style=""font-size:60px;"">+</div>","null","","","","","","",""
"515","","image-keyboard-response","430","507535","0.0-6.0-0.70","","img/orange.png","32","trial","32","true","1,0","3:go_c","",""
"null","","html-keyboard-response","431","508543","0.0-6.0-1.70","","<img src=""img/orange-r.png"" border=""10"">","null","trial","32","","1,0","3:go_c","1",""
"null","","html-keyboard-response","432","509548","0.0-6.0-2.70","","<div style=""font-size:60px;"">+</div>","null","","","","","","",""
"434","","image-keyboard-response","433","509983","0.0-6.0-0.71","","img/blue.png","32","trial","32","true","0.8,0.2","1:go_a","",""
"null","","html-keyboard-response","434","510991","0.0-6.0-1.71","","<img src=""img/blue-n.png"" border=""10"">","null","trial","32","","0.8,0.2","1:go_a","0",""
"null","","html-keyboard-response","435","512003","0.0-6.0-2.71","","<div style=""font-size:60px;"">+</div>","null","","","","","","",""
"554","","image-keyboard-response","436","512558","0.0-6.0-0.72","","img/orange.png","32","trial","32","true","1,0","3:go_c","",""
"null","","html-keyboard-response","437","513573","0.0-6.0-1.72","","<img src=""img/orange-r.png"" border=""10"">","null","trial","32","","1,0","3:go_c","1",""
"null","","html-keyboard-response","438","514583","0.0-6.0-2.72","","<div style=""font-size:60px;"">+</div>","null","","","","","","",""
"null","","image-keyboard-response","439","516092","0.0-6.0-0.73","","img/grey.png","null","trial","null","true","0,1","4:nogo_d","",""
"null","","html-keyboard-response","440","517113","0.0-6.0-1.73","","<img src=""img/grey-r.png"">","null","trial","null","","0,1","4:nogo_d","1",""
"null","","html-keyboard-response","441","518133","0.0-6.0-2.73","","<div style=""font-size:60px;"">+</div>","null","","","","","","",""
"538","","image-keyboard-response","442","518671","0.0-6.0-0.74","","img/purple.png","32","trial","null","false","0.2,0.8","2:nogo_b","",""
"null","","html-keyboard-response","443","519673","0.0-6.0-1.74","","<img src=""img/purple-n.png"" border=""10"">","null","trial","null","","0.2,0.8","2:nogo_b","0",""
"null","","html-keyboard-response","444","520683","0.0-6.0-2.74","","<div style=""font-size:60px;"">+</div>","null","","","","","","",""
"516","","image-keyboard-response","445","521198","0.0-6.0-0.75","","img/blue.png","32","trial","32","true","0.8,0.2","1:go_a","",""
"null","","html-keyboard-response","446","522210","0.0-6.0-1.75","","<img src=""img/blue-r.png"" border=""10"">","null","trial","32","","0.8,0.2","1:go_a","1",""
"null","","html-keyboard-response","447","523212","0.0-6.0-2.75","","<div style=""font-size:60px;"">+</div>","null","","","","","","",""
"null","","image-keyboard-response","448","524733","0.0-6.0-0.76","","img/grey.png","null","trial","null","true","0,1","4:nogo_d","",""
"null","","html-keyboard-response","449","525753","0.0-6.0-1.76","","<img src=""img/grey-r.png"">","null","trial","null","","0,1","4:nogo_d","1",""
"null","","html-keyboard-response","450","526762","0.0-6.0-2.76","","<div style=""font-size:60px;"">+</div>","null","","","","","","",""
"516","","image-keyboard-response","451","527279","0.0-6.0-0.77","","img/orange.png","32","trial","32","true","1,0","3:go_c","",""
"null","","html-keyboard-response","452","528293","0.0-6.0-1.77","","<img src=""img/orange-r.png"" border=""10"">","null","trial","32","","1,0","3:go_c","1",""
"null","","html-keyboard-response","453","529312","0.0-6.0-2.77","","<div style=""font-size:60px;"">+</div>","null","","","","","","",""
"null","","image-keyboard-response","454","530822","0.0-6.0-0.78","","img/purple.png","null","trial","null","true","0.2,0.8","2:nogo_b","",""
"null","","html-keyboard-response","455","531829","0.0-6.0-1.78","","<img src=""img/purple-r.png"">","null","trial","null","","0.2,0.8","2:nogo_b","1",""
"null","","html-keyboard-response","456","532843","0.0-6.0-2.78","","<div style=""font-size:60px;"">+</div>","null","","","","","","",""
"548","","image-keyboard-response","457","533391","0.0-6.0-0.79","","img/blue.png","32","trial","32","true","0.8,0.2","1:go_a","",""
"null","","html-keyboard-response","458","534393","0.0-6.0-1.79","","<img src=""img/blue-r.png"" border=""10"">","null","trial","32","","0.8,0.2","1:go_a","1",""
"null","","html-keyboard-response","459","535413","0.0-6.0-2.79","","<div style=""font-size:60px;"">+</div>","null","","","","","","",""
"760","","image-keyboard-response","460","536174","0.0-6.0-0.80","","img/purple.png","32","trial","null","false","0.2,0.8","2:nogo_b","",""
"null","","html-keyboard-response","461","537183","0.0-6.0-1.80","","<img src=""img/purple-n.png"" border=""10"">","null","trial","null","","0.2,0.8","2:nogo_b","0",""
"null","","html-keyboard-response","462","538192","0.0-6.0-2.80","","<div style=""font-size:60px;"">+</div>","null","","","","","","",""
"493","","image-keyboard-response","463","538686","0.0-6.0-0.81","","img/blue.png","32","trial","32","true","0.8,0.2","1:go_a","",""
"null","","html-keyboard-response","464","539693","0.0-6.0-1.81","","<img src=""img/blue-r.png"" border=""10"">","null","trial","32","","0.8,0.2","1:go_a","1",""
"null","","html-keyboard-response","465","540701","0.0-6.0-2.81","","<div style=""font-size:60px;"">+</div>","null","","","","","","",""
"1010","","image-keyboard-response","466","541711","0.0-6.0-0.82","","img/grey.png","32","trial","null","false","0,1","4:nogo_d","",""
"null","","html-keyboard-response","467","542712","0.0-6.0-1.82","","<img src=""img/grey-n.png"" border=""10"">","null","trial","null","","0,1","4:nogo_d","0",""
"null","","html-keyboard-response","468","543722","0.0-6.0-2.82","","<div style=""font-size:60px;"">+</div>","null","","","","","","",""
"499","","image-keyboard-response","469","544223","0.0-6.0-0.83","","img/orange.png","32","trial","32","true","1,0","3:go_c","",""
"null","","html-keyboard-response","470","545232","0.0-6.0-1.83","","<img src=""img/orange-r.png"" border=""10"">","null","trial","32","","1,0","3:go_c","1",""
"null","","html-keyboard-response","471","546242","0.0-6.0-2.83","","<div style=""font-size:60px;"">+</div>","null","","","","","","",""
"556","","image-keyboard-response","472","546799","0.0-6.0-0.84","","img/blue.png","32","trial","32","true","0.8,0.2","1:go_a","",""
"null","","html-keyboard-response","473","547813","0.0-6.0-1.84","","<img src=""img/blue-r.png"" border=""10"">","null","trial","32","","0.8,0.2","1:go_a","1",""
"null","","html-keyboard-response","474","548832","0.0-6.0-2.84","","<div style=""font-size:60px;"">+</div>","null","","","","","","",""
"null","","image-keyboard-response","475","550342","0.0-6.0-0.85","","img/purple.png","null","trial","null","true","0.2,0.8","2:nogo_b","",""
"null","","html-keyboard-response","476","551352","0.0-6.0-1.85","","<img src=""img/purple-r.png"">","null","trial","null","","0.2,0.8","2:nogo_b","1",""
"null","","html-keyboard-response","477","552362","0.0-6.0-2.85","","<div style=""font-size:60px;"">+</div>","null","","","","","","",""
"627","","image-keyboard-response","478","552990","0.0-6.0-0.86","","img/orange.png","32","trial","32","true","1,0","3:go_c","",""
"null","","html-keyboard-response","479","554002","0.0-6.0-1.86","","<img src=""img/orange-r.png"" border=""10"">","null","trial","32","","1,0","3:go_c","1",""
"null","","html-keyboard-response","480","555012","0.0-6.0-2.86","","<div style=""font-size:60px;"">+</div>","null","","","","","","",""
"842","","image-keyboard-response","481","555854","0.0-6.0-0.87","","img/grey.png","32","trial","null","false","0,1","4:nogo_d","",""
"null","","html-keyboard-response","482","556862","0.0-6.0-1.87","","<img src=""img/grey-n.png"" border=""10"">","null","trial","null","","0,1","4:nogo_d","0",""
"null","","html-keyboard-response","483","557883","0.0-6.0-2.87","","<div style=""font-size:60px;"">+</div>","null","","","","","","",""
"null","","image-keyboard-response","484","559393","0.0-6.0-0.88","","img/grey.png","null","trial","null","true","0,1","4:nogo_d","",""
"null","","html-keyboard-response","485","560402","0.0-6.0-1.88","","<img src=""img/grey-r.png"">","null","trial","null","","0,1","4:nogo_d","1",""
"null","","html-keyboard-response","486","561413","0.0-6.0-2.88","","<div style=""font-size:60px;"">+</div>","null","","","","","","",""
"1016","","image-keyboard-response","487","562431","0.0-6.0-0.89","","img/purple.png","32","trial","null","false","0.2,0.8","2:nogo_b","",""
"null","","html-keyboard-response","488","563442","0.0-6.0-1.89","","<img src=""img/purple-n.png"" border=""10"">","null","trial","null","","0.2,0.8","2:nogo_b","0",""
"null","","html-keyboard-response","489","564452","0.0-6.0-2.89","","<div style=""font-size:60px;"">+</div>","null","","","","","","",""
"409","","image-keyboard-response","490","564862","0.0-6.0-0.90","","img/orange.png","32","trial","32","true","1,0","3:go_c","",""
"null","","html-keyboard-response","491","565872","0.0-6.0-1.90","","<img src=""img/orange-r.png"" border=""10"">","null","trial","32","","1,0","3:go_c","1",""
"null","","html-keyboard-response","492","566882","0.0-6.0-2.90","","<div style=""font-size:60px;"">+</div>","null","","","","","","",""
"476","","image-keyboard-response","493","567358","0.0-6.0-0.91","","img/blue.png","32","trial","32","true","0.8,0.2","1:go_a","",""
"null","","html-keyboard-response","494","568372","0.0-6.0-1.91","","<img src=""img/blue-r.png"" border=""10"">","null","trial","32","","0.8,0.2","1:go_a","1",""
"null","","html-keyboard-response","495","569382","0.0-6.0-2.91","","<div style=""font-size:60px;"">+</div>","null","","","","","","",""
"null","","image-keyboard-response","496","570892","0.0-6.0-0.92","","img/grey.png","null","trial","null","true","0,1","4:nogo_d","",""
"null","","html-keyboard-response","497","571902","0.0-6.0-1.92","","<img src=""img/grey-r.png"">","null","trial","null","","0,1","4:nogo_d","1",""
"null","","html-keyboard-response","498","572918","0.0-6.0-2.92","","<div style=""font-size:60px;"">+</div>","null","","","","","","",""
"519","","image-keyboard-response","499","573438","0.0-6.0-0.93","","img/orange.png","32","trial","32","true","1,0","3:go_c","",""
"null","","html-keyboard-response","500","574447","0.0-6.0-1.93","","<img src=""img/orange-r.png"" border=""10"">","null","trial","32","","1,0","3:go_c","1",""
"null","","html-keyboard-response","501","575452","0.0-6.0-2.93","","<div style=""font-size:60px;"">+</div>","null","","","","","","",""
"null","","image-keyboard-response","502","576963","0.0-6.0-0.94","","img/purple.png","null","trial","null","true","0.2,0.8","2:nogo_b","",""
"null","","html-keyboard-response","503","577972","0.0-6.0-1.94","","<img src=""img/purple-r.png"">","null","trial","null","","0.2,0.8","2:nogo_b","1",""
"null","","html-keyboard-response","504","578992","0.0-6.0-2.94","","<div style=""font-size:60px;"">+</div>","null","","","","","","",""
"493","","image-keyboard-response","505","579486","0.0-6.0-0.95","","img/blue.png","32","trial","32","true","0.8,0.2","1:go_a","",""
"null","","html-keyboard-response","506","580491","0.0-6.0-1.95","","<img src=""img/blue-n.png"" border=""10"">","null","trial","32","","0.8,0.2","1:go_a","0",""
"null","","html-keyboard-response","507","581511","0.0-6.0-2.95","","<div style=""font-size:60px;"">+</div>","null","","","","","","",""
"502","","image-keyboard-response","508","582014","0.0-6.0-0.96","","img/orange.png","32","trial","32","true","1,0","3:go_c","",""
"null","","html-keyboard-response","509","583022","0.0-6.0-1.96","","<img src=""img/orange-r.png"" border=""10"">","null","trial","32","","1,0","3:go_c","1",""
"null","","html-keyboard-response","510","584033","0.0-6.0-2.96","","<div style=""font-size:60px;"">+</div>","null","","","","","","",""
"null","","image-keyboard-response","511","585542","0.0-6.0-0.97","","img/purple.png","null","trial","null","true","0.2,0.8","2:nogo_b","",""
"null","","html-keyboard-response","512","586552","0.0-6.0-1.97","","<img src=""img/purple-r.png"">","null","trial","null","","0.2,0.8","2:nogo_b","1",""
"null","","html-keyboard-response","513","587572","0.0-6.0-2.97","","<div style=""font-size:60px;"">+</div>","null","","","","","","",""
"521","","image-keyboard-response","514","588094","0.0-6.0-0.98","","img/blue.png","32","trial","32","true","0.8,0.2","1:go_a","",""
"null","","html-keyboard-response","515","589102","0.0-6.0-1.98","","<img src=""img/blue-r.png"" border=""10"">","null","trial","32","","0.8,0.2","1:go_a","1",""
"null","","html-keyboard-response","516","590102","0.0-6.0-2.98","","<div style=""font-size:60px;"">+</div>","null","","","","","","",""
"662","","image-keyboard-response","517","590767","0.0-6.0-0.99","","img/grey.png","32","trial","null","false","0,1","4:nogo_d","",""
"null","","html-keyboard-response","518","591771","0.0-6.0-1.99","","<img src=""img/grey-n.png"" border=""10"">","null","trial","null","","0,1","4:nogo_d","0",""
"null","","html-keyboard-response","519","592782","0.0-6.0-2.99","","<div style=""font-size:60px;"">+</div>","null","","","","","","",""
"null","","image-keyboard-response","520","594302","0.0-6.0-0.100","","img/purple.png","null","trial","null","true","0.2,0.8","2:nogo_b","",""
"null","","html-keyboard-response","521","595322","0.0-6.0-1.100","","<img src=""img/purple-r.png"">","null","trial","null","","0.2,0.8","2:nogo_b","1",""
"null","","html-keyboard-response","522","596341","0.0-6.0-2.100","","<div style=""font-size:60px;"">+</div>","null","","","","","","",""
"488","","image-keyboard-response","523","596830","0.0-6.0-0.101","","img/orange.png","32","trial","32","true","1,0","3:go_c","",""
"null","","html-keyboard-response","524","597832","0.0-6.0-1.101","","<img src=""img/orange-r.png"" border=""10"">","null","trial","32","","1,0","3:go_c","1",""
"null","","html-keyboard-response","525","598852","0.0-6.0-2.101","","<div style=""font-size:60px;"">+</div>","null","","","","","","",""
"569","","image-keyboard-response","526","599422","0.0-6.0-0.102","","img/blue.png","32","trial","32","true","0.8,0.2","1:go_a","",""
"null","","html-keyboard-response","527","600441","0.0-6.0-1.102","","<img src=""img/blue-r.png"" border=""10"">","null","trial","32","","0.8,0.2","1:go_a","1",""
"null","","html-keyboard-response","528","601452","0.0-6.0-2.102","","<div style=""font-size:60px;"">+</div>","null","","","","","","",""
"null","","image-keyboard-response","529","602962","0.0-6.0-0.103","","img/grey.png","null","trial","null","true","0,1","4:nogo_d","",""
"null","","html-keyboard-response","530","603972","0.0-6.0-1.103","","<img src=""img/grey-r.png"">","null","trial","null","","0,1","4:nogo_d","1",""
"null","","html-keyboard-response","531","604992","0.0-6.0-2.103","","<div style=""font-size:60px;"">+</div>","null","","","","","","",""
"525","","image-keyboard-response","532","605518","0.0-6.0-0.104","","img/orange.png","32","trial","32","true","1,0","3:go_c","",""
"null","","html-keyboard-response","533","606522","0.0-6.0-1.104","","<img src=""img/orange-r.png"" border=""10"">","null","trial","32","","1,0","3:go_c","1",""
"null","","html-keyboard-response","534","607542","0.0-6.0-2.104","","<div style=""font-size:60px;"">+</div>","null","","","","","","",""
"null","","image-keyboard-response","535","609052","0.0-6.0-0.105","","img/grey.png","null","trial","null","true","0,1","4:nogo_d","",""
"null","","html-keyboard-response","536","610062","0.0-6.0-1.105","","<img src=""img/grey-r.png"">","null","trial","null","","0,1","4:nogo_d","1",""
"null","","html-keyboard-response","537","611082","0.0-6.0-2.105","","<div style=""font-size:60px;"">+</div>","null","","","","","","",""
"547","","image-keyboard-response","538","611630","0.0-6.0-0.106","","img/blue.png","32","trial","32","true","0.8,0.2","1:go_a","",""
"null","","html-keyboard-response","539","612632","0.0-6.0-1.106","","<img src=""img/blue-r.png"" border=""10"">","null","trial","32","","0.8,0.2","1:go_a","1",""
"null","","html-keyboard-response","540","613642","0.0-6.0-2.106","","<div style=""font-size:60px;"">+</div>","null","","","","","","",""
"null","","image-keyboard-response","541","615156","0.0-6.0-0.107","","img/purple.png","null","trial","null","true","0.2,0.8","2:nogo_b","",""
"null","","html-keyboard-response","542","616181","0.0-6.0-1.107","","<img src=""img/purple-n.png"">","null","trial","null","","0.2,0.8","2:nogo_b","0",""
"null","","html-keyboard-response","543","617189","0.0-6.0-2.107","","<div style=""font-size:60px;"">+</div>","null","","","","","","",""
"null","","image-keyboard-response","544","618692","0.0-6.0-0.108","","img/grey.png","null","trial","null","true","0,1","4:nogo_d","",""
"null","","html-keyboard-response","545","619701","0.0-6.0-1.108","","<img src=""img/grey-r.png"">","null","trial","null","","0,1","4:nogo_d","1",""
"null","","html-keyboard-response","546","620711","0.0-6.0-2.108","","<div style=""font-size:60px;"">+</div>","null","","","","","","",""
"692","","image-keyboard-response","547","621406","0.0-6.0-0.109","","img/blue.png","32","trial","32","true","0.8,0.2","1:go_a","",""
"null","","html-keyboard-response","548","622421","0.0-6.0-1.109","","<img src=""img/blue-n.png"" border=""10"">","null","trial","32","","0.8,0.2","1:go_a","0",""
"null","","html-keyboard-response","549","623432","0.0-6.0-2.109","","<div style=""font-size:60px;"">+</div>","null","","","","","","",""
"1189","","image-keyboard-response","550","624622","0.0-6.0-0.110","","img/purple.png","32","trial","null","false","0.2,0.8","2:nogo_b","",""
"null","","html-keyboard-response","551","625637","0.0-6.0-1.110","","<img src=""img/purple-n.png"" border=""10"">","null","trial","null","","0.2,0.8","2:nogo_b","0",""
"null","","html-keyboard-response","552","626642","0.0-6.0-2.110","","<div style=""font-size:60px;"">+</div>","null","","","","","","",""
"524","","image-keyboard-response","553","627166","0.0-6.0-0.111","","img/orange.png","32","trial","32","true","1,0","3:go_c","",""
"null","","html-keyboard-response","554","628182","0.0-6.0-1.111","","<img src=""img/orange-r.png"" border=""10"">","null","trial","32","","1,0","3:go_c","1",""
"null","","html-keyboard-response","555","629202","0.0-6.0-2.111","","<div style=""font-size:60px;"">+</div>","null","","","","","","",""
"555","","image-keyboard-response","556","629757","0.0-6.0-0.112","","img/orange.png","32","trial","32","true","1,0","3:go_c","",""
"null","","html-keyboard-response","557","630758","0.0-6.0-1.112","","<img src=""img/orange-r.png"" border=""10"">","null","trial","32","","1,0","3:go_c","1",""
"null","","html-keyboard-response","558","631772","0.0-6.0-2.112","","<div style=""font-size:60px;"">+</div>","null","","","","","","",""
"null","","image-keyboard-response","559","633281","0.0-6.0-0.113","","img/grey.png","null","trial","null","true","0,1","4:nogo_d","",""
"null","","html-keyboard-response","560","634301","0.0-6.0-1.113","","<img src=""img/grey-r.png"">","null","trial","null","","0,1","4:nogo_d","1",""
"null","","html-keyboard-response","561","635311","0.0-6.0-2.113","","<div style=""font-size:60px;"">+</div>","null","","","","","","",""
"558","","image-keyboard-response","562","635870","0.0-6.0-0.114","","img/blue.png","32","trial","32","true","0.8,0.2","1:go_a","",""
"null","","html-keyboard-response","563","636872","0.0-6.0-1.114","","<img src=""img/blue-r.png"" border=""10"">","null","trial","32","","0.8,0.2","1:go_a","1",""
"null","","html-keyboard-response","564","637881","0.0-6.0-2.114","","<div style=""font-size:60px;"">+</div>","null","","","","","","",""
"null","","image-keyboard-response","565","639391","0.0-6.0-0.115","","img/purple.png","null","trial","null","true","0.2,0.8","2:nogo_b","",""
"null","","html-keyboard-response","566","640411","0.0-6.0-1.115","","<img src=""img/purple-r.png"">","null","trial","null","","0.2,0.8","2:nogo_b","1",""
"null","","html-keyboard-response","567","641422","0.0-6.0-2.115","","<div style=""font-size:60px;"">+</div>","null","","","","","","",""
"976","","image-keyboard-response","568","642397","0.0-6.0-0.116","","img/orange.png","32","trial","32","true","1,0","3:go_c","",""
"null","","html-keyboard-response","569","643411","0.0-6.0-1.116","","<img src=""img/orange-r.png"" border=""10"">","null","trial","32","","1,0","3:go_c","1",""
"null","","html-keyboard-response","570","644421","0.0-6.0-2.116","","<div style=""font-size:60px;"">+</div>","null","","","","","","",""
"584","","image-keyboard-response","571","645006","0.0-6.0-0.117","","img/blue.png","32","trial","32","true","0.8,0.2","1:go_a","",""
"null","","html-keyboard-response","572","646011","0.0-6.0-1.117","","<img src=""img/blue-r.png"" border=""10"">","null","trial","32","","0.8,0.2","1:go_a","1",""
"null","","html-keyboard-response","573","647022","0.0-6.0-2.117","","<div style=""font-size:60px;"">+</div>","null","","","","","","",""
"null","","image-keyboard-response","574","648532","0.0-6.0-0.118","","img/purple.png","null","trial","null","true","0.2,0.8","2:nogo_b","",""
"null","","html-keyboard-response","575","649542","0.0-6.0-1.118","","<img src=""img/purple-n.png"">","null","trial","null","","0.2,0.8","2:nogo_b","0",""
"null","","html-keyboard-response","576","650551","0.0-6.0-2.118","","<div style=""font-size:60px;"">+</div>","null","","","","","","",""
"null","","image-keyboard-response","577","652071","0.0-6.0-0.119","","img/grey.png","null","trial","null","true","0,1","4:nogo_d","",""
"null","","html-keyboard-response","578","653087","0.0-6.0-1.119","","<img src=""img/grey-r.png"">","null","trial","null","","0,1","4:nogo_d","1",""
"null","","html-keyboard-response","579","654089","0.0-6.0-2.119","","<div style=""font-size:60px;"">+</div>","null","","","","","","",""
"3003","","instructions","580","657093","0.0-7.0","[{""page_index"":0,""viewing_time"":3003}]","","","","","","","","",""
"1272","","image-keyboard-response","581","658365","0.0-8.0-0.0","","img/pink.png","32","trial","32","true","0.8,0.2","1:go_a","",""
"null","","html-keyboard-response","582","659369","0.0-8.0-1.0","","<img src=""img/pink-r.png"" border=""10"">","null","trial","32","","0.8,0.2","1:go_a","1",""
"null","","html-keyboard-response","583","660371","0.0-8.0-2.0","","<div style=""font-size:60px;"">+</div>","null","","","","","","",""
"634","","image-keyboard-response","584","661006","0.0-8.0-0.1","","img/purple.png","32","trial","null","false","0.4,0.6","4:nogo_d","",""
"null","","html-keyboard-response","585","662021","0.0-8.0-1.1","","<img src=""img/purple-n.png"" border=""10"">","null","trial","null","","0.4,0.6","4:nogo_d","0",""
"null","","html-keyboard-response","586","663031","0.0-8.0-2.1","","<div style=""font-size:60px;"">+</div>","null","","","","","","",""
"789","","image-keyboard-response","587","663822","0.0-8.0-0.2","","img/red.png","32","trial","32","true","0.6,0.4","3:go_c","",""
"null","","html-keyboard-response","588","664841","0.0-8.0-1.2","","<img src=""img/red-n.png"" border=""10"">","null","trial","32","","0.6,0.4","3:go_c","0",""
"null","","html-keyboard-response","589","665860","0.0-8.0-2.2","","<div style=""font-size:60px;"">+</div>","null","","","","","","",""
"600","","image-keyboard-response","590","666462","0.0-8.0-0.3","","img/yellow.png","32","trial","null","false","0.2,0.8","2:nogo_b","",""
"null","","html-keyboard-response","591","667471","0.0-8.0-1.3","","<img src=""img/yellow-n.png"" border=""10"">","null","trial","null","","0.2,0.8","2:nogo_b","0",""
"null","","html-keyboard-response","592","668481","0.0-8.0-2.3","","<div style=""font-size:60px;"">+</div>","null","","","","","","",""
"null","","image-keyboard-response","593","669991","0.0-8.0-0.4","","img/purple.png","null","trial","null","true","0.4,0.6","4:nogo_d","",""
"null","","html-keyboard-response","594","671001","0.0-8.0-1.4","","<img src=""img/purple-r.png"">","null","trial","null","","0.4,0.6","4:nogo_d","1",""
"null","","html-keyboard-response","595","672007","0.0-8.0-2.4","","<div style=""font-size:60px;"">+</div>","null","","","","","","",""
"661","","image-keyboard-response","596","672669","0.0-8.0-0.5","","img/red.png","32","trial","32","true","0.6,0.4","3:go_c","",""
"null","","html-keyboard-response","597","673681","0.0-8.0-1.5","","<img src=""img/red-n.png"" border=""10"">","null","trial","32","","0.6,0.4","3:go_c","0",""
"null","","html-keyboard-response","598","674696","0.0-8.0-2.5","","<div style=""font-size:60px;"">+</div>","null","","","","","","",""
"532","","image-keyboard-response","599","675230","0.0-8.0-0.6","","img/pink.png","32","trial","32","true","0.8,0.2","1:go_a","",""
"null","","html-keyboard-response","600","676239","0.0-8.0-1.6","","<img src=""img/pink-r.png"" border=""10"">","null","trial","32","","0.8,0.2","1:go_a","1",""
"null","","html-keyboard-response","601","677241","0.0-8.0-2.6","","<div style=""font-size:60px;"">+</div>","null","","","","","","",""
"null","","image-keyboard-response","602","678761","0.0-8.0-0.7","","img/yellow.png","null","trial","null","true","0.2,0.8","2:nogo_b","",""
"null","","html-keyboard-response","603","679771","0.0-8.0-1.7","","<img src=""img/yellow-n.png"">","null","trial","null","","0.2,0.8","2:nogo_b","0",""
"null","","html-keyboard-response","604","680782","0.0-8.0-2.7","","<div style=""font-size:60px;"">+</div>","null","","","","","","",""
"864","","image-keyboard-response","605","681646","0.0-8.0-0.8","","img/purple.png","32","trial","null","false","0.4,0.6","4:nogo_d","",""
"null","","html-keyboard-response","606","682648","0.0-8.0-1.8","","<img src=""img/purple-r.png"" border=""10"">","null","trial","null","","0.4,0.6","4:nogo_d","1",""
"null","","html-keyboard-response","607","683671","0.0-8.0-2.8","","<div style=""font-size:60px;"">+</div>","null","","","","","","",""
"469","","image-keyboard-response","608","684141","0.0-8.0-0.9","","img/pink.png","32","trial","32","true","0.8,0.2","1:go_a","",""
"null","","html-keyboard-response","609","685161","0.0-8.0-1.9","","<img src=""img/pink-r.png"" border=""10"">","null","trial","32","","0.8,0.2","1:go_a","1",""
"null","","html-keyboard-response","610","686166","0.0-8.0-2.9","","<div style=""font-size:60px;"">+</div>","null","","","","","","",""
"null","","image-keyboard-response","611","687681","0.0-8.0-0.10","","img/yellow.png","null","trial","null","true","0.2,0.8","2:nogo_b","",""
"null","","html-keyboard-response","612","688701","0.0-8.0-1.10","","<img src=""img/yellow-r.png"">","null","trial","null","","0.2,0.8","2:nogo_b","1",""
"null","","html-keyboard-response","613","689711","0.0-8.0-2.10","","<div style=""font-size:60px;"">+</div>","null","","","","","","",""
"null","","image-keyboard-response","614","691223","0.0-8.0-0.11","","img/red.png","null","trial","32","false","0.6,0.4","3:go_c","",""
"null","","html-keyboard-response","615","692231","0.0-8.0-1.11","","<img src=""img/red-r.png"">","null","trial","32","","0.6,0.4","3:go_c","1",""
"null","","html-keyboard-response","616","693251","0.0-8.0-2.11","","<div style=""font-size:60px;"">+</div>","null","","","","","","",""
"null","","image-keyboard-response","617","694757","0.0-8.0-0.12","","img/red.png","null","trial","32","false","0.6,0.4","3:go_c","",""
"null","","html-keyboard-response","618","695757","0.0-8.0-1.12","","<img src=""img/red-n.png"">","null","trial","32","","0.6,0.4","3:go_c","0",""
"null","","html-keyboard-response","619","696771","0.0-8.0-2.12","","<div style=""font-size:60px;"">+</div>","null","","","","","","",""
"410","","image-keyboard-response","620","697182","0.0-8.0-0.13","","img/pink.png","32","trial","32","true","0.8,0.2","1:go_a","",""
"null","","html-keyboard-response","621","698201","0.0-8.0-1.13","","<img src=""img/pink-r.png"" border=""10"">","null","trial","32","","0.8,0.2","1:go_a","1",""
"null","","html-keyboard-response","622","699211","0.0-8.0-2.13","","<div style=""font-size:60px;"">+</div>","null","","","","","","",""
"753","","image-keyboard-response","623","699965","0.0-8.0-0.14","","img/purple.png","32","trial","null","false","0.4,0.6","4:nogo_d","",""
"null","","html-keyboard-response","624","700981","0.0-8.0-1.14","","<img src=""img/purple-n.png"" border=""10"">","null","trial","null","","0.4,0.6","4:nogo_d","0",""
"null","","html-keyboard-response","625","701990","0.0-8.0-2.14","","<div style=""font-size:60px;"">+</div>","null","","","","","","",""
"678","","image-keyboard-response","626","702669","0.0-8.0-0.15","","img/yellow.png","32","trial","null","false","0.2,0.8","2:nogo_b","",""
"null","","html-keyboard-response","627","703681","0.0-8.0-1.15","","<img src=""img/yellow-n.png"" border=""10"">","null","trial","null","","0.2,0.8","2:nogo_b","0",""
"null","","html-keyboard-response","628","704691","0.0-8.0-2.15","","<div style=""font-size:60px;"">+</div>","null","","","","","","",""
"634","","image-keyboard-response","629","705326","0.0-8.0-0.16","","img/purple.png","32","trial","null","false","0.4,0.6","4:nogo_d","",""
"null","","html-keyboard-response","630","706341","0.0-8.0-1.16","","<img src=""img/purple-r.png"" border=""10"">","null","trial","null","","0.4,0.6","4:nogo_d","1",""
"null","","html-keyboard-response","631","707351","0.0-8.0-2.16","","<div style=""font-size:60px;"">+</div>","null","","","","","","",""
"741","","image-keyboard-response","632","708093","0.0-8.0-0.17","","img/yellow.png","32","trial","null","false","0.2,0.8","2:nogo_b","",""
"null","","html-keyboard-response","633","709101","0.0-8.0-1.17","","<img src=""img/yellow-r.png"" border=""10"">","null","trial","null","","0.2,0.8","2:nogo_b","1",""
"null","","html-keyboard-response","634","710121","0.0-8.0-2.17","","<div style=""font-size:60px;"">+</div>","null","","","","","","",""
"null","","image-keyboard-response","635","711631","0.0-8.0-0.18","","img/red.png","null","trial","32","false","0.6,0.4","3:go_c","",""
"null","","html-keyboard-response","636","712641","0.0-8.0-1.18","","<img src=""img/red-r.png"">","null","trial","32","","0.6,0.4","3:go_c","1",""
"null","","html-keyboard-response","637","713651","0.0-8.0-2.18","","<div style=""font-size:60px;"">+</div>","null","","","","","","",""
"585","","image-keyboard-response","638","714237","0.0-8.0-0.19","","img/pink.png","32","trial","32","true","0.8,0.2","1:go_a","",""
"null","","html-keyboard-response","639","715240","0.0-8.0-1.19","","<img src=""img/pink-n.png"" border=""10"">","null","trial","32","","0.8,0.2","1:go_a","0",""
"null","","html-keyboard-response","640","716251","0.0-8.0-2.19","","<div style=""font-size:60px;"">+</div>","null","","","","","","",""
"849","","image-keyboard-response","641","717101","0.0-8.0-0.20","","img/yellow.png","32","trial","null","false","0.2,0.8","2:nogo_b","",""
"null","","html-keyboard-response","642","718121","0.0-8.0-1.20","","<img src=""img/yellow-n.png"" border=""10"">","null","trial","null","","0.2,0.8","2:nogo_b","0",""
"null","","html-keyboard-response","643","719141","0.0-8.0-2.20","","<div style=""font-size:60px;"">+</div>","null","","","","","","",""
"471","","image-keyboard-response","644","719613","0.0-8.0-0.21","","img/pink.png","32","trial","32","true","0.8,0.2","1:go_a","",""
"null","","html-keyboard-response","645","720623","0.0-8.0-1.21","","<img src=""img/pink-r.png"" border=""10"">","null","trial","32","","0.8,0.2","1:go_a","1",""
"null","","html-keyboard-response","646","721631","0.0-8.0-2.21","","<div style=""font-size:60px;"">+</div>","null","","","","","","",""
"null","","image-keyboard-response","647","723151","0.0-8.0-0.22","","img/red.png","null","trial","32","false","0.6,0.4","3:go_c","",""
"null","","html-keyboard-response","648","724161","0.0-8.0-1.22","","<img src=""img/red-n.png"">","null","trial","32","","0.6,0.4","3:go_c","0",""
"null","","html-keyboard-response","649","725171","0.0-8.0-2.22","","<div style=""font-size:60px;"">+</div>","null","","","","","","",""
"682","","image-keyboard-response","650","725853","0.0-8.0-0.23","","img/purple.png","32","trial","null","false","0.4,0.6","4:nogo_d","",""
"null","","html-keyboard-response","651","726861","0.0-8.0-1.23","","<img src=""img/purple-n.png"" border=""10"">","null","trial","null","","0.4,0.6","4:nogo_d","0",""
"null","","html-keyboard-response","652","727881","0.0-8.0-2.23","","<div style=""font-size:60px;"">+</div>","null","","","","","","",""
"484","","image-keyboard-response","653","728365","0.0-8.0-0.24","","img/purple.png","32","trial","null","false","0.4,0.6","4:nogo_d","",""
"null","","html-keyboard-response","654","729381","0.0-8.0-1.24","","<img src=""img/purple-n.png"" border=""10"">","null","trial","null","","0.4,0.6","4:nogo_d","0",""
"null","","html-keyboard-response","655","730401","0.0-8.0-2.24","","<div style=""font-size:60px;"">+</div>","null","","","","","","",""
"475","","image-keyboard-response","656","730877","0.0-8.0-0.25","","img/pink.png","32","trial","32","true","0.8,0.2","1:go_a","",""
"null","","html-keyboard-response","657","731880","0.0-8.0-1.25","","<img src=""img/pink-r.png"" border=""10"">","null","trial","32","","0.8,0.2","1:go_a","1",""
"null","","html-keyboard-response","658","732901","0.0-8.0-2.25","","<div style=""font-size:60px;"">+</div>","null","","","","","","",""
"null","","image-keyboard-response","659","734411","0.0-8.0-0.26","","img/yellow.png","null","trial","null","true","0.2,0.8","2:nogo_b","",""
"null","","html-keyboard-response","660","735420","0.0-8.0-1.26","","<img src=""img/yellow-r.png"">","null","trial","null","","0.2,0.8","2:nogo_b","1",""
"null","","html-keyboard-response","661","736441","0.0-8.0-2.26","","<div style=""font-size:60px;"">+</div>","null","","","","","","",""
"819","","image-keyboard-response","662","737261","0.0-8.0-0.27","","img/red.png","32","trial","32","true","0.6,0.4","3:go_c","",""
"null","","html-keyboard-response","663","738280","0.0-8.0-1.27","","<img src=""img/red-n.png"" border=""10"">","null","trial","32","","0.6,0.4","3:go_c","0",""
"null","","html-keyboard-response","664","739301","0.0-8.0-2.27","","<div style=""font-size:60px;"">+</div>","null","","","","","","",""
"615","","image-keyboard-response","665","739916","0.0-8.0-0.28","","img/pink.png","32","trial","32","true","0.8,0.2","1:go_a","",""
"null","","html-keyboard-response","666","740929","0.0-8.0-1.28","","<img src=""img/pink-r.png"" border=""10"">","null","trial","32","","0.8,0.2","1:go_a","1",""
"null","","html-keyboard-response","667","741931","0.0-8.0-2.28","","<div style=""font-size:60px;"">+</div>","null","","","","","","",""
"513","","image-keyboard-response","668","742445","0.0-8.0-0.29","","img/yellow.png","32","trial","null","false","0.2,0.8","2:nogo_b","",""
"null","","html-keyboard-response","669","743460","0.0-8.0-1.29","","<img src=""img/yellow-n.png"" border=""10"">","null","trial","null","","0.2,0.8","2:nogo_b","0",""
"null","","html-keyboard-response","670","744470","0.0-8.0-2.29","","<div style=""font-size:60px;"">+</div>","null","","","","","","",""
"null","","image-keyboard-response","671","745980","0.0-8.0-0.30","","img/red.png","null","trial","32","false","0.6,0.4","3:go_c","",""
"null","","html-keyboard-response","672","746990","0.0-8.0-1.30","","<img src=""img/red-n.png"">","null","trial","32","","0.6,0.4","3:go_c","0",""
"null","","html-keyboard-response","673","748001","0.0-8.0-2.30","","<div style=""font-size:60px;"">+</div>","null","","","","","","",""
"683","","image-keyboard-response","674","748685","0.0-8.0-0.31","","img/purple.png","32","trial","null","false","0.4,0.6","4:nogo_d","",""
"null","","html-keyboard-response","675","749690","0.0-8.0-1.31","","<img src=""img/purple-n.png"" border=""10"">","null","trial","null","","0.4,0.6","4:nogo_d","0",""
"null","","html-keyboard-response","676","750710","0.0-8.0-2.31","","<div style=""font-size:60px;"">+</div>","null","","","","","","",""
"null","","image-keyboard-response","677","752220","0.0-8.0-0.32","","img/red.png","null","trial","32","false","0.6,0.4","3:go_c","",""
"null","","html-keyboard-response","678","753241","0.0-8.0-1.32","","<img src=""img/red-n.png"">","null","trial","32","","0.6,0.4","3:go_c","0",""
"null","","html-keyboard-response","679","754250","0.0-8.0-2.32","","<div style=""font-size:60px;"">+</div>","null","","","","","","",""
"529","","image-keyboard-response","680","754781","0.0-8.0-0.33","","img/pink.png","32","trial","32","true","0.8,0.2","1:go_a","",""
"null","","html-keyboard-response","681","755800","0.0-8.0-1.33","","<img src=""img/pink-r.png"" border=""10"">","null","trial","32","","0.8,0.2","1:go_a","1",""
"null","","html-keyboard-response","682","756820","0.0-8.0-2.33","","<div style=""font-size:60px;"">+</div>","null","","","","","","",""
"null","","image-keyboard-response","683","758340","0.0-8.0-0.34","","img/yellow.png","null","trial","null","true","0.2,0.8","2:nogo_b","",""
"null","","html-keyboard-response","684","759360","0.0-8.0-1.34","","<img src=""img/yellow-r.png"">","null","trial","null","","0.2,0.8","2:nogo_b","1",""
"null","","html-keyboard-response","685","760370","0.0-8.0-2.34","","<div style=""font-size:60px;"">+</div>","null","","","","","","",""
"762","","image-keyboard-response","686","761132","0.0-8.0-0.35","","img/purple.png","32","trial","null","false","0.4,0.6","4:nogo_d","",""
"null","","html-keyboard-response","687","762140","0.0-8.0-1.35","","<img src=""img/purple-n.png"" border=""10"">","null","trial","null","","0.4,0.6","4:nogo_d","0",""
"null","","html-keyboard-response","688","763160","0.0-8.0-2.35","","<div style=""font-size:60px;"">+</div>","null","","","","","","",""
"787","","image-keyboard-response","689","763948","0.0-8.0-0.36","","img/yellow.png","32","trial","null","false","0.2,0.8","2:nogo_b","",""
"null","","html-keyboard-response","690","764957","0.0-8.0-1.36","","<img src=""img/yellow-n.png"" border=""10"">","null","trial","null","","0.2,0.8","2:nogo_b","0",""
"null","","html-keyboard-response","691","765966","0.0-8.0-2.36","","<div style=""font-size:60px;"">+</div>","null","","","","","","",""
"null","","image-keyboard-response","692","767476","0.0-8.0-0.37","","img/purple.png","null","trial","null","true","0.4,0.6","4:nogo_d","",""
"null","","html-keyboard-response","693","768481","0.0-8.0-1.37","","<img src=""img/purple-r.png"">","null","trial","null","","0.4,0.6","4:nogo_d","1",""
"null","","html-keyboard-response","694","769490","0.0-8.0-2.37","","<div style=""font-size:60px;"">+</div>","null","","","","","","",""
"553","","image-keyboard-response","695","770045","0.0-8.0-0.38","","img/pink.png","32","trial","32","true","0.8,0.2","1:go_a","",""
