"rt","url","trial_type","trial_index","time_elapsed","internal_node_id","view_history","stimulus","key_press","test_part","correct_response","correct","use_rew","which_stim","reward","responses"
"11627.994999998919","consent.html","external-html","0","11720","0.0-0.0","","","","","","","","","",""
"572731.8350000005","","instructions","1","584454","0.0-1.0","[{""page_index"":0,""viewing_time"":11846.315000000686},{""page_index"":1,""viewing_time"":159761.25499999942},{""page_index"":2,""viewing_time"":30765.810000000813},{""page_index"":3,""viewing_time"":262842.059999999},{""page_index"":4,""viewing_time"":36236.980000001495},{""page_index"":5,""viewing_time"":30004.20499999926},{""page_index"":6,""viewing_time"":41271.8600000008}]","","","","","","","","",""
"null","","image-keyboard-response","2","585965","0.0-2.0-0.0","","img/test3.PNG","null","practice","null","true","","","",""
"null","","html-keyboard-response","3","586973","0.0-2.0-1.0","","<img src=""img/test3-reward.PNG"">","null","","","","","","",""
"null","","html-keyboard-response","4","587981","0.0-2.0-2.0","","<div style=""font-size:60px;"">+</div>","null","","","","","","",""
"507.81999999890104","","image-keyboard-response","5","588491","0.0-2.0-0.1","","img/test1.PNG","32","practice","32","true","","","",""
"null","","html-keyboard-response","6","589499","0.0-2.0-1.1","","<img src=""img/test1-reward.PNG"" border=""10px; grey"">","null","","","","","","",""
"null","","html-keyboard-response","7","590516","0.0-2.0-2.1","","<div style=""font-size:60px;"">+</div>","null","","","","","","",""
"null","","image-keyboard-response","8","592024","0.0-2.0-0.2","","img/test2.PNG","null","practice","null","true","","","",""
"null","","html-keyboard-response","9","593026","0.0-2.0-1.2","","<img src=""img/test2-reward.PNG"">","null","","","","","","",""
"null","","html-keyboard-response","10","594034","0.0-2.0-2.2","","<div style=""font-size:60px;"">+</div>","null","","","","","","",""
"null","","image-keyboard-response","11","595540","0.0-2.0-0.3","","img/test2.PNG","null","practice","null","true","","","",""
"null","","html-keyboard-response","12","596552","0.0-2.0-1.3","","<img src=""img/test2-reward.PNG"">","null","","","","","","",""
"null","","html-keyboard-response","13","597564","0.0-2.0-2.3","","<div style=""font-size:60px;"">+</div>","null","","","","","","",""
"null","","image-keyboard-response","14","599071","0.0-2.0-0.4","","img/test3.PNG","null","practice","null","true","","","",""
"null","","html-keyboard-response","15","600076","0.0-2.0-1.4","","<img src=""img/test3-reward.PNG"">","null","","","","","","",""
"null","","html-keyboard-response","16","601089","0.0-2.0-2.4","","<div style=""font-size:60px;"">+</div>","null","","","","","","",""
"577.2400000005728","","image-keyboard-response","17","601668","0.0-2.0-0.5","","img/test1.PNG","32","practice","32","true","","","",""
"null","","html-keyboard-response","18","602678","0.0-2.0-1.5","","<img src=""img/test1-reward.PNG"" border=""10px; grey"">","null","","","","","","",""
"null","","html-keyboard-response","19","603686","0.0-2.0-2.5","","<div style=""font-size:60px;"">+</div>","null","","","","","","",""
"500.5550000005169","","image-keyboard-response","20","604189","0.0-2.0-0.6","","img/test1.PNG","32","practice","32","true","","","",""
"null","","html-keyboard-response","21","605194","0.0-2.0-1.6","","<img src=""img/test1-reward.PNG"" border=""10px; grey"">","null","","","","","","",""
"null","","html-keyboard-response","22","606210","0.0-2.0-2.6","","<div style=""font-size:60px;"">+</div>","null","","","","","","",""
"null","","image-keyboard-response","23","607718","0.0-2.0-0.7","","img/test3.PNG","null","practice","null","true","","","",""
"null","","html-keyboard-response","24","608724","0.0-2.0-1.7","","<img src=""img/test3-reward.PNG"">","null","","","","","","",""
"null","","html-keyboard-response","25","609733","0.0-2.0-2.7","","<div style=""font-size:60px;"">+</div>","null","","","","","","",""
"null","","image-keyboard-response","26","611240","0.0-2.0-0.8","","img/test2.PNG","null","practice","null","true","","","",""
"null","","html-keyboard-response","27","612248","0.0-2.0-1.8","","<img src=""img/test2-reward.PNG"">","null","","","","","","",""
"null","","html-keyboard-response","28","613258","0.0-2.0-2.8","","<div style=""font-size:60px;"">+</div>","null","","","","","","",""
"null","","image-keyboard-response","29","614761","0.0-2.0-0.9","","img/test3.PNG","null","practice","null","true","","","",""
"null","","html-keyboard-response","30","615766","0.0-2.0-1.9","","<img src=""img/test3-reward.PNG"">","null","","","","","","",""
"null","","html-keyboard-response","31","616773","0.0-2.0-2.9","","<div style=""font-size:60px;"">+</div>","null","","","","","","",""
"505.440000000759","","image-keyboard-response","32","617280","0.0-2.0-0.10","","img/test1.PNG","32","practice","32","true","","","",""
"null","","html-keyboard-response","33","618284","0.0-2.0-1.10","","<img src=""img/test1-reward.PNG"" border=""10px; grey"">","null","","","","","","",""
"null","","html-keyboard-response","34","619299","0.0-2.0-2.10","","<div style=""font-size:60px;"">+</div>","null","","","","","","",""
"null","","image-keyboard-response","35","620802","0.0-2.0-0.11","","img/test2.PNG","null","practice","null","true","","","",""
"null","","html-keyboard-response","36","621808","0.0-2.0-1.11","","<img src=""img/test2-reward.PNG"">","null","","","","","","",""
"null","","html-keyboard-response","37","622812","0.0-2.0-2.11","","<div style=""font-size:60px;"">+</div>","null","","","","","","",""
"3113.820000000531","","instructions","38","625927","0.0-3.0","[{""page_index"":0,""viewing_time"":3113.2600000001257}]","","","","","","","","",""
"null","","image-keyboard-response","39","627437","0.0-4.0-0.0","","img/grey.png","null","trial","null","true","0.2,0.8","2:nogo_b","",""
"null","","html-keyboard-response","40","628448","0.0-4.0-1.0","","<img src=""img/grey-r.png"">","null","trial","null","","0.2,0.8","2:nogo_b","1",""
"null","","html-keyboard-response","41","629458","0.0-4.0-2.0","","<div style=""font-size:60px;"">+</div>","null","","","","","","",""
"null","","image-keyboard-response","42","630966","0.0-4.0-0.1","","img/blue.png","null","trial","32","false","0.8,0.2","1:go_a","",""
"null","","html-keyboard-response","43","631976","0.0-4.0-1.1","","<img src=""img/blue-n.png"">","null","trial","32","","0.8,0.2","1:go_a","0",""
"null","","html-keyboard-response","44","632978","0.0-4.0-2.1","","<div style=""font-size:60px;"">+</div>","null","","","","","","",""
"null","","image-keyboard-response","45","634483","0.0-4.0-0.2","","img/blue.png","null","trial","32","false","0.8,0.2","1:go_a","",""
"null","","html-keyboard-response","46","635488","0.0-4.0-1.2","","<img src=""img/blue-n.png"">","null","trial","32","","0.8,0.2","1:go_a","0",""
"null","","html-keyboard-response","47","636497","0.0-4.0-2.2","","<div style=""font-size:60px;"">+</div>","null","","","","","","",""
"548.9400000006426","","image-keyboard-response","48","637048","0.0-4.0-0.3","","img/grey.png","32","trial","null","false","0.2,0.8","2:nogo_b","",""
"null","","html-keyboard-response","49","638058","0.0-4.0-1.3","","<img src=""img/grey-n.png"" border=""10"">","null","trial","null","","0.2,0.8","2:nogo_b","0",""
"null","","html-keyboard-response","50","639069","0.0-4.0-2.3","","<div style=""font-size:60px;"">+</div>","null","","","","","","",""
"null","","image-keyboard-response","51","640573","0.0-4.0-0.4","","img/grey.png","null","trial","null","true","0.2,0.8","2:nogo_b","",""
"null","","html-keyboard-response","52","641591","0.0-4.0-1.4","","<img src=""img/grey-r.png"">","null","trial","null","","0.2,0.8","2:nogo_b","1",""
"null","","html-keyboard-response","53","642596","0.0-4.0-2.4","","<div style=""font-size:60px;"">+</div>","null","","","","","","",""
"628.5050000005867","","image-keyboard-response","54","643226","0.0-4.0-0.5","","img/blue.png","32","trial","32","true","0.8,0.2","1:go_a","",""
"null","","html-keyboard-response","55","644235","0.0-4.0-1.5","","<img src=""img/blue-r.png"" border=""10"">","null","trial","32","","0.8,0.2","1:go_a","1",""
"null","","html-keyboard-response","56","645241","0.0-4.0-2.5","","<div style=""font-size:60px;"">+</div>","null","","","","","","",""
"null","","image-keyboard-response","57","646745","0.0-4.0-0.6","","img/grey.png","null","trial","null","true","0.2,0.8","2:nogo_b","",""
"null","","html-keyboard-response","58","647755","0.0-4.0-1.6","","<img src=""img/grey-r.png"">","null","trial","null","","0.2,0.8","2:nogo_b","1",""
"null","","html-keyboard-response","59","648762","0.0-4.0-2.6","","<div style=""font-size:60px;"">+</div>","null","","","","","","",""
"456.7950000000419","","image-keyboard-response","60","649221","0.0-4.0-0.7","","img/blue.png","32","trial","32","true","0.8,0.2","1:go_a","",""
"null","","html-keyboard-response","61","650231","0.0-4.0-1.7","","<img src=""img/blue-n.png"" border=""10"">","null","trial","32","","0.8,0.2","1:go_a","0",""
"null","","html-keyboard-response","62","651247","0.0-4.0-2.7","","<div style=""font-size:60px;"">+</div>","null","","","","","","",""
"1086.1649999987567","","image-keyboard-response","63","652335","0.0-4.0-0.8","","img/grey.png","32","trial","null","false","0.2,0.8","2:nogo_b","",""
"null","","html-keyboard-response","64","653345","0.0-4.0-1.8","","<img src=""img/grey-n.png"" border=""10"">","null","trial","null","","0.2,0.8","2:nogo_b","0",""
"null","","html-keyboard-response","65","654357","0.0-4.0-2.8","","<div style=""font-size:60px;"">+</div>","null","","","","","","",""
"401.9000000008382","","image-keyboard-response","66","654761","0.0-4.0-0.9","","img/blue.png","32","trial","32","true","0.8,0.2","1:go_a","",""
"null","","html-keyboard-response","67","655770","0.0-4.0-1.9","","<img src=""img/blue-n.png"" border=""10"">","null","trial","32","","0.8,0.2","1:go_a","0",""
"null","","html-keyboard-response","68","656777","0.0-4.0-2.9","","<div style=""font-size:60px;"">+</div>","null","","","","","","",""
"null","","image-keyboard-response","69","658280","0.0-4.0-0.10","","img/blue.png","null","trial","32","false","0.8,0.2","1:go_a","",""
"null","","html-keyboard-response","70","659293","0.0-4.0-1.10","","<img src=""img/blue-n.png"">","null","trial","32","","0.8,0.2","1:go_a","0",""
"null","","html-keyboard-response","71","660298","0.0-4.0-2.10","","<div style=""font-size:60px;"">+</div>","null","","","","","","",""
"null","","image-keyboard-response","72","661802","0.0-4.0-0.11","","img/grey.png","null","trial","null","true","0.2,0.8","2:nogo_b","",""
"null","","html-keyboard-response","73","662815","0.0-4.0-1.11","","<img src=""img/grey-r.png"">","null","trial","null","","0.2,0.8","2:nogo_b","1",""
"null","","html-keyboard-response","74","663829","0.0-4.0-2.11","","<div style=""font-size:60px;"">+</div>","null","","","","","","",""
"null","","image-keyboard-response","75","665333","0.0-4.0-0.12","","img/grey.png","null","trial","null","true","0.2,0.8","2:nogo_b","",""
"null","","html-keyboard-response","76","666345","0.0-4.0-1.12","","<img src=""img/grey-n.png"">","null","trial","null","","0.2,0.8","2:nogo_b","0",""
"null","","html-keyboard-response","77","667349","0.0-4.0-2.12","","<div style=""font-size:60px;"">+</div>","null","","","","","","",""
"423.35000000090804","","image-keyboard-response","78","667774","0.0-4.0-0.13","","img/blue.png","32","trial","32","true","0.8,0.2","1:go_a","",""
"null","","html-keyboard-response","79","668778","0.0-4.0-1.13","","<img src=""img/blue-r.png"" border=""10"">","null","trial","32","","0.8,0.2","1:go_a","1",""
"null","","html-keyboard-response","80","669781","0.0-4.0-2.13","","<div style=""font-size:60px;"">+</div>","null","","","","","","",""
"null","","image-keyboard-response","81","671289","0.0-4.0-0.14","","img/blue.png","null","trial","32","false","0.8,0.2","1:go_a","",""
"null","","html-keyboard-response","82","672296","0.0-4.0-1.14","","<img src=""img/blue-n.png"">","null","trial","32","","0.8,0.2","1:go_a","0",""
"null","","html-keyboard-response","83","673303","0.0-4.0-2.14","","<div style=""font-size:60px;"">+</div>","null","","","","","","",""
"803.9499999996042","","image-keyboard-response","84","674108","0.0-4.0-0.15","","img/grey.png","32","trial","null","false","0.2,0.8","2:nogo_b","",""
"null","","html-keyboard-response","85","675117","0.0-4.0-1.15","","<img src=""img/grey-n.png"" border=""10"">","null","trial","null","","0.2,0.8","2:nogo_b","0",""
"null","","html-keyboard-response","86","676123","0.0-4.0-2.15","","<div style=""font-size:60px;"">+</div>","null","","","","","","",""
"null","","image-keyboard-response","87","677631","0.0-4.0-0.16","","img/grey.png","null","trial","null","true","0.2,0.8","2:nogo_b","",""
"null","","html-keyboard-response","88","678641","0.0-4.0-1.16","","<img src=""img/grey-n.png"">","null","trial","null","","0.2,0.8","2:nogo_b","0",""
"null","","html-keyboard-response","89","679655","0.0-4.0-2.16","","<div style=""font-size:60px;"">+</div>","null","","","","","","",""
"458.67499999993015","","image-keyboard-response","90","680115","0.0-4.0-0.17","","img/blue.png","32","trial","32","true","0.8,0.2","1:go_a","",""
"null","","html-keyboard-response","91","681132","0.0-4.0-1.17","","<img src=""img/blue-n.png"" border=""10"">","null","trial","32","","0.8,0.2","1:go_a","0",""
"null","","html-keyboard-response","92","682141","0.0-4.0-2.17","","<div style=""font-size:60px;"">+</div>","null","","","","","","",""
"null","","image-keyboard-response","93","683649","0.0-4.0-0.18","","img/grey.png","null","trial","null","true","0.2,0.8","2:nogo_b","",""
"null","","html-keyboard-response","94","684655","0.0-4.0-1.18","","<img src=""img/grey-r.png"">","null","trial","null","","0.2,0.8","2:nogo_b","1",""
"null","","html-keyboard-response","95","685667","0.0-4.0-2.18","","<div style=""font-size:60px;"">+</div>","null","","","","","","",""
"699.5700000006473","","image-keyboard-response","96","686368","0.0-4.0-0.19","","img/blue.png","32","trial","32","true","0.8,0.2","1:go_a","",""
"null","","html-keyboard-response","97","687377","0.0-4.0-1.19","","<img src=""img/blue-r.png"" border=""10"">","null","trial","32","","0.8,0.2","1:go_a","1",""
"null","","html-keyboard-response","98","688387","0.0-4.0-2.19","","<div style=""font-size:60px;"">+</div>","null","","","","","","",""
"null","","image-keyboard-response","99","689897","0.0-4.0-0.20","","img/grey.png","null","trial","null","true","0.2,0.8","2:nogo_b","",""
"null","","html-keyboard-response","100","690903","0.0-4.0-1.20","","<img src=""img/grey-r.png"">","null","trial","null","","0.2,0.8","2:nogo_b","1",""
"null","","html-keyboard-response","101","691909","0.0-4.0-2.20","","<div style=""font-size:60px;"">+</div>","null","","","","","","",""
"553.5349999991013","","image-keyboard-response","102","692464","0.0-4.0-0.21","","img/blue.png","32","trial","32","true","0.8,0.2","1:go_a","",""
"null","","html-keyboard-response","103","693471","0.0-4.0-1.21","","<img src=""img/blue-r.png"" border=""10"">","null","trial","32","","0.8,0.2","1:go_a","1",""
"null","","html-keyboard-response","104","694481","0.0-4.0-2.21","","<div style=""font-size:60px;"">+</div>","null","","","","","","",""
"null","","image-keyboard-response","105","695985","0.0-4.0-0.22","","img/grey.png","null","trial","null","true","0.2,0.8","2:nogo_b","",""
"null","","html-keyboard-response","106","696993","0.0-4.0-1.22","","<img src=""img/grey-n.png"">","null","trial","null","","0.2,0.8","2:nogo_b","0",""
"null","","html-keyboard-response","107","698001","0.0-4.0-2.22","","<div style=""font-size:60px;"">+</div>","null","","","","","","",""
"510.06000000052154","","image-keyboard-response","108","698513","0.0-4.0-0.23","","img/blue.png","32","trial","32","true","0.8,0.2","1:go_a","",""
"null","","html-keyboard-response","109","699519","0.0-4.0-1.23","","<img src=""img/blue-r.png"" border=""10"">","null","trial","32","","0.8,0.2","1:go_a","1",""
"null","","html-keyboard-response","110","700525","0.0-4.0-2.23","","<div style=""font-size:60px;"">+</div>","null","","","","","","",""
"null","","image-keyboard-response","111","702030","0.0-4.0-0.24","","img/grey.png","null","trial","null","true","0.2,0.8","2:nogo_b","",""
"null","","html-keyboard-response","112","703035","0.0-4.0-1.24","","<img src=""img/grey-r.png"">","null","trial","null","","0.2,0.8","2:nogo_b","1",""
"null","","html-keyboard-response","113","704038","0.0-4.0-2.24","","<div style=""font-size:60px;"">+</div>","null","","","","","","",""
"533.9650000004331","","image-keyboard-response","114","704573","0.0-4.0-0.25","","img/blue.png","32","trial","32","true","0.8,0.2","1:go_a","",""
"null","","html-keyboard-response","115","705581","0.0-4.0-1.25","","<img src=""img/blue-r.png"" border=""10"">","null","trial","32","","0.8,0.2","1:go_a","1",""
"null","","html-keyboard-response","116","706589","0.0-4.0-2.25","","<div style=""font-size:60px;"">+</div>","null","","","","","","",""
"null","","image-keyboard-response","117","708092","0.0-4.0-0.26","","img/grey.png","null","trial","null","true","0.2,0.8","2:nogo_b","",""
"null","","html-keyboard-response","118","709107","0.0-4.0-1.26","","<img src=""img/grey-r.png"">","null","trial","null","","0.2,0.8","2:nogo_b","1",""
"null","","html-keyboard-response","119","710116","0.0-4.0-2.26","","<div style=""font-size:60px;"">+</div>","null","","","","","","",""
"884.1750000010943","","image-keyboard-response","120","711002","0.0-4.0-0.27","","img/blue.png","32","trial","32","true","0.8,0.2","1:go_a","",""
"null","","html-keyboard-response","121","712017","0.0-4.0-1.27","","<img src=""img/blue-r.png"" border=""10"">","null","trial","32","","0.8,0.2","1:go_a","1",""
"null","","html-keyboard-response","122","713023","0.0-4.0-2.27","","<div style=""font-size:60px;"">+</div>","null","","","","","","",""
"1212.2749999999069","","image-keyboard-response","123","714237","0.0-4.0-0.28","","img/grey.png","32","trial","null","false","0.2,0.8","2:nogo_b","",""
"null","","html-keyboard-response","124","715243","0.0-4.0-1.28","","<img src=""img/grey-r.png"" border=""10"">","null","trial","null","","0.2,0.8","2:nogo_b","1",""
"null","","html-keyboard-response","125","716249","0.0-4.0-2.28","","<div style=""font-size:60px;"">+</div>","null","","","","","","",""
"822.2949999999255","","image-keyboard-response","126","717073","0.0-4.0-0.29","","img/blue.png","32","trial","32","true","0.8,0.2","1:go_a","",""
"null","","html-keyboard-response","127","718083","0.0-4.0-1.29","","<img src=""img/blue-r.png"" border=""10"">","null","trial","32","","0.8,0.2","1:go_a","1",""
"null","","html-keyboard-response","128","719094","0.0-4.0-2.29","","<div style=""font-size:60px;"">+</div>","null","","","","","","",""
"null","","image-keyboard-response","129","720603","0.0-4.0-0.30","","img/blue.png","null","trial","32","false","0.8,0.2","1:go_a","",""
"null","","html-keyboard-response","130","721608","0.0-4.0-1.30","","<img src=""img/blue-n.png"">","null","trial","32","","0.8,0.2","1:go_a","0",""
"null","","html-keyboard-response","131","722615","0.0-4.0-2.30","","<div style=""font-size:60px;"">+</div>","null","","","","","","",""
"552.2399999991758","","image-keyboard-response","132","723169","0.0-4.0-0.31","","img/grey.png","32","trial","null","false","0.2,0.8","2:nogo_b","",""
"null","","html-keyboard-response","133","724177","0.0-4.0-1.31","","<img src=""img/grey-n.png"" border=""10"">","null","trial","null","","0.2,0.8","2:nogo_b","0",""
"null","","html-keyboard-response","134","725189","0.0-4.0-2.31","","<div style=""font-size:60px;"">+</div>","null","","","","","","",""
"145.0199999999022","","image-keyboard-response","135","725336","0.0-4.0-0.32","","img/blue.png","32","trial","32","true","0.8,0.2","1:go_a","",""
"null","","html-keyboard-response","136","726342","0.0-4.0-1.32","","<img src=""img/blue-n.png"" border=""10"">","null","trial","32","","0.8,0.2","1:go_a","0",""
"null","","html-keyboard-response","137","727349","0.0-4.0-2.32","","<div style=""font-size:60px;"">+</div>","null","","","","","","",""
"null","","image-keyboard-response","138","728856","0.0-4.0-0.33","","img/grey.png","null","trial","null","true","0.2,0.8","2:nogo_b","",""
"null","","html-keyboard-response","139","729863","0.0-4.0-1.33","","<img src=""img/grey-r.png"">","null","trial","null","","0.2,0.8","2:nogo_b","1",""
"null","","html-keyboard-response","140","730869","0.0-4.0-2.33","","<div style=""font-size:60px;"">+</div>","null","","","","","","",""
"734.5899999999674","","image-keyboard-response","141","731606","0.0-4.0-0.34","","img/grey.png","32","trial","null","false","0.2,0.8","2:nogo_b","",""
"null","","html-keyboard-response","142","732615","0.0-4.0-1.34","","<img src=""img/grey-n.png"" border=""10"">","null","trial","null","","0.2,0.8","2:nogo_b","0",""
"null","","html-keyboard-response","143","733618","0.0-4.0-2.34","","<div style=""font-size:60px;"">+</div>","null","","","","","","",""
"584.1099999997532","","image-keyboard-response","144","734204","0.0-4.0-0.35","","img/blue.png","32","trial","32","true","0.8,0.2","1:go_a","",""
"null","","html-keyboard-response","145","735209","0.0-4.0-1.35","","<img src=""img/blue-r.png"" border=""10"">","null","trial","32","","0.8,0.2","1:go_a","1",""
"null","","html-keyboard-response","146","736213","0.0-4.0-2.35","","<div style=""font-size:60px;"">+</div>","null","","","","","","",""
"685.0749999994878","","image-keyboard-response","147","736900","0.0-4.0-0.36","","img/grey.png","32","trial","null","false","0.2,0.8","2:nogo_b","",""
"null","","html-keyboard-response","148","737907","0.0-4.0-1.36","","<img src=""img/grey-n.png"" border=""10"">","null","trial","null","","0.2,0.8","2:nogo_b","0",""
"null","","html-keyboard-response","149","738918","0.0-4.0-2.36","","<div style=""font-size:60px;"">+</div>","null","","","","","","",""
"526.6599999995669","","image-keyboard-response","150","739446","0.0-4.0-0.37","","img/blue.png","32","trial","32","true","0.8,0.2","1:go_a","",""
"null","","html-keyboard-response","151","740453","0.0-4.0-1.37","","<img src=""img/blue-r.png"" border=""10"">","null","trial","32","","0.8,0.2","1:go_a","1",""
"null","","html-keyboard-response","152","741473","0.0-4.0-2.37","","<div style=""font-size:60px;"">+</div>","null","","","","","","",""
"null","","image-keyboard-response","153","742981","0.0-4.0-0.38","","img/grey.png","null","trial","null","true","0.2,0.8","2:nogo_b","",""
"null","","html-keyboard-response","154","743987","0.0-4.0-1.38","","<img src=""img/grey-r.png"">","null","trial","null","","0.2,0.8","2:nogo_b","1",""
"null","","html-keyboard-response","155","744994","0.0-4.0-2.38","","<div style=""font-size:60px;"">+</div>","null","","","","","","",""
"null","","image-keyboard-response","156","746503","0.0-4.0-0.39","","img/blue.png","null","trial","32","false","0.8,0.2","1:go_a","",""
"null","","html-keyboard-response","157","747513","0.0-4.0-1.39","","<img src=""img/blue-n.png"">","null","trial","32","","0.8,0.2","1:go_a","0",""
"null","","html-keyboard-response","158","748529","0.0-4.0-2.39","","<div style=""font-size:60px;"">+</div>","null","","","","","","",""
"597.6599999994505","","image-keyboard-response","159","749128","0.0-4.0-0.40","","img/grey.png","32","trial","null","false","0.2,0.8","2:nogo_b","",""
"null","","html-keyboard-response","160","750136","0.0-4.0-1.40","","<img src=""img/grey-n.png"" border=""10"">","null","trial","null","","0.2,0.8","2:nogo_b","0",""
"null","","html-keyboard-response","161","751151","0.0-4.0-2.40","","<div style=""font-size:60px;"">+</div>","null","","","","","","",""
"300.5300000003772","","image-keyboard-response","162","751453","0.0-4.0-0.41","","img/blue.png","32","trial","32","true","0.8,0.2","1:go_a","",""
"null","","html-keyboard-response","163","752457","0.0-4.0-1.41","","<img src=""img/blue-r.png"" border=""10"">","null","trial","32","","0.8,0.2","1:go_a","1",""
"null","","html-keyboard-response","164","753461","0.0-4.0-2.41","","<div style=""font-size:60px;"">+</div>","null","","","","","","",""
"436.1249999983702","","image-keyboard-response","165","753899","0.0-4.0-0.42","","img/blue.png","32","trial","32","true","0.8,0.2","1:go_a","",""
"null","","html-keyboard-response","166","754905","0.0-4.0-1.42","","<img src=""img/blue-r.png"" border=""10"">","null","trial","32","","0.8,0.2","1:go_a","1",""
"null","","html-keyboard-response","167","755911","0.0-4.0-2.42","","<div style=""font-size:60px;"">+</div>","null","","","","","","",""
"556.0399999994552","","image-keyboard-response","168","756469","0.0-4.0-0.43","","img/grey.png","32","trial","null","false","0.2,0.8","2:nogo_b","",""
"null","","html-keyboard-response","169","757472","0.0-4.0-1.43","","<img src=""img/grey-r.png"" border=""10"">","null","trial","null","","0.2,0.8","2:nogo_b","1",""
"null","","html-keyboard-response","170","758477","0.0-4.0-2.43","","<div style=""font-size:60px;"">+</div>","null","","","","","","",""
"542.7599999984959","","image-keyboard-response","171","759022","0.0-4.0-0.44","","img/blue.png","32","trial","32","true","0.8,0.2","1:go_a","",""
"null","","html-keyboard-response","172","760026","0.0-4.0-1.44","","<img src=""img/blue-r.png"" border=""10"">","null","trial","32","","0.8,0.2","1:go_a","1",""
"null","","html-keyboard-response","173","761029","0.0-4.0-2.44","","<div style=""font-size:60px;"">+</div>","null","","","","","","",""
"556.6899999994785","","image-keyboard-response","174","761587","0.0-4.0-0.45","","img/grey.png","32","trial","null","false","0.2,0.8","2:nogo_b","",""
"null","","html-keyboard-response","175","762604","0.0-4.0-1.45","","<img src=""img/grey-n.png"" border=""10"">","null","trial","null","","0.2,0.8","2:nogo_b","0",""
"null","","html-keyboard-response","176","763620","0.0-4.0-2.45","","<div style=""font-size:60px;"">+</div>","null","","","","","","",""
"null","","image-keyboard-response","177","765124","0.0-4.0-0.46","","img/grey.png","null","trial","null","true","0.2,0.8","2:nogo_b","",""
"null","","html-keyboard-response","178","766133","0.0-4.0-1.46","","<img src=""img/grey-r.png"">","null","trial","null","","0.2,0.8","2:nogo_b","1",""
"null","","html-keyboard-response","179","767139","0.0-4.0-2.46","","<div style=""font-size:60px;"">+</div>","null","","","","","","",""
"683.1050000000978","","image-keyboard-response","180","767824","0.0-4.0-0.47","","img/blue.png","32","trial","32","true","0.8,0.2","1:go_a","",""
"null","","html-keyboard-response","181","768830","0.0-4.0-1.47","","<img src=""img/blue-r.png"" border=""10"">","null","trial","32","","0.8,0.2","1:go_a","1",""
"null","","html-keyboard-response","182","769843","0.0-4.0-2.47","","<div style=""font-size:60px;"">+</div>","null","","","","","","",""
"504.63499999942724","","image-keyboard-response","183","770349","0.0-4.0-0.48","","img/blue.png","32","trial","32","true","0.8,0.2","1:go_a","",""
"null","","html-keyboard-response","184","771353","0.0-4.0-1.48","","<img src=""img/blue-r.png"" border=""10"">","null","trial","32","","0.8,0.2","1:go_a","1",""
"null","","html-keyboard-response","185","772359","0.0-4.0-2.48","","<div style=""font-size:60px;"">+</div>","null","","","","","","",""
"null","","image-keyboard-response","186","773865","0.0-4.0-0.49","","img/grey.png","null","trial","null","true","0.2,0.8","2:nogo_b","",""
"null","","html-keyboard-response","187","774872","0.0-4.0-1.49","","<img src=""img/grey-r.png"">","null","trial","null","","0.2,0.8","2:nogo_b","1",""
"null","","html-keyboard-response","188","775881","0.0-4.0-2.49","","<div style=""font-size:60px;"">+</div>","null","","","","","","",""
"416.7949999991106","","image-keyboard-response","189","776300","0.0-4.0-0.50","","img/grey.png","32","trial","null","false","0.2,0.8","2:nogo_b","",""
"null","","html-keyboard-response","190","777309","0.0-4.0-1.50","","<img src=""img/grey-r.png"" border=""10"">","null","trial","null","","0.2,0.8","2:nogo_b","1",""
"null","","html-keyboard-response","191","778317","0.0-4.0-2.50","","<div style=""font-size:60px;"">+</div>","null","","","","","","",""
"331.12499999883585","","image-keyboard-response","192","778650","0.0-4.0-0.51","","img/blue.png","32","trial","32","true","0.8,0.2","1:go_a","",""
"null","","html-keyboard-response","193","779664","0.0-4.0-1.51","","<img src=""img/blue-r.png"" border=""10"">","null","trial","32","","0.8,0.2","1:go_a","1",""
"null","","html-keyboard-response","194","780667","0.0-4.0-2.51","","<div style=""font-size:60px;"">+</div>","null","","","","","","",""
"493.72500000020955","","image-keyboard-response","195","781163","0.0-4.0-0.52","","img/grey.png","32","trial","null","false","0.2,0.8","2:nogo_b","",""
"null","","html-keyboard-response","196","782172","0.0-4.0-1.52","","<img src=""img/grey-n.png"" border=""10"">","null","trial","null","","0.2,0.8","2:nogo_b","0",""
"null","","html-keyboard-response","197","783179","0.0-4.0-2.52","","<div style=""font-size:60px;"">+</div>","null","","","","","","",""
"542.0149999990826","","image-keyboard-response","198","783723","0.0-4.0-0.53","","img/blue.png","32","trial","32","true","0.8,0.2","1:go_a","",""
"null","","html-keyboard-response","199","784729","0.0-4.0-1.53","","<img src=""img/blue-n.png"" border=""10"">","null","trial","32","","0.8,0.2","1:go_a","0",""
"null","","html-keyboard-response","200","785733","0.0-4.0-2.53","","<div style=""font-size:60px;"">+</div>","null","","","","","","",""
"null","","image-keyboard-response","201","787243","0.0-4.0-0.54","","img/grey.png","null","trial","null","true","0.2,0.8","2:nogo_b","",""
"null","","html-keyboard-response","202","788249","0.0-4.0-1.54","","<img src=""img/grey-r.png"">","null","trial","null","","0.2,0.8","2:nogo_b","1",""
"null","","html-keyboard-response","203","789253","0.0-4.0-2.54","","<div style=""font-size:60px;"">+</div>","null","","","","","","",""
"403.2100000004284","","image-keyboard-response","204","789658","0.0-4.0-0.55","","img/blue.png","32","trial","32","true","0.8,0.2","1:go_a","",""
"null","","html-keyboard-response","205","790669","0.0-4.0-1.55","","<img src=""img/blue-r.png"" border=""10"">","null","trial","32","","0.8,0.2","1:go_a","1",""
"null","","html-keyboard-response","206","791675","0.0-4.0-2.55","","<div style=""font-size:60px;"">+</div>","null","","","","","","",""
"534.1300000000047","","image-keyboard-response","207","792211","0.0-4.0-0.56","","img/blue.png","32","trial","32","true","0.8,0.2","1:go_a","",""
"null","","html-keyboard-response","208","793217","0.0-4.0-1.56","","<img src=""img/blue-r.png"" border=""10"">","null","trial","32","","0.8,0.2","1:go_a","1",""
"null","","html-keyboard-response","209","794232","0.0-4.0-2.56","","<div style=""font-size:60px;"">+</div>","null","","","","","","",""
"361.1899999995949","","image-keyboard-response","210","794595","0.0-4.0-0.57","","img/grey.png","32","trial","null","false","0.2,0.8","2:nogo_b","",""
"null","","html-keyboard-response","211","795607","0.0-4.0-1.57","","<img src=""img/grey-n.png"" border=""10"">","null","trial","null","","0.2,0.8","2:nogo_b","0",""
"null","","html-keyboard-response","212","796623","0.0-4.0-2.57","","<div style=""font-size:60px;"">+</div>","null","","","","","","",""
"438.9749999991618","","image-keyboard-response","213","797064","0.0-4.0-0.58","","img/blue.png","32","trial","32","true","0.8,0.2","1:go_a","",""
"null","","html-keyboard-response","214","798073","0.0-4.0-1.58","","<img src=""img/blue-n.png"" border=""10"">","null","trial","32","","0.8,0.2","1:go_a","0",""
"null","","html-keyboard-response","215","799077","0.0-4.0-2.58","","<div style=""font-size:60px;"">+</div>","null","","","","","","",""
"532.774999999674","","image-keyboard-response","216","799612","0.0-4.0-0.59","","img/grey.png","32","trial","null","false","0.2,0.8","2:nogo_b","",""
"null","","html-keyboard-response","217","800623","0.0-4.0-1.59","","<img src=""img/grey-n.png"" border=""10"">","null","trial","null","","0.2,0.8","2:nogo_b","0",""
"null","","html-keyboard-response","218","801628","0.0-4.0-2.59","","<div style=""font-size:60px;"">+</div>","null","","","","","","",""
"9974.56500000041","","instructions","219","811603","0.0-5.0","[{""page_index"":0,""viewing_time"":9972.784999999916}]","","","","","","","","",""
"1410.9150000003865","","image-keyboard-response","220","813016","0.0-6.0-0.0","","img/orange.png","32","trial","32","true","1,0","3:go_c","",""
"null","","html-keyboard-response","221","814029","0.0-6.0-1.0","","<img src=""img/orange-r.png"" border=""10"">","null","trial","32","","1,0","3:go_c","1",""
"null","","html-keyboard-response","222","815043","0.0-6.0-2.0","","<div style=""font-size:60px;"">+</div>","null","","","","","","",""
"521.085000000312","","image-keyboard-response","223","815567","0.0-6.0-0.1","","img/green.png","32","trial","32","true","0.8,0.2","1:go_a","",""
"null","","html-keyboard-response","224","816574","0.0-6.0-1.1","","<img src=""img/green-r.png"" border=""10"">","null","trial","32","","0.8,0.2","1:go_a","1",""
"null","","html-keyboard-response","225","817583","0.0-6.0-2.1","","<div style=""font-size:60px;"">+</div>","null","","","","","","",""
"552.3149999990128","","image-keyboard-response","226","818137","0.0-6.0-0.2","","img/purple.png","32","trial","null","false","0,1","4:nogo_d","",""
"null","","html-keyboard-response","227","819147","0.0-6.0-1.2","","<img src=""img/purple-n.png"" border=""10"">","null","trial","null","","0,1","4:nogo_d","0",""
"null","","html-keyboard-response","228","820143","0.0-6.0-2.2","","<div style=""font-size:60px;"">+</div>","null","","","","","","",""
"null","","image-keyboard-response","229","821646","0.0-6.0-0.3","","img/pink.png","null","trial","null","true","0.2,0.8","2:nogo_b","",""
"null","","html-keyboard-response","230","822653","0.0-6.0-1.3","","<img src=""img/pink-r.png"">","null","trial","null","","0.2,0.8","2:nogo_b","1",""
"null","","html-keyboard-response","231","823663","0.0-6.0-2.3","","<div style=""font-size:60px;"">+</div>","null","","","","","","",""
"null","","image-keyboard-response","232","825172","0.0-6.0-0.4","","img/green.png","null","trial","32","false","0.8,0.2","1:go_a","",""
"null","","html-keyboard-response","233","826178","0.0-6.0-1.4","","<img src=""img/green-n.png"">","null","trial","32","","0.8,0.2","1:go_a","0",""
"null","","html-keyboard-response","234","827181","0.0-6.0-2.4","","<div style=""font-size:60px;"">+</div>","null","","","","","","",""
"626.6450000002515","","image-keyboard-response","235","827809","0.0-6.0-0.5","","img/orange.png","32","trial","32","true","1,0","3:go_c","",""
"null","","html-keyboard-response","236","828814","0.0-6.0-1.5","","<img src=""img/orange-r.png"" border=""10"">","null","trial","32","","1,0","3:go_c","1",""
"null","","html-keyboard-response","237","829818","0.0-6.0-2.5","","<div style=""font-size:60px;"">+</div>","null","","","","","","",""
"395.55500000098255","","image-keyboard-response","238","830216","0.0-6.0-0.6","","img/pink.png","32","trial","null","false","0.2,0.8","2:nogo_b","",""
"null","","html-keyboard-response","239","831220","0.0-6.0-1.6","","<img src=""img/pink-n.png"" border=""10"">","null","trial","null","","0.2,0.8","2:nogo_b","0",""
"null","","html-keyboard-response","240","832234","0.0-6.0-2.6","","<div style=""font-size:60px;"">+</div>","null","","","","","","",""
"493.5600000008708","","image-keyboard-response","241","832729","0.0-6.0-0.7","","img/purple.png","32","trial","null","false","0,1","4:nogo_d","",""
"null","","html-keyboard-response","242","833738","0.0-6.0-1.7","","<img src=""img/purple-n.png"" border=""10"">","null","trial","null","","0,1","4:nogo_d","0",""
"null","","html-keyboard-response","243","834742","0.0-6.0-2.7","","<div style=""font-size:60px;"">+</div>","null","","","","","","",""
"null","","image-keyboard-response","244","836250","0.0-6.0-0.8","","img/pink.png","null","trial","null","true","0.2,0.8","2:nogo_b","",""
"null","","html-keyboard-response","245","837260","0.0-6.0-1.8","","<img src=""img/pink-r.png"">","null","trial","null","","0.2,0.8","2:nogo_b","1",""
"null","","html-keyboard-response","246","838268","0.0-6.0-2.8","","<div style=""font-size:60px;"">+</div>","null","","","","","","",""
"636.819999999716","","image-keyboard-response","247","838907","0.0-6.0-0.9","","img/purple.png","32","trial","null","false","0,1","4:nogo_d","",""
"null","","html-keyboard-response","248","839922","0.0-6.0-1.9","","<img src=""img/purple-n.png"" border=""10"">","null","trial","null","","0,1","4:nogo_d","0",""
"null","","html-keyboard-response","249","840936","0.0-6.0-2.9","","<div style=""font-size:60px;"">+</div>","null","","","","","","",""
"448.3549999985844","","image-keyboard-response","250","841386","0.0-6.0-0.10","","img/green.png","32","trial","32","true","0.8,0.2","1:go_a","",""
"null","","html-keyboard-response","251","842391","0.0-6.0-1.10","","<img src=""img/green-r.png"" border=""10"">","null","trial","32","","0.8,0.2","1:go_a","1",""
"null","","html-keyboard-response","252","843401","0.0-6.0-2.10","","<div style=""font-size:60px;"">+</div>","null","","","","","","",""
"null","","image-keyboard-response","253","844904","0.0-6.0-0.11","","img/orange.png","null","trial","32","false","1,0","3:go_c","",""
"null","","html-keyboard-response","254","845908","0.0-6.0-1.11","","<img src=""img/orange-n.png"">","null","trial","32","","1,0","3:go_c","0",""
"null","","html-keyboard-response","255","846910","0.0-6.0-2.11","","<div style=""font-size:60px;"">+</div>","null","","","","","","",""
"692.5149999987334","","image-keyboard-response","256","847604","0.0-6.0-0.12","","img/pink.png","32","trial","null","false","0.2,0.8","2:nogo_b","",""
"null","","html-keyboard-response","257","848621","0.0-6.0-1.12","","<img src=""img/pink-r.png"" border=""10"">","null","trial","null","","0.2,0.8","2:nogo_b","1",""
"null","","html-keyboard-response","258","849630","0.0-6.0-2.12","","<div style=""font-size:60px;"">+</div>","null","","","","","","",""
"496.20999999938067","","image-keyboard-response","259","850129","0.0-6.0-0.13","","img/green.png","32","trial","32","true","0.8,0.2","1:go_a","",""
"null","","html-keyboard-response","260","851139","0.0-6.0-1.13","","<img src=""img/green-n.png"" border=""10"">","null","trial","32","","0.8,0.2","1:go_a","0",""
"null","","html-keyboard-response","261","852143","0.0-6.0-2.13","","<div style=""font-size:60px;"">+</div>","null","","","","","","",""
"566.069999998901","","image-keyboard-response","262","852711","0.0-6.0-0.14","","img/orange.png","32","trial","32","true","1,0","3:go_c","",""
"null","","html-keyboard-response","263","853720","0.0-6.0-1.14","","<img src=""img/orange-r.png"" border=""10"">","null","trial","32","","1,0","3:go_c","1",""
"null","","html-keyboard-response","264","854727","0.0-6.0-2.14","","<div style=""font-size:60px;"">+</div>","null","","","","","","",""
"null","","image-keyboard-response","265","856234","0.0-6.0-0.15","","img/purple.png","null","trial","null","true","0,1","4:nogo_d","",""
"null","","html-keyboard-response","266","857244","0.0-6.0-1.15","","<img src=""img/purple-r.png"">","null","trial","null","","0,1","4:nogo_d","1",""
"null","","html-keyboard-response","267","858252","0.0-6.0-2.15","","<div style=""font-size:60px;"">+</div>","null","","","","","","",""
"null","","image-keyboard-response","268","859761","0.0-6.0-0.16","","img/green.png","null","trial","32","false","0.8,0.2","1:go_a","",""
"null","","html-keyboard-response","269","860769","0.0-6.0-1.16","","<img src=""img/green-n.png"">","null","trial","32","","0.8,0.2","1:go_a","0",""
"null","","html-keyboard-response","270","861772","0.0-6.0-2.16","","<div style=""font-size:60px;"">+</div>","null","","","","","","",""
"703.3949999986216","","image-keyboard-response","271","862477","0.0-6.0-0.17","","img/orange.png","32","trial","32","true","1,0","3:go_c","",""
"null","","html-keyboard-response","272","863485","0.0-6.0-1.17","","<img src=""img/orange-r.png"" border=""10"">","null","trial","32","","1,0","3:go_c","1",""
"null","","html-keyboard-response","273","864489","0.0-6.0-2.17","","<div style=""font-size:60px;"">+</div>","null","","","","","","",""
"600.7449999996461","","image-keyboard-response","274","865091","0.0-6.0-0.18","","img/purple.png","32","trial","null","false","0,1","4:nogo_d","",""
"null","","html-keyboard-response","275","866094","0.0-6.0-1.18","","<img src=""img/purple-n.png"" border=""10"">","null","trial","null","","0,1","4:nogo_d","0",""
"null","","html-keyboard-response","276","867096","0.0-6.0-2.18","","<div style=""font-size:60px;"">+</div>","null","","","","","","",""
"461.5200000007171","","image-keyboard-response","277","867559","0.0-6.0-0.19","","img/pink.png","32","trial","null","false","0.2,0.8","2:nogo_b","",""
"null","","html-keyboard-response","278","868576","0.0-6.0-1.19","","<img src=""img/pink-r.png"" border=""10"">","null","trial","null","","0.2,0.8","2:nogo_b","1",""
"null","","html-keyboard-response","279","869586","0.0-6.0-2.19","","<div style=""font-size:60px;"">+</div>","null","","","","","","",""
"null","","image-keyboard-response","280","871092","0.0-6.0-0.20","","img/green.png","null","trial","32","false","0.8,0.2","1:go_a","",""
"null","","html-keyboard-response","281","872102","0.0-6.0-1.20","","<img src=""img/green-n.png"">","null","trial","32","","0.8,0.2","1:go_a","0",""
"null","","html-keyboard-response","282","873106","0.0-6.0-2.20","","<div style=""font-size:60px;"">+</div>","null","","","","","","",""
"471.66499999910593","","image-keyboard-response","283","873580","0.0-6.0-0.21","","img/orange.png","32","trial","32","true","1,0","3:go_c","",""
"null","","html-keyboard-response","284","874585","0.0-6.0-1.21","","<img src=""img/orange-r.png"" border=""10"">","null","trial","32","","1,0","3:go_c","1",""
"null","","html-keyboard-response","285","875593","0.0-6.0-2.21","","<div style=""font-size:60px;"">+</div>","null","","","","","","",""
"494.03499999979977","","image-keyboard-response","286","876089","0.0-6.0-0.22","","img/pink.png","32","trial","null","false","0.2,0.8","2:nogo_b","",""
"null","","html-keyboard-response","287","877096","0.0-6.0-1.22","","<img src=""img/pink-r.png"" border=""10"">","null","trial","null","","0.2,0.8","2:nogo_b","1",""
"null","","html-keyboard-response","288","878105","0.0-6.0-2.22","","<div style=""font-size:60px;"">+</div>","null","","","","","","",""
"451.8399999997346","","image-keyboard-response","289","878559","0.0-6.0-0.23","","img/purple.png","32","trial","null","false","0,1","4:nogo_d","",""
"null","","html-keyboard-response","290","879572","0.0-6.0-1.23","","<img src=""img/purple-n.png"" border=""10"">","null","trial","null","","0,1","4:nogo_d","0",""
"null","","html-keyboard-response","291","880580","0.0-6.0-2.23","","<div style=""font-size:60px;"">+</div>","null","","","","","","",""
"null","","image-keyboard-response","292","882092","0.0-6.0-0.24","","img/purple.png","null","trial","null","true","0,1","4:nogo_d","",""
"null","","html-keyboard-response","293","883107","0.0-6.0-1.24","","<img src=""img/purple-r.png"">","null","trial","null","","0,1","4:nogo_d","1",""
"null","","html-keyboard-response","294","884118","0.0-6.0-2.24","","<div style=""font-size:60px;"">+</div>","null","","","","","","",""
"514.5850000007777","","image-keyboard-response","295","884634","0.0-6.0-0.25","","img/orange.png","32","trial","32","true","1,0","3:go_c","",""
"null","","html-keyboard-response","296","885640","0.0-6.0-1.25","","<img src=""img/orange-r.png"" border=""10"">","null","trial","32","","1,0","3:go_c","1",""
"null","","html-keyboard-response","297","886650","0.0-6.0-2.25","","<div style=""font-size:60px;"">+</div>","null","","","","","","",""
"579.4100000003818","","image-keyboard-response","298","887231","0.0-6.0-0.26","","img/pink.png","32","trial","null","false","0.2,0.8","2:nogo_b","",""
"null","","html-keyboard-response","299","888241","0.0-6.0-1.26","","<img src=""img/pink-n.png"" border=""10"">","null","trial","null","","0.2,0.8","2:nogo_b","0",""
"null","","html-keyboard-response","300","889251","0.0-6.0-2.26","","<div style=""font-size:60px;"">+</div>","null","","","","","","",""
"851.1350000008242","","image-keyboard-response","301","890104","0.0-6.0-0.27","","img/green.png","32","trial","32","true","0.8,0.2","1:go_a","",""
"null","","html-keyboard-response","302","891115","0.0-6.0-1.27","","<img src=""img/green-n.png"" border=""10"">","null","trial","32","","0.8,0.2","1:go_a","0",""
"null","","html-keyboard-response","303","892123","0.0-6.0-2.27","","<div style=""font-size:60px;"">+</div>","null","","","","","","",""
"610.160000000149","","image-keyboard-response","304","892735","0.0-6.0-0.28","","img/orange.png","32","trial","32","true","1,0","3:go_c","",""
"null","","html-keyboard-response","305","893745","0.0-6.0-1.28","","<img src=""img/orange-r.png"" border=""10"">","null","trial","32","","1,0","3:go_c","1",""
"null","","html-keyboard-response","306","894749","0.0-6.0-2.28","","<div style=""font-size:60px;"">+</div>","null","","","","","","",""
"841.8900000015274","","image-keyboard-response","307","895593","0.0-6.0-0.29","","img/purple.png","32","trial","null","false","0,1","4:nogo_d","",""
"null","","html-keyboard-response","308","896600","0.0-6.0-1.29","","<img src=""img/purple-n.png"" border=""10"">","null","trial","null","","0,1","4:nogo_d","0",""
"null","","html-keyboard-response","309","897605","0.0-6.0-2.29","","<div style=""font-size:60px;"">+</div>","null","","","","","","",""
"null","","image-keyboard-response","310","899123","0.0-6.0-0.30","","img/pink.png","null","trial","null","true","0.2,0.8","2:nogo_b","",""
"null","","html-keyboard-response","311","900133","0.0-6.0-1.30","","<img src=""img/pink-n.png"">","null","trial","null","","0.2,0.8","2:nogo_b","0",""
"null","","html-keyboard-response","312","901141","0.0-6.0-2.30","","<div style=""font-size:60px;"">+</div>","null","","","","","","",""
"407.44500000064727","","image-keyboard-response","313","901551","0.0-6.0-0.31","","img/green.png","32","trial","32","true","0.8,0.2","1:go_a","",""
"null","","html-keyboard-response","314","902563","0.0-6.0-1.31","","<img src=""img/green-r.png"" border=""10"">","null","trial","32","","0.8,0.2","1:go_a","1",""
"null","","html-keyboard-response","315","903571","0.0-6.0-2.31","","<div style=""font-size:60px;"">+</div>","null","","","","","","",""
"null","","image-keyboard-response","316","905083","0.0-6.0-0.32","","img/pink.png","null","trial","null","true","0.2,0.8","2:nogo_b","",""
"null","","html-keyboard-response","317","906088","0.0-6.0-1.32","","<img src=""img/pink-r.png"">","null","trial","null","","0.2,0.8","2:nogo_b","1",""
"null","","html-keyboard-response","318","907091","0.0-6.0-2.32","","<div style=""font-size:60px;"">+</div>","null","","","","","","",""
"595.2550000001211","","image-keyboard-response","319","907688","0.0-6.0-0.33","","img/green.png","32","trial","32","true","0.8,0.2","1:go_a","",""
"null","","html-keyboard-response","320","908696","0.0-6.0-1.33","","<img src=""img/green-r.png"" border=""10"">","null","trial","32","","0.8,0.2","1:go_a","1",""
"null","","html-keyboard-response","321","909703","0.0-6.0-2.33","","<div style=""font-size:60px;"">+</div>","null","","","","","","",""
"437.58500000147615","","image-keyboard-response","322","910142","0.0-6.0-0.34","","img/orange.png","32","trial","32","true","1,0","3:go_c","",""
"null","","html-keyboard-response","323","911157","0.0-6.0-1.34","","<img src=""img/orange-r.png"" border=""10"">","null","trial","32","","1,0","3:go_c","1",""
"null","","html-keyboard-response","324","912166","0.0-6.0-2.34","","<div style=""font-size:60px;"">+</div>","null","","","","","","",""
"null","","image-keyboard-response","325","913673","0.0-6.0-0.35","","img/purple.png","null","trial","null","true","0,1","4:nogo_d","",""
"null","","html-keyboard-response","326","914681","0.0-6.0-1.35","","<img src=""img/purple-r.png"">","null","trial","null","","0,1","4:nogo_d","1",""
"null","","html-keyboard-response","327","915695","0.0-6.0-2.35","","<div style=""font-size:60px;"">+</div>","null","","","","","","",""
"698.2950000000419","","image-keyboard-response","328","916395","0.0-6.0-0.36","","img/green.png","32","trial","32","true","0.8,0.2","1:go_a","",""
"null","","html-keyboard-response","329","917404","0.0-6.0-1.36","","<img src=""img/green-r.png"" border=""10"">","null","trial","32","","0.8,0.2","1:go_a","1",""
"null","","html-keyboard-response","330","918414","0.0-6.0-2.36","","<div style=""font-size:60px;"">+</div>","null","","","","","","",""
"612.839999999851","","image-keyboard-response","331","919028","0.0-6.0-0.37","","img/pink.png","32","trial","null","false","0.2,0.8","2:nogo_b","",""
"null","","html-keyboard-response","332","920035","0.0-6.0-1.37","","<img src=""img/pink-n.png"" border=""10"">","null","trial","null","","0.2,0.8","2:nogo_b","0",""
"null","","html-keyboard-response","333","921039","0.0-6.0-2.37","","<div style=""font-size:60px;"">+</div>","null","","","","","","",""
"645.9599999998463","","image-keyboard-response","334","921686","0.0-6.0-0.38","","img/purple.png","32","trial","null","false","0,1","4:nogo_d","",""
"null","","html-keyboard-response","335","922690","0.0-6.0-1.38","","<img src=""img/purple-n.png"" border=""10"">","null","trial","null","","0,1","4:nogo_d","0",""
"null","","html-keyboard-response","336","923692","0.0-6.0-2.38","","<div style=""font-size:60px;"">+</div>","null","","","","","","",""
"null","","image-keyboard-response","337","925201","0.0-6.0-0.39","","img/orange.png","null","trial","32","false","1,0","3:go_c","",""
"null","","html-keyboard-response","338","926207","0.0-6.0-1.39","","<img src=""img/orange-n.png"">","null","trial","32","","1,0","3:go_c","0",""
"null","","html-keyboard-response","339","927211","0.0-6.0-2.39","","<div style=""font-size:60px;"">+</div>","null","","","","","","",""
"642.4999999998836","","image-keyboard-response","340","927856","0.0-6.0-0.40","","img/pink.png","32","trial","null","false","0.2,0.8","2:nogo_b","",""
"null","","html-keyboard-response","341","928863","0.0-6.0-1.40","","<img src=""img/pink-r.png"" border=""10"">","null","trial","null","","0.2,0.8","2:nogo_b","1",""
"null","","html-keyboard-response","342","929869","0.0-6.0-2.40","","<div style=""font-size:60px;"">+</div>","null","","","","","","",""
"448.47500000102445","","image-keyboard-response","343","930320","0.0-6.0-0.41","","img/green.png","32","trial","32","true","0.8,0.2","1:go_a","",""
"null","","html-keyboard-response","344","931337","0.0-6.0-1.41","","<img src=""img/green-r.png"" border=""10"">","null","trial","32","","0.8,0.2","1:go_a","1",""
"null","","html-keyboard-response","345","932341","0.0-6.0-2.41","","<div style=""font-size:60px;"">+</div>","null","","","","","","",""
"382.41500000003725","","image-keyboard-response","346","932725","0.0-6.0-0.42","","img/purple.png","32","trial","null","false","0,1","4:nogo_d","",""
"null","","html-keyboard-response","347","933729","0.0-6.0-1.42","","<img src=""img/purple-n.png"" border=""10"">","null","trial","null","","0,1","4:nogo_d","0",""
"null","","html-keyboard-response","348","934745","0.0-6.0-2.42","","<div style=""font-size:60px;"">+</div>","null","","","","","","",""
"755.8799999987241","","image-keyboard-response","349","935503","0.0-6.0-0.43","","img/orange.png","32","trial","32","true","1,0","3:go_c","",""
"null","","html-keyboard-response","350","936507","0.0-6.0-1.43","","<img src=""img/orange-r.png"" border=""10"">","null","trial","32","","1,0","3:go_c","1",""
"null","","html-keyboard-response","351","937511","0.0-6.0-2.43","","<div style=""font-size:60px;"">+</div>","null","","","","","","",""
"608.6800000012154","","image-keyboard-response","352","938122","0.0-6.0-0.44","","img/purple.png","32","trial","null","false","0,1","4:nogo_d","",""
"null","","html-keyboard-response","353","939130","0.0-6.0-1.44","","<img src=""img/purple-n.png"" border=""10"">","null","trial","null","","0,1","4:nogo_d","0",""
"null","","html-keyboard-response","354","940147","0.0-6.0-2.44","","<div style=""font-size:60px;"">+</div>","null","","","","","","",""
"636.9699999995064","","image-keyboard-response","355","940785","0.0-6.0-0.45","","img/orange.png","32","trial","32","true","1,0","3:go_c","",""
"null","","html-keyboard-response","356","941803","0.0-6.0-1.45","","<img src=""img/orange-r.png"" border=""10"">","null","trial","32","","1,0","3:go_c","1",""
"null","","html-keyboard-response","357","942808","0.0-6.0-2.45","","<div style=""font-size:60px;"">+</div>","null","","","","","","",""
"1153.8299999992596","","image-keyboard-response","358","943964","0.0-6.0-0.46","","img/pink.png","32","trial","null","false","0.2,0.8","2:nogo_b","",""
"null","","html-keyboard-response","359","944972","0.0-6.0-1.46","","<img src=""img/pink-n.png"" border=""10"">","null","trial","null","","0.2,0.8","2:nogo_b","0",""
"null","","html-keyboard-response","360","945976","0.0-6.0-2.46","","<div style=""font-size:60px;"">+</div>","null","","","","","","",""
"675.2850000011967","","image-keyboard-response","361","946653","0.0-6.0-0.47","","img/green.png","32","trial","32","true","0.8,0.2","1:go_a","",""
"null","","html-keyboard-response","362","947664","0.0-6.0-1.47","","<img src=""img/green-r.png"" border=""10"">","null","trial","32","","0.8,0.2","1:go_a","1",""
"null","","html-keyboard-response","363","948681","0.0-6.0-2.47","","<div style=""font-size:60px;"">+</div>","null","","","","","","",""
"497.58000000112224","","image-keyboard-response","364","949181","0.0-6.0-0.48","","img/green.png","32","trial","32","true","0.8,0.2","1:go_a","",""
"null","","html-keyboard-response","365","950194","0.0-6.0-1.48","","<img src=""img/green-r.png"" border=""10"">","null","trial","32","","0.8,0.2","1:go_a","1",""
"null","","html-keyboard-response","366","951207","0.0-6.0-2.48","","<div style=""font-size:60px;"">+</div>","null","","","","","","",""
"522.1199999996461","","image-keyboard-response","367","951731","0.0-6.0-0.49","","img/orange.png","32","trial","32","true","1,0","3:go_c","",""
"null","","html-keyboard-response","368","952735","0.0-6.0-1.49","","<img src=""img/orange-r.png"" border=""10"">","null","trial","32","","1,0","3:go_c","1",""
"null","","html-keyboard-response","369","953752","0.0-6.0-2.49","","<div style=""font-size:60px;"">+</div>","null","","","","","","",""
"null","","image-keyboard-response","370","955258","0.0-6.0-0.50","","img/purple.png","null","trial","null","true","0,1","4:nogo_d","",""
"null","","html-keyboard-response","371","956264","0.0-6.0-1.50","","<img src=""img/purple-r.png"">","null","trial","null","","0,1","4:nogo_d","1",""
"null","","html-keyboard-response","372","957279","0.0-6.0-2.50","","<div style=""font-size:60px;"">+</div>","null","","","","","","",""
"957.6999999990221","","image-keyboard-response","373","958238","0.0-6.0-0.51","","img/pink.png","32","trial","null","false","0.2,0.8","2:nogo_b","",""
"null","","html-keyboard-response","374","959246","0.0-6.0-1.51","","<img src=""img/pink-n.png"" border=""10"">","null","trial","null","","0.2,0.8","2:nogo_b","0",""
"null","","html-keyboard-response","375","960252","0.0-6.0-2.51","","<div style=""font-size:60px;"">+</div>","null","","","","","","",""
"885.1600000016624","","image-keyboard-response","376","961139","0.0-6.0-0.52","","img/green.png","32","trial","32","true","0.8,0.2","1:go_a","",""
"null","","html-keyboard-response","377","962144","0.0-6.0-1.52","","<img src=""img/green-r.png"" border=""10"">","null","trial","32","","0.8,0.2","1:go_a","1",""
"null","","html-keyboard-response","378","963152","0.0-6.0-2.52","","<div style=""font-size:60px;"">+</div>","null","","","","","","",""
"509.425000000163","","image-keyboard-response","379","963663","0.0-6.0-0.53","","img/orange.png","32","trial","32","true","1,0","3:go_c","",""
"null","","html-keyboard-response","380","964673","0.0-6.0-1.53","","<img src=""img/orange-r.png"" border=""10"">","null","trial","32","","1,0","3:go_c","1",""
"null","","html-keyboard-response","381","965685","0.0-6.0-2.53","","<div style=""font-size:60px;"">+</div>","null","","","","","","",""
"565.189999999362","","image-keyboard-response","382","966253","0.0-6.0-0.54","","img/purple.png","32","trial","null","false","0,1","4:nogo_d","",""
"null","","html-keyboard-response","383","967258","0.0-6.0-1.54","","<img src=""img/purple-n.png"" border=""10"">","null","trial","null","","0,1","4:nogo_d","0",""
"null","","html-keyboard-response","384","968271","0.0-6.0-2.54","","<div style=""font-size:60px;"">+</div>","null","","","","","","",""
"437.43499999982305","","image-keyboard-response","385","968710","0.0-6.0-0.55","","img/pink.png","32","trial","null","false","0.2,0.8","2:nogo_b","",""
"null","","html-keyboard-response","386","969718","0.0-6.0-1.55","","<img src=""img/pink-n.png"" border=""10"">","null","trial","null","","0.2,0.8","2:nogo_b","0",""
"null","","html-keyboard-response","387","970726","0.0-6.0-2.55","","<div style=""font-size:60px;"">+</div>","null","","","","","","",""
"null","","image-keyboard-response","388","972230","0.0-6.0-0.56","","img/purple.png","null","trial","null","true","0,1","4:nogo_d","",""
"null","","html-keyboard-response","389","973242","0.0-6.0-1.56","","<img src=""img/purple-r.png"">","null","trial","null","","0,1","4:nogo_d","1",""
"null","","html-keyboard-response","390","974258","0.0-6.0-2.56","","<div style=""font-size:60px;"">+</div>","null","","","","","","",""
"285.49499999999534","","image-keyboard-response","391","974546","0.0-6.0-0.57","","img/orange.png","32","trial","32","true","1,0","3:go_c","",""
"null","","html-keyboard-response","392","975561","0.0-6.0-1.57","","<img src=""img/orange-r.png"" border=""10"">","null","trial","32","","1,0","3:go_c","1",""
"null","","html-keyboard-response","393","976570","0.0-6.0-2.57","","<div style=""font-size:60px;"">+</div>","null","","","","","","",""
"109.7449999996461","","image-keyboard-response","394","976682","0.0-6.0-0.58","","img/green.png","32","trial","32","true","0.8,0.2","1:go_a","",""
"null","","html-keyboard-response","395","977692","0.0-6.0-1.58","","<img src=""img/green-r.png"" border=""10"">","null","trial","32","","0.8,0.2","1:go_a","1",""
"null","","html-keyboard-response","396","978702","0.0-6.0-2.58","","<div style=""font-size:60px;"">+</div>","null","","","","","","",""
"438.5599999987753","","image-keyboard-response","397","979143","0.0-6.0-0.59","","img/pink.png","32","trial","null","false","0.2,0.8","2:nogo_b","",""
"null","","html-keyboard-response","398","980154","0.0-6.0-1.59","","<img src=""img/pink-n.png"" border=""10"">","null","trial","null","","0.2,0.8","2:nogo_b","0",""
"null","","html-keyboard-response","399","981163","0.0-6.0-2.59","","<div style=""font-size:60px;"">+</div>","null","","","","","","",""
"null","","image-keyboard-response","400","982670","0.0-6.0-0.60","","img/purple.png","null","trial","null","true","0,1","4:nogo_d","",""
"null","","html-keyboard-response","401","983678","0.0-6.0-1.60","","<img src=""img/purple-r.png"">","null","trial","null","","0,1","4:nogo_d","1",""
"null","","html-keyboard-response","402","984686","0.0-6.0-2.60","","<div style=""font-size:60px;"">+</div>","null","","","","","","",""
"393.4850000004517","","image-keyboard-response","403","985082","0.0-6.0-0.61","","img/green.png","32","trial","32","true","0.8,0.2","1:go_a","",""
"null","","html-keyboard-response","404","986090","0.0-6.0-1.61","","<img src=""img/green-n.png"" border=""10"">","null","trial","32","","0.8,0.2","1:go_a","0",""
"null","","html-keyboard-response","405","987099","0.0-6.0-2.61","","<div style=""font-size:60px;"">+</div>","null","","","","","","",""
"1258.345000000205","","image-keyboard-response","406","988359","0.0-6.0-0.62","","img/pink.png","32","trial","null","false","0.2,0.8","2:nogo_b","",""
"null","","html-keyboard-response","407","989366","0.0-6.0-1.62","","<img src=""img/pink-n.png"" border=""10"">","null","trial","null","","0.2,0.8","2:nogo_b","0",""
"null","","html-keyboard-response","408","990368","0.0-6.0-2.62","","<div style=""font-size:60px;"">+</div>","null","","","","","","",""
"588.7949999996927","","image-keyboard-response","409","990959","0.0-6.0-0.63","","img/orange.png","32","trial","32","true","1,0","3:go_c","",""
"null","","html-keyboard-response","410","991970","0.0-6.0-1.63","","<img src=""img/orange-r.png"" border=""10"">","null","trial","32","","1,0","3:go_c","1",""
"null","","html-keyboard-response","411","992972","0.0-6.0-2.63","","<div style=""font-size:60px;"">+</div>","null","","","","","","",""
"621.395000000135","","image-keyboard-response","412","993595","0.0-6.0-0.64","","img/orange.png","32","trial","32","true","1,0","3:go_c","",""
"null","","html-keyboard-response","413","994600","0.0-6.0-1.64","","<img src=""img/orange-r.png"" border=""10"">","null","trial","32","","1,0","3:go_c","1",""
"null","","html-keyboard-response","414","995617","0.0-6.0-2.64","","<div style=""font-size:60px;"">+</div>","null","","","","","","",""
"502.2599999993108","","image-keyboard-response","415","996121","0.0-6.0-0.65","","img/pink.png","32","trial","null","false","0.2,0.8","2:nogo_b","",""
"null","","html-keyboard-response","416","997124","0.0-6.0-1.65","","<img src=""img/pink-n.png"" border=""10"">","null","trial","null","","0.2,0.8","2:nogo_b","0",""
"null","","html-keyboard-response","417","998134","0.0-6.0-2.65","","<div style=""font-size:60px;"">+</div>","null","","","","","","",""
"null","","image-keyboard-response","418","999638","0.0-6.0-0.66","","img/purple.png","null","trial","null","true","0,1","4:nogo_d","",""
"null","","html-keyboard-response","419","1000642","0.0-6.0-1.66","","<img src=""img/purple-r.png"">","null","trial","null","","0,1","4:nogo_d","1",""
"null","","html-keyboard-response","420","1001645","0.0-6.0-2.66","","<div style=""font-size:60px;"">+</div>","null","","","","","","",""
"467.7749999992084","","image-keyboard-response","421","1002114","0.0-6.0-0.67","","img/green.png","32","trial","32","true","0.8,0.2","1:go_a","",""
"null","","html-keyboard-response","422","1003119","0.0-6.0-1.67","","<img src=""img/green-n.png"" border=""10"">","null","trial","32","","0.8,0.2","1:go_a","0",""
"null","","html-keyboard-response","423","1004129","0.0-6.0-2.67","","<div style=""font-size:60px;"">+</div>","null","","","","","","",""
"671.875","","image-keyboard-response","424","1004803","0.0-6.0-0.68","","img/pink.png","32","trial","null","false","0.2,0.8","2:nogo_b","",""
"null","","html-keyboard-response","425","1005813","0.0-6.0-1.68","","<img src=""img/pink-r.png"" border=""10"">","null","trial","null","","0.2,0.8","2:nogo_b","1",""
"null","","html-keyboard-response","426","1006829","0.0-6.0-2.68","","<div style=""font-size:60px;"">+</div>","null","","","","","","",""
"487.770000001532","","image-keyboard-response","427","1007318","0.0-6.0-0.69","","img/purple.png","32","trial","null","false","0,1","4:nogo_d","",""
"null","","html-keyboard-response","428","1008326","0.0-6.0-1.69","","<img src=""img/purple-n.png"" border=""10"">","null","trial","null","","0,1","4:nogo_d","0",""
"null","","html-keyboard-response","429","1009334","0.0-6.0-2.69","","<div style=""font-size:60px;"">+</div>","null","","","","","","",""
"651.1150000005728","","image-keyboard-response","430","1009987","0.0-6.0-0.70","","img/green.png","32","trial","32","true","0.8,0.2","1:go_a","",""
"null","","html-keyboard-response","431","1010997","0.0-6.0-1.70","","<img src=""img/green-r.png"" border=""10"">","null","trial","32","","0.8,0.2","1:go_a","1",""
"null","","html-keyboard-response","432","1012003","0.0-6.0-2.70","","<div style=""font-size:60px;"">+</div>","null","","","","","","",""
"504.6650000003865","","image-keyboard-response","433","1012509","0.0-6.0-0.71","","img/orange.png","32","trial","32","true","1,0","3:go_c","",""
"null","","html-keyboard-response","434","1013512","0.0-6.0-1.71","","<img src=""img/orange-r.png"" border=""10"">","null","trial","32","","1,0","3:go_c","1",""
"null","","html-keyboard-response","435","1014523","0.0-6.0-2.71","","<div style=""font-size:60px;"">+</div>","null","","","","","","",""
"1470.6449999993201","","image-keyboard-response","436","1015995","0.0-6.0-0.72","","img/purple.png","32","trial","null","false","0,1","4:nogo_d","",""
"null","","html-keyboard-response","437","1017009","0.0-6.0-1.72","","<img src=""img/purple-n.png"" border=""10"">","null","trial","null","","0,1","4:nogo_d","0",""
"null","","html-keyboard-response","438","1018019","0.0-6.0-2.72","","<div style=""font-size:60px;"">+</div>","null","","","","","","",""
"619.3549999989336","","image-keyboard-response","439","1018641","0.0-6.0-0.73","","img/pink.png","32","trial","null","false","0.2,0.8","2:nogo_b","",""
"null","","html-keyboard-response","440","1019645","0.0-6.0-1.73","","<img src=""img/pink-n.png"" border=""10"">","null","trial","null","","0.2,0.8","2:nogo_b","0",""
"null","","html-keyboard-response","441","1020648","0.0-6.0-2.73","","<div style=""font-size:60px;"">+</div>","null","","","","","","",""
"414.9149999994552","","image-keyboard-response","442","1021065","0.0-6.0-0.74","","img/green.png","32","trial","32","true","0.8,0.2","1:go_a","",""
"null","","html-keyboard-response","443","1022077","0.0-6.0-1.74","","<img src=""img/green-r.png"" border=""10"">","null","trial","32","","0.8,0.2","1:go_a","1",""
"null","","html-keyboard-response","444","1023081","0.0-6.0-2.74","","<div style=""font-size:60px;"">+</div>","null","","","","","","",""
"546.5250000016531","","image-keyboard-response","445","1023629","0.0-6.0-0.75","","img/orange.png","32","trial","32","true","1,0","3:go_c","",""
"null","","html-keyboard-response","446","1024639","0.0-6.0-1.75","","<img src=""img/orange-r.png"" border=""10"">","null","trial","32","","1,0","3:go_c","1",""
"null","","html-keyboard-response","447","1025643","0.0-6.0-2.75","","<div style=""font-size:60px;"">+</div>","null","","","","","","",""
"389.38500000035856","","image-keyboard-response","448","1026034","0.0-6.0-0.76","","img/orange.png","32","trial","32","true","1,0","3:go_c","",""
"null","","html-keyboard-response","449","1027049","0.0-6.0-1.76","","<img src=""img/orange-r.png"" border=""10"">","null","trial","32","","1,0","3:go_c","1",""
"null","","html-keyboard-response","450","1028057","0.0-6.0-2.76","","<div style=""font-size:60px;"">+</div>","null","","","","","","",""
"541.9449999990175","","image-keyboard-response","451","1028601","0.0-6.0-0.77","","img/green.png","32","trial","32","true","0.8,0.2","1:go_a","",""
"null","","html-keyboard-response","452","1029605","0.0-6.0-1.77","","<img src=""img/green-r.png"" border=""10"">","null","trial","32","","0.8,0.2","1:go_a","1",""
"null","","html-keyboard-response","453","1030613","0.0-6.0-2.77","","<div style=""font-size:60px;"">+</div>","null","","","","","","",""
"null","","image-keyboard-response","454","1032123","0.0-6.0-0.78","","img/pink.png","null","trial","null","true","0.2,0.8","2:nogo_b","",""
"null","","html-keyboard-response","455","1033135","0.0-6.0-1.78","","<img src=""img/pink-n.png"">","null","trial","null","","0.2,0.8","2:nogo_b","0",""
"null","","html-keyboard-response","456","1034137","0.0-6.0-2.78","","<div style=""font-size:60px;"">+</div>","null","","","","","","",""
"1081.1199999989476","","image-keyboard-response","457","1035220","0.0-6.0-0.79","","img/purple.png","32","trial","null","false","0,1","4:nogo_d","",""
"null","","html-keyboard-response","458","1036237","0.0-6.0-1.79","","<img src=""img/purple-n.png"" border=""10"">","null","trial","null","","0,1","4:nogo_d","0",""
"null","","html-keyboard-response","459","1037241","0.0-6.0-2.79","","<div style=""font-size:60px;"">+</div>","null","","","","","","",""
"null","","image-keyboard-response","460","1038750","0.0-6.0-0.80","","img/purple.png","null","trial","null","true","0,1","4:nogo_d","",""
"null","","html-keyboard-response","461","1039759","0.0-6.0-1.80","","<img src=""img/purple-r.png"">","null","trial","null","","0,1","4:nogo_d","1",""
"null","","html-keyboard-response","462","1040766","0.0-6.0-2.80","","<div style=""font-size:60px;"">+</div>","null","","","","","","",""
"358.31499999947846","","image-keyboard-response","463","1041126","0.0-6.0-0.81","","img/orange.png","32","trial","32","true","1,0","3:go_c","",""
"null","","html-keyboard-response","464","1042145","0.0-6.0-1.81","","<img src=""img/orange-r.png"" border=""10"">","null","trial","32","","1,0","3:go_c","1",""
"null","","html-keyboard-response","465","1043150","0.0-6.0-2.81","","<div style=""font-size:60px;"">+</div>","null","","","","","","",""
"316.2700000011828","","image-keyboard-response","466","1043469","0.0-6.0-0.82","","img/pink.png","32","trial","null","false","0.2,0.8","2:nogo_b","",""
"null","","html-keyboard-response","467","1044478","0.0-6.0-1.82","","<img src=""img/pink-n.png"" border=""10"">","null","trial","null","","0.2,0.8","2:nogo_b","0",""
"null","","html-keyboard-response","468","1045483","0.0-6.0-2.82","","<div style=""font-size:60px;"">+</div>","null","","","","","","",""
"408.6499999994412","","image-keyboard-response","469","1045893","0.0-6.0-0.83","","img/green.png","32","trial","32","true","0.8,0.2","1:go_a","",""
"null","","html-keyboard-response","470","1046897","0.0-6.0-1.83","","<img src=""img/green-r.png"" border=""10"">","null","trial","32","","0.8,0.2","1:go_a","1",""
"null","","html-keyboard-response","471","1047907","0.0-6.0-2.83","","<div style=""font-size:60px;"">+</div>","null","","","","","","",""
"502.87999999988824","","image-keyboard-response","472","1048411","0.0-6.0-0.84","","img/purple.png","32","trial","null","false","0,1","4:nogo_d","",""
"null","","html-keyboard-response","473","1049415","0.0-6.0-1.84","","<img src=""img/purple-n.png"" border=""10"">","null","trial","null","","0,1","4:nogo_d","0",""
"null","","html-keyboard-response","474","1050421","0.0-6.0-2.84","","<div style=""font-size:60px;"">+</div>","null","","","","","","",""
"null","","image-keyboard-response","475","1051934","0.0-6.0-0.85","","img/orange.png","null","trial","32","false","1,0","3:go_c","",""
"null","","html-keyboard-response","476","1052941","0.0-6.0-1.85","","<img src=""img/orange-n.png"">","null","trial","32","","1,0","3:go_c","0",""
"null","","html-keyboard-response","477","1053950","0.0-6.0-2.85","","<div style=""font-size:60px;"">+</div>","null","","","","","","",""
"606.4750000005588","","image-keyboard-response","478","1054558","0.0-6.0-0.86","","img/green.png","32","trial","32","true","0.8,0.2","1:go_a","",""
"null","","html-keyboard-response","479","1055565","0.0-6.0-1.86","","<img src=""img/green-n.png"" border=""10"">","null","trial","32","","0.8,0.2","1:go_a","0",""
"null","","html-keyboard-response","480","1056579","0.0-6.0-2.86","","<div style=""font-size:60px;"">+</div>","null","","","","","","",""
"519.6299999987241","","image-keyboard-response","481","1057100","0.0-6.0-0.87","","img/pink.png","32","trial","null","false","0.2,0.8","2:nogo_b","",""
"null","","html-keyboard-response","482","1058108","0.0-6.0-1.87","","<img src=""img/pink-n.png"" border=""10"">","null","trial","null","","0.2,0.8","2:nogo_b","0",""
"null","","html-keyboard-response","483","1059116","0.0-6.0-2.87","","<div style=""font-size:60px;"">+</div>","null","","","","","","",""
"null","","image-keyboard-response","484","1060623","0.0-6.0-0.88","","img/purple.png","null","trial","null","true","0,1","4:nogo_d","",""
"null","","html-keyboard-response","485","1061627","0.0-6.0-1.88","","<img src=""img/purple-r.png"">","null","trial","null","","0,1","4:nogo_d","1",""
"null","","html-keyboard-response","486","1062638","0.0-6.0-2.88","","<div style=""font-size:60px;"">+</div>","null","","","","","","",""
"599.9900000004563","","image-keyboard-response","487","1063240","0.0-6.0-0.89","","img/orange.png","32","trial","32","true","1,0","3:go_c","",""
"null","","html-keyboard-response","488","1064251","0.0-6.0-1.89","","<img src=""img/orange-r.png"" border=""10"">","null","trial","32","","1,0","3:go_c","1",""
"null","","html-keyboard-response","489","1065259","0.0-6.0-2.89","","<div style=""font-size:60px;"">+</div>","null","","","","","","",""
"689.8299999991432","","image-keyboard-response","490","1065950","0.0-6.0-0.90","","img/pink.png","32","trial","null","false","0.2,0.8","2:nogo_b","",""
"null","","html-keyboard-response","491","1066954","0.0-6.0-1.90","","<img src=""img/pink-n.png"" border=""10"">","null","trial","null","","0.2,0.8","2:nogo_b","0",""
"null","","html-keyboard-response","492","1067962","0.0-6.0-2.90","","<div style=""font-size:60px;"">+</div>","null","","","","","","",""
"632.3599999996368","","image-keyboard-response","493","1068596","0.0-6.0-0.91","","img/green.png","32","trial","32","true","0.8,0.2","1:go_a","",""
"null","","html-keyboard-response","494","1069601","0.0-6.0-1.91","","<img src=""img/green-r.png"" border=""10"">","null","trial","32","","0.8,0.2","1:go_a","1",""
"null","","html-keyboard-response","495","1070607","0.0-6.0-2.91","","<div style=""font-size:60px;"">+</div>","null","","","","","","",""
"1428.89500000095","","image-keyboard-response","496","1072037","0.0-6.0-0.92","","img/pink.png","32","trial","null","false","0.2,0.8","2:nogo_b","",""
"null","","html-keyboard-response","497","1073041","0.0-6.0-1.92","","<img src=""img/pink-n.png"" border=""10"">","null","trial","null","","0.2,0.8","2:nogo_b","0",""
"null","","html-keyboard-response","498","1074046","0.0-6.0-2.92","","<div style=""font-size:60px;"">+</div>","null","","","","","","",""
"501.7100000004284","","image-keyboard-response","499","1074550","0.0-6.0-0.93","","img/orange.png","32","trial","32","true","1,0","3:go_c","",""
"null","","html-keyboard-response","500","1075558","0.0-6.0-1.93","","<img src=""img/orange-r.png"" border=""10"">","null","trial","32","","1,0","3:go_c","1",""
"null","","html-keyboard-response","501","1076575","0.0-6.0-2.93","","<div style=""font-size:60px;"">+</div>","null","","","","","","",""
"null","","image-keyboard-response","502","1078081","0.0-6.0-0.94","","img/green.png","null","trial","32","false","0.8,0.2","1:go_a","",""
"null","","html-keyboard-response","503","1079089","0.0-6.0-1.94","","<img src=""img/green-n.png"">","null","trial","32","","0.8,0.2","1:go_a","0",""
"null","","html-keyboard-response","504","1080093","0.0-6.0-2.94","","<div style=""font-size:60px;"">+</div>","null","","","","","","",""
"714.7100000001956","","image-keyboard-response","505","1080810","0.0-6.0-0.95","","img/purple.png","32","trial","null","false","0,1","4:nogo_d","",""
"null","","html-keyboard-response","506","1081824","0.0-6.0-1.95","","<img src=""img/purple-n.png"" border=""10"">","null","trial","null","","0,1","4:nogo_d","0",""
"null","","html-keyboard-response","507","1082835","0.0-6.0-2.95","","<div style=""font-size:60px;"">+</div>","null","","","","","","",""
"691.75","","image-keyboard-response","508","1083528","0.0-6.0-0.96","","img/pink.png","32","trial","null","false","0.2,0.8","2:nogo_b","",""
"null","","html-keyboard-response","509","1084546","0.0-6.0-1.96","","<img src=""img/pink-n.png"" border=""10"">","null","trial","null","","0.2,0.8","2:nogo_b","0",""
"null","","html-keyboard-response","510","1085558","0.0-6.0-2.96","","<div style=""font-size:60px;"">+</div>","null","","","","","","",""
"null","","image-keyboard-response","511","1087062","0.0-6.0-0.97","","img/purple.png","null","trial","null","true","0,1","4:nogo_d","",""
"null","","html-keyboard-response","512","1088068","0.0-6.0-1.97","","<img src=""img/purple-r.png"">","null","trial","null","","0,1","4:nogo_d","1",""
"null","","html-keyboard-response","513","1089071","0.0-6.0-2.97","","<div style=""font-size:60px;"">+</div>","null","","","","","","",""
"424.3900000001304","","image-keyboard-response","514","1089497","0.0-6.0-0.98","","img/green.png","32","trial","32","true","0.8,0.2","1:go_a","",""
"null","","html-keyboard-response","515","1090512","0.0-6.0-1.98","","<img src=""img/green-r.png"" border=""10"">","null","trial","32","","0.8,0.2","1:go_a","1",""
"null","","html-keyboard-response","516","1091516","0.0-6.0-2.98","","<div style=""font-size:60px;"">+</div>","null","","","","","","",""
"680.8849999997765","","image-keyboard-response","517","1092199","0.0-6.0-0.99","","img/orange.png","32","trial","32","true","1,0","3:go_c","",""
"null","","html-keyboard-response","518","1093214","0.0-6.0-1.99","","<img src=""img/orange-r.png"" border=""10"">","null","trial","32","","1,0","3:go_c","1",""
"null","","html-keyboard-response","519","1094222","0.0-6.0-2.99","","<div style=""font-size:60px;"">+</div>","null","","","","","","",""
"478.26999999955297","","image-keyboard-response","520","1094702","0.0-6.0-0.100","","img/orange.png","32","trial","32","true","1,0","3:go_c","",""
"null","","html-keyboard-response","521","1095714","0.0-6.0-1.100","","<img src=""img/orange-r.png"" border=""10"">","null","trial","32","","1,0","3:go_c","1",""
"null","","html-keyboard-response","522","1096722","0.0-6.0-2.100","","<div style=""font-size:60px;"">+</div>","null","","","","","","",""
"431.2549999994226","","image-keyboard-response","523","1097155","0.0-6.0-0.101","","img/pink.png","32","trial","null","false","0.2,0.8","2:nogo_b","",""
"null","","html-keyboard-response","524","1098166","0.0-6.0-1.101","","<img src=""img/pink-n.png"" border=""10"">","null","trial","null","","0.2,0.8","2:nogo_b","0",""
"null","","html-keyboard-response","525","1099174","0.0-6.0-2.101","","<div style=""font-size:60px;"">+</div>","null","","","","","","",""
"null","","image-keyboard-response","526","1100678","0.0-6.0-0.102","","img/purple.png","null","trial","null","true","0,1","4:nogo_d","",""
"null","","html-keyboard-response","527","1101685","0.0-6.0-1.102","","<img src=""img/purple-r.png"">","null","trial","null","","0,1","4:nogo_d","1",""
"null","","html-keyboard-response","528","1102687","0.0-6.0-2.102","","<div style=""font-size:60px;"">+</div>","null","","","","","","",""
"652.6900000006426","","image-keyboard-response","529","1103341","0.0-6.0-0.103","","img/green.png","32","trial","32","true","0.8,0.2","1:go_a","",""
"null","","html-keyboard-response","530","1104350","0.0-6.0-1.103","","<img src=""img/green-n.png"" border=""10"">","null","trial","32","","0.8,0.2","1:go_a","0",""
"null","","html-keyboard-response","531","1105354","0.0-6.0-2.103","","<div style=""font-size:60px;"">+</div>","null","","","","","","",""
"880.8750000009313","","image-keyboard-response","532","1106237","0.0-6.0-0.104","","img/green.png","32","trial","32","true","0.8,0.2","1:go_a","",""
"null","","html-keyboard-response","533","1107245","0.0-6.0-1.104","","<img src=""img/green-n.png"" border=""10"">","null","trial","32","","0.8,0.2","1:go_a","0",""
"null","","html-keyboard-response","534","1108260","0.0-6.0-2.104","","<div style=""font-size:60px;"">+</div>","null","","","","","","",""
"null","","image-keyboard-response","535","1109768","0.0-6.0-0.105","","img/purple.png","null","trial","null","true","0,1","4:nogo_d","",""
"null","","html-keyboard-response","536","1110777","0.0-6.0-1.105","","<img src=""img/purple-r.png"">","null","trial","null","","0,1","4:nogo_d","1",""
"null","","html-keyboard-response","537","1111782","0.0-6.0-2.105","","<div style=""font-size:60px;"">+</div>","null","","","","","","",""
"607.4799999988172","","image-keyboard-response","538","1112391","0.0-6.0-0.106","","img/orange.png","32","trial","32","true","1,0","3:go_c","",""
"null","","html-keyboard-response","539","1113397","0.0-6.0-1.106","","<img src=""img/orange-r.png"" border=""10"">","null","trial","32","","1,0","3:go_c","1",""
"null","","html-keyboard-response","540","1114415","0.0-6.0-2.106","","<div style=""font-size:60px;"">+</div>","null","","","","","","",""
"1135.6799999994691","","image-keyboard-response","541","1115552","0.0-6.0-0.107","","img/pink.png","32","trial","null","false","0.2,0.8","2:nogo_b","",""
"null","","html-keyboard-response","542","1116559","0.0-6.0-1.107","","<img src=""img/pink-n.png"" border=""10"">","null","trial","null","","0.2,0.8","2:nogo_b","0",""
"null","","html-keyboard-response","543","1117565","0.0-6.0-2.107","","<div style=""font-size:60px;"">+</div>","null","","","","","","",""
"1268.8750000016298","","image-keyboard-response","544","1118836","0.0-6.0-0.108","","img/purple.png","32","trial","null","false","0,1","4:nogo_d","",""
"null","","html-keyboard-response","545","1119842","0.0-6.0-1.108","","<img src=""img/purple-n.png"" border=""10"">","null","trial","null","","0,1","4:nogo_d","0",""
"null","","html-keyboard-response","546","1120851","0.0-6.0-2.108","","<div style=""font-size:60px;"">+</div>","null","","","","","","",""
"null","","image-keyboard-response","547","1122359","0.0-6.0-0.109","","img/green.png","null","trial","32","false","0.8,0.2","1:go_a","",""
"null","","html-keyboard-response","548","1123366","0.0-6.0-1.109","","<img src=""img/green-r.png"">","null","trial","32","","0.8,0.2","1:go_a","1",""
"null","","html-keyboard-response","549","1124383","0.0-6.0-2.109","","<div style=""font-size:60px;"">+</div>","null","","","","","","",""
"615.7400000011548","","image-keyboard-response","550","1125000","0.0-6.0-0.110","","img/pink.png","32","trial","null","false","0.2,0.8","2:nogo_b","",""
"null","","html-keyboard-response","551","1126006","0.0-6.0-1.110","","<img src=""img/pink-n.png"" border=""10"">","null","trial","null","","0.2,0.8","2:nogo_b","0",""
"null","","html-keyboard-response","552","1127014","0.0-6.0-2.110","","<div style=""font-size:60px;"">+</div>","null","","","","","","",""
"null","","image-keyboard-response","553","1128521","0.0-6.0-0.111","","img/orange.png","null","trial","32","false","1,0","3:go_c","",""
"null","","html-keyboard-response","554","1129531","0.0-6.0-1.111","","<img src=""img/orange-n.png"">","null","trial","32","","1,0","3:go_c","0",""
"null","","html-keyboard-response","555","1130541","0.0-6.0-2.111","","<div style=""font-size:60px;"">+</div>","null","","","","","","",""
"517.6700000013225","","image-keyboard-response","556","1131060","0.0-6.0-0.112","","img/orange.png","32","trial","32","true","1,0","3:go_c","",""
"null","","html-keyboard-response","557","1132067","0.0-6.0-1.112","","<img src=""img/orange-r.png"" border=""10"">","null","trial","32","","1,0","3:go_c","1",""
"null","","html-keyboard-response","558","1133083","0.0-6.0-2.112","","<div style=""font-size:60px;"">+</div>","null","","","","","","",""
"615.7199999999721","","image-keyboard-response","559","1133701","0.0-6.0-0.113","","img/pink.png","32","trial","null","false","0.2,0.8","2:nogo_b","",""
"null","","html-keyboard-response","560","1134707","0.0-6.0-1.113","","<img src=""img/pink-n.png"" border=""10"">","null","trial","null","","0.2,0.8","2:nogo_b","0",""
"null","","html-keyboard-response","561","1135712","0.0-6.0-2.113","","<div style=""font-size:60px;"">+</div>","null","","","","","","",""
"767.7450000010431","","image-keyboard-response","562","1136482","0.0-6.0-0.114","","img/green.png","32","trial","32","true","0.8,0.2","1:go_a","",""
"null","","html-keyboard-response","563","1137495","0.0-6.0-1.114","","<img src=""img/green-r.png"" border=""10"">","null","trial","32","","0.8,0.2","1:go_a","1",""
"null","","html-keyboard-response","564","1138499","0.0-6.0-2.114","","<div style=""font-size:60px;"">+</div>","null","","","","","","",""
"1267.0450000003912","","image-keyboard-response","565","1139768","0.0-6.0-0.115","","img/purple.png","32","trial","null","false","0,1","4:nogo_d","",""
"null","","html-keyboard-response","566","1140786","0.0-6.0-1.115","","<img src=""img/purple-n.png"" border=""10"">","null","trial","null","","0,1","4:nogo_d","0",""
"null","","html-keyboard-response","567","1141793","0.0-6.0-2.115","","<div style=""font-size:60px;"">+</div>","null","","","","","","",""
"537.0000000004657","","image-keyboard-response","568","1142331","0.0-6.0-0.116","","img/orange.png","32","trial","32","true","1,0","3:go_c","",""
"null","","html-keyboard-response","569","1143340","0.0-6.0-1.116","","<img src=""img/orange-r.png"" border=""10"">","null","trial","32","","1,0","3:go_c","1",""
"null","","html-keyboard-response","570","1144353","0.0-6.0-2.116","","<div style=""font-size:60px;"">+</div>","null","","","","","","",""
"657.1699999985285","","image-keyboard-response","571","1145012","0.0-6.0-0.117","","img/purple.png","32","trial","null","false","0,1","4:nogo_d","",""
"null","","html-keyboard-response","572","1146015","0.0-6.0-1.117","","<img src=""img/purple-n.png"" border=""10"">","null","trial","null","","0,1","4:nogo_d","0",""
"null","","html-keyboard-response","573","1147023","0.0-6.0-2.117","","<div style=""font-size:60px;"">+</div>","null","","","","","","",""
"579.2349999991711","","image-keyboard-response","574","1147605","0.0-6.0-0.118","","img/pink.png","32","trial","null","false","0.2,0.8","2:nogo_b","",""
"null","","html-keyboard-response","575","1148617","0.0-6.0-1.118","","<img src=""img/pink-n.png"" border=""10"">","null","trial","null","","0.2,0.8","2:nogo_b","0",""
"null","","html-keyboard-response","576","1149623","0.0-6.0-2.118","","<div style=""font-size:60px;"">+</div>","null","","","","","","",""
"977.0399999995716","","image-keyboard-response","577","1150602","0.0-6.0-0.119","","img/green.png","32","trial","32","true","0.8,0.2","1:go_a","",""
"null","","html-keyboard-response","578","1151611","0.0-6.0-1.119","","<img src=""img/green-n.png"" border=""10"">","null","trial","32","","0.8,0.2","1:go_a","0",""
"null","","html-keyboard-response","579","1152614","0.0-6.0-2.119","","<div style=""font-size:60px;"">+</div>","null","","","","","","",""
"12340.12000000081","","instructions","580","1164955","0.0-7.0","[{""page_index"":0,""viewing_time"":12339.309999999357}]","","","","","","","","",""
"615.5949999992736","","image-keyboard-response","581","1165574","0.0-8.0-0.0","","img/pink.png","32","trial","null","false","0.2,0.8","4:nogo_d","",""
"null","","html-keyboard-response","582","1166581","0.0-8.0-1.0","","<img src=""img/pink-n.png"" border=""10"">","null","trial","null","","0.2,0.8","4:nogo_d","0",""
"null","","html-keyboard-response","583","1167584","0.0-8.0-2.0","","<div style=""font-size:60px;"">+</div>","null","","","","","","",""
"null","","image-keyboard-response","584","1169089","0.0-8.0-0.1","","img/purple.png","null","trial","32","false","0.8,0.2","1:go_a","",""
"null","","html-keyboard-response","585","1170098","0.0-8.0-1.1","","<img src=""img/purple-n.png"">","null","trial","32","","0.8,0.2","1:go_a","0",""
"null","","html-keyboard-response","586","1171101","0.0-8.0-2.1","","<div style=""font-size:60px;"">+</div>","null","","","","","","",""
"null","","image-keyboard-response","587","1172605","0.0-8.0-0.2","","img/grey.png","null","trial","null","true","0.2,0.8","2:nogo_b","",""
"null","","html-keyboard-response","588","1173613","0.0-8.0-1.2","","<img src=""img/grey-r.png"">","null","trial","null","","0.2,0.8","2:nogo_b","1",""
"null","","html-keyboard-response","589","1174615","0.0-8.0-2.2","","<div style=""font-size:60px;"">+</div>","null","","","","","","",""
"332.77499999897555","","image-keyboard-response","590","1174949","0.0-8.0-0.3","","img/orange.png","32","trial","32","true","0.8,0.2","3:go_c","",""
"null","","html-keyboard-response","591","1175953","0.0-8.0-1.3","","<img src=""img/orange-r.png"" border=""10"">","null","trial","32","","0.8,0.2","3:go_c","1",""
"null","","html-keyboard-response","592","1176957","0.0-8.0-2.3","","<div style=""font-size:60px;"">+</div>","null","","","","","","",""
"null","","image-keyboard-response","593","1178462","0.0-8.0-0.4","","img/orange.png","null","trial","32","false","0.8,0.2","3:go_c","",""
"null","","html-keyboard-response","594","1179469","0.0-8.0-1.4","","<img src=""img/orange-n.png"">","null","trial","32","","0.8,0.2","3:go_c","0",""
"null","","html-keyboard-response","595","1180473","0.0-8.0-2.4","","<div style=""font-size:60px;"">+</div>","null","","","","","","",""
"null","","image-keyboard-response","596","1181982","0.0-8.0-0.5","","img/grey.png","null","trial","null","true","0.2,0.8","2:nogo_b","",""
"null","","html-keyboard-response","597","1182987","0.0-8.0-1.5","","<img src=""img/grey-r.png"">","null","trial","null","","0.2,0.8","2:nogo_b","1",""
"null","","html-keyboard-response","598","1183995","0.0-8.0-2.5","","<div style=""font-size:60px;"">+</div>","null","","","","","","",""
"527.6599999996834","","image-keyboard-response","599","1184525","0.0-8.0-0.6","","img/purple.png","32","trial","32","true","0.8,0.2","1:go_a","",""
"null","","html-keyboard-response","600","1185533","0.0-8.0-1.6","","<img src=""img/purple-n.png"" border=""10"">","null","trial","32","","0.8,0.2","1:go_a","0",""
"null","","html-keyboard-response","601","1186549","0.0-8.0-2.6","","<div style=""font-size:60px;"">+</div>","null","","","","","","",""
"540.5299999983981","","image-keyboard-response","602","1187092","0.0-8.0-0.7","","img/pink.png","32","trial","null","false","0.2,0.8","4:nogo_d","",""
"null","","html-keyboard-response","603","1188101","0.0-8.0-1.7","","<img src=""img/pink-n.png"" border=""10"">","null","trial","null","","0.2,0.8","4:nogo_d","0",""
"null","","html-keyboard-response","604","1189113","0.0-8.0-2.7","","<div style=""font-size:60px;"">+</div>","null","","","","","","",""
"null","","image-keyboard-response","605","1190619","0.0-8.0-0.8","","img/purple.png","null","trial","32","false","0.8,0.2","1:go_a","",""
"null","","html-keyboard-response","606","1191627","0.0-8.0-1.8","","<img src=""img/purple-n.png"">","null","trial","32","","0.8,0.2","1:go_a","0",""
"null","","html-keyboard-response","607","1192631","0.0-8.0-2.8","","<div style=""font-size:60px;"">+</div>","null","","","","","","",""
"589.1250000004657","","image-keyboard-response","608","1193222","0.0-8.0-0.9","","img/pink.png","32","trial","null","false","0.2,0.8","4:nogo_d","",""
"null","","html-keyboard-response","609","1194229","0.0-8.0-1.9","","<img src=""img/pink-n.png"" border=""10"">","null","trial","null","","0.2,0.8","4:nogo_d","0",""
"null","","html-keyboard-response","610","1195239","0.0-8.0-2.9","","<div style=""font-size:60px;"">+</div>","null","","","","","","",""
"null","","image-keyboard-response","611","1196745","0.0-8.0-0.10","","img/grey.png","null","trial","null","true","0.2,0.8","2:nogo_b","",""
"null","","html-keyboard-response","612","1197755","0.0-8.0-1.10","","<img src=""img/grey-n.png"">","null","trial","null","","0.2,0.8","2:nogo_b","0",""
"null","","html-keyboard-response","613","1198771","0.0-8.0-2.10","","<div style=""font-size:60px;"">+</div>","null","","","","","","",""
"538.5800000005402","","image-keyboard-response","614","1199311","0.0-8.0-0.11","","img/orange.png","32","trial","32","true","0.8,0.2","3:go_c","",""
"null","","html-keyboard-response","615","1200318","0.0-8.0-1.11","","<img src=""img/orange-r.png"" border=""10"">","null","trial","32","","0.8,0.2","3:go_c","1",""
"null","","html-keyboard-response","616","1201325","0.0-8.0-2.11","","<div style=""font-size:60px;"">+</div>","null","","","","","","",""
"null","","image-keyboard-response","617","1202834","0.0-8.0-0.12","","img/grey.png","null","trial","null","true","0.2,0.8","2:nogo_b","",""
"null","","html-keyboard-response","618","1203845","0.0-8.0-1.12","","<img src=""img/grey-r.png"">","null","trial","null","","0.2,0.8","2:nogo_b","1",""
"null","","html-keyboard-response","619","1204849","0.0-8.0-2.12","","<div style=""font-size:60px;"">+</div>","null","","","","","","",""
"855.7050000000745","","image-keyboard-response","620","1205707","0.0-8.0-0.13","","img/pink.png","32","trial","null","false","0.2,0.8","4:nogo_d","",""
"null","","html-keyboard-response","621","1206713","0.0-8.0-1.13","","<img src=""img/pink-r.png"" border=""10"">","null","trial","null","","0.2,0.8","4:nogo_d","1",""
"null","","html-keyboard-response","622","1207717","0.0-8.0-2.13","","<div style=""font-size:60px;"">+</div>","null","","","","","","",""
"592.0750000004191","","image-keyboard-response","623","1208311","0.0-8.0-0.14","","img/orange.png","32","trial","32","true","0.8,0.2","3:go_c","",""
"null","","html-keyboard-response","624","1209317","0.0-8.0-1.14","","<img src=""img/orange-r.png"" border=""10"">","null","trial","32","","0.8,0.2","3:go_c","1",""
"null","","html-keyboard-response","625","1210323","0.0-8.0-2.14","","<div style=""font-size:60px;"">+</div>","null","","","","","","",""
"841.6800000013318","","image-keyboard-response","626","1211167","0.0-8.0-0.15","","img/purple.png","32","trial","32","true","0.8,0.2","1:go_a","",""
"null","","html-keyboard-response","627","1212175","0.0-8.0-1.15","","<img src=""img/purple-r.png"" border=""10"">","null","trial","32","","0.8,0.2","1:go_a","1",""
"null","","html-keyboard-response","628","1213187","0.0-8.0-2.15","","<div style=""font-size:60px;"">+</div>","null","","","","","","",""
"null","","image-keyboard-response","629","1214695","0.0-8.0-0.16","","img/pink.png","null","trial","null","true","0.2,0.8","4:nogo_d","",""
"null","","html-keyboard-response","630","1215700","0.0-8.0-1.16","","<img src=""img/pink-n.png"">","null","trial","null","","0.2,0.8","4:nogo_d","0",""
"null","","html-keyboard-response","631","1216713","0.0-8.0-2.16","","<div style=""font-size:60px;"">+</div>","null","","","","","","",""
"723.5550000004005","","image-keyboard-response","632","1217438","0.0-8.0-0.17","","img/purple.png","32","trial","32","true","0.8,0.2","1:go_a","",""
"null","","html-keyboard-response","633","1218443","0.0-8.0-1.17","","<img src=""img/purple-n.png"" border=""10"">","null","trial","32","","0.8,0.2","1:go_a","0",""
"null","","html-keyboard-response","634","1219453","0.0-8.0-2.17","","<div style=""font-size:60px;"">+</div>","null","","","","","","",""
"null","","image-keyboard-response","635","1220961","0.0-8.0-0.18","","img/grey.png","null","trial","null","true","0.2,0.8","2:nogo_b","",""
"null","","html-keyboard-response","636","1221970","0.0-8.0-1.18","","<img src=""img/grey-n.png"">","null","trial","null","","0.2,0.8","2:nogo_b","0",""
"null","","html-keyboard-response","637","1222973","0.0-8.0-2.18","","<div style=""font-size:60px;"">+</div>","null","","","","","","",""
"519.2549999991897","","image-keyboard-response","638","1223494","0.0-8.0-0.19","","img/orange.png","32","trial","32","true","0.8,0.2","3:go_c","",""
"null","","html-keyboard-response","639","1224502","0.0-8.0-1.19","","<img src=""img/orange-r.png"" border=""10"">","null","trial","32","","0.8,0.2","3:go_c","1",""
"null","","html-keyboard-response","640","1225509","0.0-8.0-2.19","","<div style=""font-size:60px;"">+</div>","null","","","","","","",""
"458.5549999992363","","image-keyboard-response","641","1225968","0.0-8.0-0.20","","img/pink.png","32","trial","null","false","0.2,0.8","4:nogo_d","",""
"null","","html-keyboard-response","642","1226973","0.0-8.0-1.20","","<img src=""img/pink-n.png"" border=""10"">","null","trial","null","","0.2,0.8","4:nogo_d","0",""
"null","","html-keyboard-response","643","1227979","0.0-8.0-2.20","","<div style=""font-size:60px;"">+</div>","null","","","","","","",""
"713.2249999993946","","image-keyboard-response","644","1228694","0.0-8.0-0.21","","img/grey.png","32","trial","null","false","0.2,0.8","2:nogo_b","",""
"null","","html-keyboard-response","645","1229698","0.0-8.0-1.21","","<img src=""img/grey-n.png"" border=""10"">","null","trial","null","","0.2,0.8","2:nogo_b","0",""
"null","","html-keyboard-response","646","1230707","0.0-8.0-2.21","","<div style=""font-size:60px;"">+</div>","null","","","","","","",""
"null","","image-keyboard-response","647","1232224","0.0-8.0-0.22","","img/orange.png","null","trial","32","false","0.8,0.2","3:go_c","",""
"null","","html-keyboard-response","648","1233231","0.0-8.0-1.22","","<img src=""img/orange-n.png"">","null","trial","32","","0.8,0.2","3:go_c","0",""
"null","","html-keyboard-response","649","1234237","0.0-8.0-2.22","","<div style=""font-size:60px;"">+</div>","null","","","","","","",""
"741.8649999999907","","image-keyboard-response","650","1234980","0.0-8.0-0.23","","img/purple.png","32","trial","32","true","0.8,0.2","1:go_a","",""
"null","","html-keyboard-response","651","1235989","0.0-8.0-1.23","","<img src=""img/purple-r.png"" border=""10"">","null","trial","32","","0.8,0.2","1:go_a","1",""
"null","","html-keyboard-response","652","1236994","0.0-8.0-2.23","","<div style=""font-size:60px;"">+</div>","null","","","","","","",""
"607.7299999997485","","image-keyboard-response","653","1237604","0.0-8.0-0.24","","img/purple.png","32","trial","32","true","0.8,0.2","1:go_a","",""
"null","","html-keyboard-response","654","1238612","0.0-8.0-1.24","","<img src=""img/purple-n.png"" border=""10"">","null","trial","32","","0.8,0.2","1:go_a","0",""
"null","","html-keyboard-response","655","1239625","0.0-8.0-2.24","","<div style=""font-size:60px;"">+</div>","null","","","","","","",""
"654.3800000001211","","image-keyboard-response","656","1240281","0.0-8.0-0.25","","img/pink.png","32","trial","null","false","0.2,0.8","4:nogo_d","",""
"null","","html-keyboard-response","657","1241290","0.0-8.0-1.25","","<img src=""img/pink-n.png"" border=""10"">","null","trial","null","","0.2,0.8","4:nogo_d","0",""
"null","","html-keyboard-response","658","1242299","0.0-8.0-2.25","","<div style=""font-size:60px;"">+</div>","null","","","","","","",""
"null","","image-keyboard-response","659","1243801","0.0-8.0-0.26","","img/grey.png","null","trial","null","true","0.2,0.8","2:nogo_b","",""
"null","","html-keyboard-response","660","1244809","0.0-8.0-1.26","","<img src=""img/grey-r.png"">","null","trial","null","","0.2,0.8","2:nogo_b","1",""
"null","","html-keyboard-response","661","1245817","0.0-8.0-2.26","","<div style=""font-size:60px;"">+</div>","null","","","","","","",""
"508.42500000004657","","image-keyboard-response","662","1246327","0.0-8.0-0.27","","img/orange.png","32","trial","32","true","0.8,0.2","3:go_c","",""
"null","","html-keyboard-response","663","1247338","0.0-8.0-1.27","","<img src=""img/orange-r.png"" border=""10"">","null","trial","32","","0.8,0.2","3:go_c","1",""
"null","","html-keyboard-response","664","1248348","0.0-8.0-2.27","","<div style=""font-size:60px;"">+</div>","null","","","","","","",""
"760.9900000006892","","image-keyboard-response","665","1249111","0.0-8.0-0.28","","img/orange.png","32","trial","32","true","0.8,0.2","3:go_c","",""
"null","","html-keyboard-response","666","1250121","0.0-8.0-1.28","","<img src=""img/orange-r.png"" border=""10"">","null","trial","32","","0.8,0.2","3:go_c","1",""
"null","","html-keyboard-response","667","1251126","0.0-8.0-2.28","","<div style=""font-size:60px;"">+</div>","null","","","","","","",""
"null","","image-keyboard-response","668","1252630","0.0-8.0-0.29","","img/pink.png","null","trial","null","true","0.2,0.8","4:nogo_d","",""
"null","","html-keyboard-response","669","1253640","0.0-8.0-1.29","","<img src=""img/pink-r.png"">","null","trial","null","","0.2,0.8","4:nogo_d","1",""
"null","","html-keyboard-response","670","1254649","0.0-8.0-2.29","","<div style=""font-size:60px;"">+</div>","null","","","","","","",""
"638.7850000010803","","image-keyboard-response","671","1255289","0.0-8.0-0.30","","img/grey.png","32","trial","null","false","0.2,0.8","2:nogo_b","",""
"null","","html-keyboard-response","672","1256296","0.0-8.0-1.30","","<img src=""img/grey-n.png"" border=""10"">","null","trial","null","","0.2,0.8","2:nogo_b","0",""
"null","","html-keyboard-response","673","1257304","0.0-8.0-2.30","","<div style=""font-size:60px;"">+</div>","null","","","","","","",""
"484.42999999877065","","image-keyboard-response","674","1257790","0.0-8.0-0.31","","img/purple.png","32","trial","32","true","0.8,0.2","1:go_a","",""
"null","","html-keyboard-response","675","1258807","0.0-8.0-1.31","","<img src=""img/purple-r.png"" border=""10"">","null","trial","32","","0.8,0.2","1:go_a","1",""
