"rt","url","trial_type","trial_index","time_elapsed","internal_node_id","view_history","stimulus","key_press","test_part","correct_response","correct","use_rew","which_stim","reward","responses"
"20654","consent.html","external-html","0","20955","0.0-0.0","","","","","","","","","",""
"1869797","","instructions","1","1890753","0.0-1.0","[{""page_index"":0,""viewing_time"":3766},{""page_index"":1,""viewing_time"":35114},{""page_index"":2,""viewing_time"":15899},{""page_index"":3,""viewing_time"":78810},{""page_index"":4,""viewing_time"":153181},{""page_index"":5,""viewing_time"":1555255},{""page_index"":6,""viewing_time"":27771}]","","","","","","","","",""
"null","","image-keyboard-response","2","1892268","0.0-2.0-0.0","","img/test3.PNG","null","practice","null","true","","","",""
"null","","html-keyboard-response","3","1893283","0.0-2.0-1.0","","<img src=""img/test3-reward.PNG"">","null","","","","","","",""
"null","","html-keyboard-response","4","1894295","0.0-2.0-2.0","","<div style=""font-size:60px;"">+</div>","null","","","","","","",""
"null","","image-keyboard-response","5","1895807","0.0-2.0-0.1","","img/test2.PNG","null","practice","null","true","","","",""
"null","","html-keyboard-response","6","1896818","0.0-2.0-1.1","","<img src=""img/test2-reward.PNG"">","null","","","","","","",""
"null","","html-keyboard-response","7","1897819","0.0-2.0-2.1","","<div style=""font-size:60px;"">+</div>","null","","","","","","",""
"420","","image-keyboard-response","8","1898240","0.0-2.0-0.2","","img/test1.PNG","32","practice","32","true","","","",""
"null","","html-keyboard-response","9","1899249","0.0-2.0-1.2","","<img src=""img/test1-reward.PNG"" border=""10px; grey"">","null","","","","","","",""
"null","","html-keyboard-response","10","1900251","0.0-2.0-2.2","","<div style=""font-size:60px;"">+</div>","null","","","","","","",""
"null","","image-keyboard-response","11","1901761","0.0-2.0-0.3","","img/test2.PNG","null","practice","null","true","","","",""
"null","","html-keyboard-response","12","1902763","0.0-2.0-1.3","","<img src=""img/test2-reward.PNG"">","null","","","","","","",""
"null","","html-keyboard-response","13","1903768","0.0-2.0-2.3","","<div style=""font-size:60px;"">+</div>","null","","","","","","",""
"null","","image-keyboard-response","14","1905272","0.0-2.0-0.4","","img/test3.PNG","null","practice","null","true","","","",""
"null","","html-keyboard-response","15","1906281","0.0-2.0-1.4","","<img src=""img/test3-reward.PNG"">","null","","","","","","",""
"null","","html-keyboard-response","16","1907289","0.0-2.0-2.4","","<div style=""font-size:60px;"">+</div>","null","","","","","","",""
"300","","image-keyboard-response","17","1907588","0.0-2.0-0.5","","img/test1.PNG","32","practice","32","true","","","",""
"null","","html-keyboard-response","18","1908592","0.0-2.0-1.5","","<img src=""img/test1-reward.PNG"" border=""10px; grey"">","null","","","","","","",""
"null","","html-keyboard-response","19","1909598","0.0-2.0-2.5","","<div style=""font-size:60px;"">+</div>","null","","","","","","",""
"515","","image-keyboard-response","20","1910113","0.0-2.0-0.6","","img/test1.PNG","32","practice","32","true","","","",""
"null","","html-keyboard-response","21","1911125","0.0-2.0-1.6","","<img src=""img/test1-reward.PNG"" border=""10px; grey"">","null","","","","","","",""
"null","","html-keyboard-response","22","1912130","0.0-2.0-2.6","","<div style=""font-size:60px;"">+</div>","null","","","","","","",""
"null","","image-keyboard-response","23","1913644","0.0-2.0-0.7","","img/test3.PNG","null","practice","null","true","","","",""
"null","","html-keyboard-response","24","1914648","0.0-2.0-1.7","","<img src=""img/test3-reward.PNG"">","null","","","","","","",""
"null","","html-keyboard-response","25","1915655","0.0-2.0-2.7","","<div style=""font-size:60px;"">+</div>","null","","","","","","",""
"null","","image-keyboard-response","26","1917159","0.0-2.0-0.8","","img/test2.PNG","null","practice","null","true","","","",""
"null","","html-keyboard-response","27","1918167","0.0-2.0-1.8","","<img src=""img/test2-reward.PNG"">","null","","","","","","",""
"null","","html-keyboard-response","28","1919176","0.0-2.0-2.8","","<div style=""font-size:60px;"">+</div>","null","","","","","","",""
"332","","image-keyboard-response","29","1919508","0.0-2.0-0.9","","img/test1.PNG","32","practice","32","true","","","",""
"null","","html-keyboard-response","30","1920517","0.0-2.0-1.9","","<img src=""img/test1-reward.PNG"" border=""10px; grey"">","null","","","","","","",""
"null","","html-keyboard-response","31","1921518","0.0-2.0-2.9","","<div style=""font-size:60px;"">+</div>","null","","","","","","",""
"null","","image-keyboard-response","32","1923032","0.0-2.0-0.10","","img/test2.PNG","null","practice","null","true","","","",""
"null","","html-keyboard-response","33","1924044","0.0-2.0-1.10","","<img src=""img/test2-reward.PNG"">","null","","","","","","",""
"null","","html-keyboard-response","34","1925046","0.0-2.0-2.10","","<div style=""font-size:60px;"">+</div>","null","","","","","","",""
"null","","image-keyboard-response","35","1926553","0.0-2.0-0.11","","img/test3.PNG","null","practice","null","true","","","",""
"null","","html-keyboard-response","36","1927563","0.0-2.0-1.11","","<img src=""img/test3-reward.PNG"">","null","","","","","","",""
"null","","html-keyboard-response","37","1928565","0.0-2.0-2.11","","<div style=""font-size:60px;"">+</div>","null","","","","","","",""
"83553","","instructions","38","2012119","0.0-3.0","[{""page_index"":0,""viewing_time"":83553}]","","","","","","","","",""
"570","","image-keyboard-response","39","2012692","0.0-4.0-0.0","","img/orange.png","32","trial","32","true","0.8,0.2","1:go_a","",""
"null","","html-keyboard-response","40","2013701","0.0-4.0-1.0","","<img src=""img/orange-r.png"" border=""10"">","null","trial","32","","0.8,0.2","1:go_a","1",""
"null","","html-keyboard-response","41","2014707","0.0-4.0-2.0","","<div style=""font-size:60px;"">+</div>","null","","","","","","",""
"null","","image-keyboard-response","42","2016215","0.0-4.0-0.1","","img/blue.png","null","trial","null","true","0.2,0.8","2:nogo_b","",""
"null","","html-keyboard-response","43","2017229","0.0-4.0-1.1","","<img src=""img/blue-n.png"">","null","trial","null","","0.2,0.8","2:nogo_b","0",""
"null","","html-keyboard-response","44","2018244","0.0-4.0-2.1","","<div style=""font-size:60px;"">+</div>","null","","","","","","",""
"null","","image-keyboard-response","45","2019754","0.0-4.0-0.2","","img/blue.png","null","trial","null","true","0.2,0.8","2:nogo_b","",""
"null","","html-keyboard-response","46","2020756","0.0-4.0-1.2","","<img src=""img/blue-n.png"">","null","trial","null","","0.2,0.8","2:nogo_b","0",""
"null","","html-keyboard-response","47","2021770","0.0-4.0-2.2","","<div style=""font-size:60px;"">+</div>","null","","","","","","",""
"385","","image-keyboard-response","48","2022157","0.0-4.0-0.3","","img/orange.png","32","trial","32","true","0.8,0.2","1:go_a","",""
"null","","html-keyboard-response","49","2023169","0.0-4.0-1.3","","<img src=""img/orange-r.png"" border=""10"">","null","trial","32","","0.8,0.2","1:go_a","1",""
"null","","html-keyboard-response","50","2024181","0.0-4.0-2.3","","<div style=""font-size:60px;"">+</div>","null","","","","","","",""
"529","","image-keyboard-response","51","2024710","0.0-4.0-0.4","","img/orange.png","32","trial","32","true","0.8,0.2","1:go_a","",""
"null","","html-keyboard-response","52","2025724","0.0-4.0-1.4","","<img src=""img/orange-r.png"" border=""10"">","null","trial","32","","0.8,0.2","1:go_a","1",""
"null","","html-keyboard-response","53","2026724","0.0-4.0-2.4","","<div style=""font-size:60px;"">+</div>","null","","","","","","",""
"376","","image-keyboard-response","54","2027101","0.0-4.0-0.5","","img/blue.png","32","trial","null","false","0.2,0.8","2:nogo_b","",""
"null","","html-keyboard-response","55","2028108","0.0-4.0-1.5","","<img src=""img/blue-r.png"" border=""10"">","null","trial","null","","0.2,0.8","2:nogo_b","1",""
"null","","html-keyboard-response","56","2029111","0.0-4.0-2.5","","<div style=""font-size:60px;"">+</div>","null","","","","","","",""
"354","","image-keyboard-response","57","2029466","0.0-4.0-0.6","","img/blue.png","32","trial","null","false","0.2,0.8","2:nogo_b","",""
"null","","html-keyboard-response","58","2030469","0.0-4.0-1.6","","<img src=""img/blue-r.png"" border=""10"">","null","trial","null","","0.2,0.8","2:nogo_b","1",""
"null","","html-keyboard-response","59","2031470","0.0-4.0-2.6","","<div style=""font-size:60px;"">+</div>","null","","","","","","",""
"386","","image-keyboard-response","60","2031856","0.0-4.0-0.7","","img/orange.png","32","trial","32","true","0.8,0.2","1:go_a","",""
"null","","html-keyboard-response","61","2032867","0.0-4.0-1.7","","<img src=""img/orange-r.png"" border=""10"">","null","trial","32","","0.8,0.2","1:go_a","1",""
"null","","html-keyboard-response","62","2033868","0.0-4.0-2.7","","<div style=""font-size:60px;"">+</div>","null","","","","","","",""
"330","","image-keyboard-response","63","2034198","0.0-4.0-0.8","","img/orange.png","32","trial","32","true","0.8,0.2","1:go_a","",""
"null","","html-keyboard-response","64","2035205","0.0-4.0-1.8","","<img src=""img/orange-r.png"" border=""10"">","null","trial","32","","0.8,0.2","1:go_a","1",""
"null","","html-keyboard-response","65","2036220","0.0-4.0-2.8","","<div style=""font-size:60px;"">+</div>","null","","","","","","",""
"328","","image-keyboard-response","66","2036548","0.0-4.0-0.9","","img/blue.png","32","trial","null","false","0.2,0.8","2:nogo_b","",""
"null","","html-keyboard-response","67","2037561","0.0-4.0-1.9","","<img src=""img/blue-n.png"" border=""10"">","null","trial","null","","0.2,0.8","2:nogo_b","0",""
"null","","html-keyboard-response","68","2038576","0.0-4.0-2.9","","<div style=""font-size:60px;"">+</div>","null","","","","","","",""
"344","","image-keyboard-response","69","2038920","0.0-4.0-0.10","","img/orange.png","32","trial","32","true","0.8,0.2","1:go_a","",""
"null","","html-keyboard-response","70","2039928","0.0-4.0-1.10","","<img src=""img/orange-r.png"" border=""10"">","null","trial","32","","0.8,0.2","1:go_a","1",""
"null","","html-keyboard-response","71","2040945","0.0-4.0-2.10","","<div style=""font-size:60px;"">+</div>","null","","","","","","",""
"332","","image-keyboard-response","72","2041277","0.0-4.0-0.11","","img/blue.png","32","trial","null","false","0.2,0.8","2:nogo_b","",""
"null","","html-keyboard-response","73","2042279","0.0-4.0-1.11","","<img src=""img/blue-n.png"" border=""10"">","null","trial","null","","0.2,0.8","2:nogo_b","0",""
"null","","html-keyboard-response","74","2043281","0.0-4.0-2.11","","<div style=""font-size:60px;"">+</div>","null","","","","","","",""
"306","","image-keyboard-response","75","2043587","0.0-4.0-0.12","","img/orange.png","32","trial","32","true","0.8,0.2","1:go_a","",""
"null","","html-keyboard-response","76","2044594","0.0-4.0-1.12","","<img src=""img/orange-n.png"" border=""10"">","null","trial","32","","0.8,0.2","1:go_a","0",""
"null","","html-keyboard-response","77","2045601","0.0-4.0-2.12","","<div style=""font-size:60px;"">+</div>","null","","","","","","",""
"null","","image-keyboard-response","78","2047105","0.0-4.0-0.13","","img/blue.png","null","trial","null","true","0.2,0.8","2:nogo_b","",""
"null","","html-keyboard-response","79","2048111","0.0-4.0-1.13","","<img src=""img/blue-r.png"">","null","trial","null","","0.2,0.8","2:nogo_b","1",""
"null","","html-keyboard-response","80","2049113","0.0-4.0-2.13","","<div style=""font-size:60px;"">+</div>","null","","","","","","",""
"379","","image-keyboard-response","81","2049492","0.0-4.0-0.14","","img/orange.png","32","trial","32","true","0.8,0.2","1:go_a","",""
"null","","html-keyboard-response","82","2050505","0.0-4.0-1.14","","<img src=""img/orange-n.png"" border=""10"">","null","trial","32","","0.8,0.2","1:go_a","0",""
"null","","html-keyboard-response","83","2051505","0.0-4.0-2.14","","<div style=""font-size:60px;"">+</div>","null","","","","","","",""
"null","","image-keyboard-response","84","2053011","0.0-4.0-0.15","","img/blue.png","null","trial","null","true","0.2,0.8","2:nogo_b","",""
"null","","html-keyboard-response","85","2054025","0.0-4.0-1.15","","<img src=""img/blue-r.png"">","null","trial","null","","0.2,0.8","2:nogo_b","1",""
"null","","html-keyboard-response","86","2055030","0.0-4.0-2.15","","<div style=""font-size:60px;"">+</div>","null","","","","","","",""
"null","","image-keyboard-response","87","2056530","0.0-4.0-0.16","","img/blue.png","null","trial","null","true","0.2,0.8","2:nogo_b","",""
"null","","html-keyboard-response","88","2057537","0.0-4.0-1.16","","<img src=""img/blue-r.png"">","null","trial","null","","0.2,0.8","2:nogo_b","1",""
"null","","html-keyboard-response","89","2058546","0.0-4.0-2.16","","<div style=""font-size:60px;"">+</div>","null","","","","","","",""
"393","","image-keyboard-response","90","2058939","0.0-4.0-0.17","","img/orange.png","32","trial","32","true","0.8,0.2","1:go_a","",""
"null","","html-keyboard-response","91","2059942","0.0-4.0-1.17","","<img src=""img/orange-r.png"" border=""10"">","null","trial","32","","0.8,0.2","1:go_a","1",""
"null","","html-keyboard-response","92","2060950","0.0-4.0-2.17","","<div style=""font-size:60px;"">+</div>","null","","","","","","",""
"null","","image-keyboard-response","93","2062455","0.0-4.0-0.18","","img/blue.png","null","trial","null","true","0.2,0.8","2:nogo_b","",""
"null","","html-keyboard-response","94","2063456","0.0-4.0-1.18","","<img src=""img/blue-r.png"">","null","trial","null","","0.2,0.8","2:nogo_b","1",""
"null","","html-keyboard-response","95","2064464","0.0-4.0-2.18","","<div style=""font-size:60px;"">+</div>","null","","","","","","",""
"411","","image-keyboard-response","96","2064875","0.0-4.0-0.19","","img/orange.png","32","trial","32","true","0.8,0.2","1:go_a","",""
"null","","html-keyboard-response","97","2065878","0.0-4.0-1.19","","<img src=""img/orange-r.png"" border=""10"">","null","trial","32","","0.8,0.2","1:go_a","1",""
"null","","html-keyboard-response","98","2066879","0.0-4.0-2.19","","<div style=""font-size:60px;"">+</div>","null","","","","","","",""
"470","","image-keyboard-response","99","2067351","0.0-4.0-0.20","","img/orange.png","32","trial","32","true","0.8,0.2","1:go_a","",""
"null","","html-keyboard-response","100","2068363","0.0-4.0-1.20","","<img src=""img/orange-r.png"" border=""10"">","null","trial","32","","0.8,0.2","1:go_a","1",""
"null","","html-keyboard-response","101","2069371","0.0-4.0-2.20","","<div style=""font-size:60px;"">+</div>","null","","","","","","",""
"null","","image-keyboard-response","102","2070876","0.0-4.0-0.21","","img/blue.png","null","trial","null","true","0.2,0.8","2:nogo_b","",""
"null","","html-keyboard-response","103","2071885","0.0-4.0-1.21","","<img src=""img/blue-r.png"">","null","trial","null","","0.2,0.8","2:nogo_b","1",""
"null","","html-keyboard-response","104","2072893","0.0-4.0-2.21","","<div style=""font-size:60px;"">+</div>","null","","","","","","",""
"423","","image-keyboard-response","105","2073315","0.0-4.0-0.22","","img/orange.png","32","trial","32","true","0.8,0.2","1:go_a","",""
"null","","html-keyboard-response","106","2074320","0.0-4.0-1.22","","<img src=""img/orange-r.png"" border=""10"">","null","trial","32","","0.8,0.2","1:go_a","1",""
"null","","html-keyboard-response","107","2075336","0.0-4.0-2.22","","<div style=""font-size:60px;"">+</div>","null","","","","","","",""
"503","","image-keyboard-response","108","2075839","0.0-4.0-0.23","","img/blue.png","32","trial","null","false","0.2,0.8","2:nogo_b","",""
"null","","html-keyboard-response","109","2076841","0.0-4.0-1.23","","<img src=""img/blue-n.png"" border=""10"">","null","trial","null","","0.2,0.8","2:nogo_b","0",""
"null","","html-keyboard-response","110","2077848","0.0-4.0-2.23","","<div style=""font-size:60px;"">+</div>","null","","","","","","",""
"476","","image-keyboard-response","111","2078326","0.0-4.0-0.24","","img/orange.png","32","trial","32","true","0.8,0.2","1:go_a","",""
"null","","html-keyboard-response","112","2079336","0.0-4.0-1.24","","<img src=""img/orange-n.png"" border=""10"">","null","trial","32","","0.8,0.2","1:go_a","0",""
"null","","html-keyboard-response","113","2080338","0.0-4.0-2.24","","<div style=""font-size:60px;"">+</div>","null","","","","","","",""
"null","","image-keyboard-response","114","2081845","0.0-4.0-0.25","","img/blue.png","null","trial","null","true","0.2,0.8","2:nogo_b","",""
"null","","html-keyboard-response","115","2082861","0.0-4.0-1.25","","<img src=""img/blue-r.png"">","null","trial","null","","0.2,0.8","2:nogo_b","1",""
"null","","html-keyboard-response","116","2083874","0.0-4.0-2.25","","<div style=""font-size:60px;"">+</div>","null","","","","","","",""
"null","","image-keyboard-response","117","2085385","0.0-4.0-0.26","","img/blue.png","null","trial","null","true","0.2,0.8","2:nogo_b","",""
"null","","html-keyboard-response","118","2086393","0.0-4.0-1.26","","<img src=""img/blue-r.png"">","null","trial","null","","0.2,0.8","2:nogo_b","1",""
"null","","html-keyboard-response","119","2087407","0.0-4.0-2.26","","<div style=""font-size:60px;"">+</div>","null","","","","","","",""
"309","","image-keyboard-response","120","2087718","0.0-4.0-0.27","","img/orange.png","32","trial","32","true","0.8,0.2","1:go_a","",""
"null","","html-keyboard-response","121","2088734","0.0-4.0-1.27","","<img src=""img/orange-r.png"" border=""10"">","null","trial","32","","0.8,0.2","1:go_a","1",""
"null","","html-keyboard-response","122","2089748","0.0-4.0-2.27","","<div style=""font-size:60px;"">+</div>","null","","","","","","",""
"454","","image-keyboard-response","123","2090201","0.0-4.0-0.28","","img/orange.png","32","trial","32","true","0.8,0.2","1:go_a","",""
"null","","html-keyboard-response","124","2091203","0.0-4.0-1.28","","<img src=""img/orange-r.png"" border=""10"">","null","trial","32","","0.8,0.2","1:go_a","1",""
"null","","html-keyboard-response","125","2092217","0.0-4.0-2.28","","<div style=""font-size:60px;"">+</div>","null","","","","","","",""
"356","","image-keyboard-response","126","2092574","0.0-4.0-0.29","","img/blue.png","32","trial","null","false","0.2,0.8","2:nogo_b","",""
"null","","html-keyboard-response","127","2093585","0.0-4.0-1.29","","<img src=""img/blue-n.png"" border=""10"">","null","trial","null","","0.2,0.8","2:nogo_b","0",""
"null","","html-keyboard-response","128","2094588","0.0-4.0-2.29","","<div style=""font-size:60px;"">+</div>","null","","","","","","",""
"465","","image-keyboard-response","129","2095053","0.0-4.0-0.30","","img/orange.png","32","trial","32","true","0.8,0.2","1:go_a","",""
"null","","html-keyboard-response","130","2096067","0.0-4.0-1.30","","<img src=""img/orange-r.png"" border=""10"">","null","trial","32","","0.8,0.2","1:go_a","1",""
"null","","html-keyboard-response","131","2097070","0.0-4.0-2.30","","<div style=""font-size:60px;"">+</div>","null","","","","","","",""
"null","","image-keyboard-response","132","2098575","0.0-4.0-0.31","","img/blue.png","null","trial","null","true","0.2,0.8","2:nogo_b","",""
"null","","html-keyboard-response","133","2099589","0.0-4.0-1.31","","<img src=""img/blue-r.png"">","null","trial","null","","0.2,0.8","2:nogo_b","1",""
"null","","html-keyboard-response","134","2100590","0.0-4.0-2.31","","<div style=""font-size:60px;"">+</div>","null","","","","","","",""
"379","","image-keyboard-response","135","2100971","0.0-4.0-0.32","","img/orange.png","32","trial","32","true","0.8,0.2","1:go_a","",""
"null","","html-keyboard-response","136","2101975","0.0-4.0-1.32","","<img src=""img/orange-n.png"" border=""10"">","null","trial","32","","0.8,0.2","1:go_a","0",""
"null","","html-keyboard-response","137","2102977","0.0-4.0-2.32","","<div style=""font-size:60px;"">+</div>","null","","","","","","",""
"null","","image-keyboard-response","138","2104486","0.0-4.0-0.33","","img/blue.png","null","trial","null","true","0.2,0.8","2:nogo_b","",""
"null","","html-keyboard-response","139","2105498","0.0-4.0-1.33","","<img src=""img/blue-r.png"">","null","trial","null","","0.2,0.8","2:nogo_b","1",""
"null","","html-keyboard-response","140","2106505","0.0-4.0-2.33","","<div style=""font-size:60px;"">+</div>","null","","","","","","",""
"452","","image-keyboard-response","141","2106959","0.0-4.0-0.34","","img/orange.png","32","trial","32","true","0.8,0.2","1:go_a","",""
"null","","html-keyboard-response","142","2107967","0.0-4.0-1.34","","<img src=""img/orange-r.png"" border=""10"">","null","trial","32","","0.8,0.2","1:go_a","1",""
"null","","html-keyboard-response","143","2108974","0.0-4.0-2.34","","<div style=""font-size:60px;"">+</div>","null","","","","","","",""
"null","","image-keyboard-response","144","2110479","0.0-4.0-0.35","","img/blue.png","null","trial","null","true","0.2,0.8","2:nogo_b","",""
"null","","html-keyboard-response","145","2111480","0.0-4.0-1.35","","<img src=""img/blue-n.png"">","null","trial","null","","0.2,0.8","2:nogo_b","0",""
"null","","html-keyboard-response","146","2112484","0.0-4.0-2.35","","<div style=""font-size:60px;"">+</div>","null","","","","","","",""
"367","","image-keyboard-response","147","2112851","0.0-4.0-0.36","","img/orange.png","32","trial","32","true","0.8,0.2","1:go_a","",""
"null","","html-keyboard-response","148","2113867","0.0-4.0-1.36","","<img src=""img/orange-r.png"" border=""10"">","null","trial","32","","0.8,0.2","1:go_a","1",""
"null","","html-keyboard-response","149","2114869","0.0-4.0-2.36","","<div style=""font-size:60px;"">+</div>","null","","","","","","",""
"null","","image-keyboard-response","150","2116380","0.0-4.0-0.37","","img/blue.png","null","trial","null","true","0.2,0.8","2:nogo_b","",""
"null","","html-keyboard-response","151","2117393","0.0-4.0-1.37","","<img src=""img/blue-n.png"">","null","trial","null","","0.2,0.8","2:nogo_b","0",""
"null","","html-keyboard-response","152","2118394","0.0-4.0-2.37","","<div style=""font-size:60px;"">+</div>","null","","","","","","",""
"null","","image-keyboard-response","153","2119899","0.0-4.0-0.38","","img/blue.png","null","trial","null","true","0.2,0.8","2:nogo_b","",""
"null","","html-keyboard-response","154","2120912","0.0-4.0-1.38","","<img src=""img/blue-r.png"">","null","trial","null","","0.2,0.8","2:nogo_b","1",""
"null","","html-keyboard-response","155","2121917","0.0-4.0-2.38","","<div style=""font-size:60px;"">+</div>","null","","","","","","",""
"350","","image-keyboard-response","156","2122265","0.0-4.0-0.39","","img/orange.png","32","trial","32","true","0.8,0.2","1:go_a","",""
"null","","html-keyboard-response","157","2123280","0.0-4.0-1.39","","<img src=""img/orange-r.png"" border=""10"">","null","trial","32","","0.8,0.2","1:go_a","1",""
"null","","html-keyboard-response","158","2124287","0.0-4.0-2.39","","<div style=""font-size:60px;"">+</div>","null","","","","","","",""
"null","","image-keyboard-response","159","2125792","0.0-4.0-0.40","","img/blue.png","null","trial","null","true","0.2,0.8","2:nogo_b","",""
"null","","html-keyboard-response","160","2126800","0.0-4.0-1.40","","<img src=""img/blue-r.png"">","null","trial","null","","0.2,0.8","2:nogo_b","1",""
"null","","html-keyboard-response","161","2127809","0.0-4.0-2.40","","<div style=""font-size:60px;"">+</div>","null","","","","","","",""
"398","","image-keyboard-response","162","2128208","0.0-4.0-0.41","","img/orange.png","32","trial","32","true","0.8,0.2","1:go_a","",""
"null","","html-keyboard-response","163","2129217","0.0-4.0-1.41","","<img src=""img/orange-r.png"" border=""10"">","null","trial","32","","0.8,0.2","1:go_a","1",""
"null","","html-keyboard-response","164","2130220","0.0-4.0-2.41","","<div style=""font-size:60px;"">+</div>","null","","","","","","",""
"null","","image-keyboard-response","165","2131722","0.0-4.0-0.42","","img/blue.png","null","trial","null","true","0.2,0.8","2:nogo_b","",""
"null","","html-keyboard-response","166","2132725","0.0-4.0-1.42","","<img src=""img/blue-n.png"">","null","trial","null","","0.2,0.8","2:nogo_b","0",""
"null","","html-keyboard-response","167","2133732","0.0-4.0-2.42","","<div style=""font-size:60px;"">+</div>","null","","","","","","",""
"364","","image-keyboard-response","168","2134098","0.0-4.0-0.43","","img/orange.png","32","trial","32","true","0.8,0.2","1:go_a","",""
"null","","html-keyboard-response","169","2135111","0.0-4.0-1.43","","<img src=""img/orange-r.png"" border=""10"">","null","trial","32","","0.8,0.2","1:go_a","1",""
"null","","html-keyboard-response","170","2136119","0.0-4.0-2.43","","<div style=""font-size:60px;"">+</div>","null","","","","","","",""
"472","","image-keyboard-response","171","2136590","0.0-4.0-0.44","","img/orange.png","32","trial","32","true","0.8,0.2","1:go_a","",""
"null","","html-keyboard-response","172","2137592","0.0-4.0-1.44","","<img src=""img/orange-r.png"" border=""10"">","null","trial","32","","0.8,0.2","1:go_a","1",""
"null","","html-keyboard-response","173","2138601","0.0-4.0-2.44","","<div style=""font-size:60px;"">+</div>","null","","","","","","",""
"null","","image-keyboard-response","174","2140116","0.0-4.0-0.45","","img/blue.png","null","trial","null","true","0.2,0.8","2:nogo_b","",""
"null","","html-keyboard-response","175","2141131","0.0-4.0-1.45","","<img src=""img/blue-r.png"">","null","trial","null","","0.2,0.8","2:nogo_b","1",""
"null","","html-keyboard-response","176","2142136","0.0-4.0-2.45","","<div style=""font-size:60px;"">+</div>","null","","","","","","",""
"405","","image-keyboard-response","177","2142542","0.0-4.0-0.46","","img/orange.png","32","trial","32","true","0.8,0.2","1:go_a","",""
"null","","html-keyboard-response","178","2143552","0.0-4.0-1.46","","<img src=""img/orange-r.png"" border=""10"">","null","trial","32","","0.8,0.2","1:go_a","1",""
"null","","html-keyboard-response","179","2144558","0.0-4.0-2.46","","<div style=""font-size:60px;"">+</div>","null","","","","","","",""
"null","","image-keyboard-response","180","2146062","0.0-4.0-0.47","","img/blue.png","null","trial","null","true","0.2,0.8","2:nogo_b","",""
"null","","html-keyboard-response","181","2147071","0.0-4.0-1.47","","<img src=""img/blue-r.png"">","null","trial","null","","0.2,0.8","2:nogo_b","1",""
"null","","html-keyboard-response","182","2148080","0.0-4.0-2.47","","<div style=""font-size:60px;"">+</div>","null","","","","","","",""
"339","","image-keyboard-response","183","2148419","0.0-4.0-0.48","","img/orange.png","32","trial","32","true","0.8,0.2","1:go_a","",""
"null","","html-keyboard-response","184","2149428","0.0-4.0-1.48","","<img src=""img/orange-r.png"" border=""10"">","null","trial","32","","0.8,0.2","1:go_a","1",""
"null","","html-keyboard-response","185","2150428","0.0-4.0-2.48","","<div style=""font-size:60px;"">+</div>","null","","","","","","",""
"null","","image-keyboard-response","186","2151937","0.0-4.0-0.49","","img/blue.png","null","trial","null","true","0.2,0.8","2:nogo_b","",""
"null","","html-keyboard-response","187","2152939","0.0-4.0-1.49","","<img src=""img/blue-n.png"">","null","trial","null","","0.2,0.8","2:nogo_b","0",""
"null","","html-keyboard-response","188","2153953","0.0-4.0-2.49","","<div style=""font-size:60px;"">+</div>","null","","","","","","",""
"293","","image-keyboard-response","189","2154246","0.0-4.0-0.50","","img/orange.png","32","trial","32","true","0.8,0.2","1:go_a","",""
"null","","html-keyboard-response","190","2155262","0.0-4.0-1.50","","<img src=""img/orange-n.png"" border=""10"">","null","trial","32","","0.8,0.2","1:go_a","0",""
"null","","html-keyboard-response","191","2156263","0.0-4.0-2.50","","<div style=""font-size:60px;"">+</div>","null","","","","","","",""
"null","","image-keyboard-response","192","2157775","0.0-4.0-0.51","","img/blue.png","null","trial","null","true","0.2,0.8","2:nogo_b","",""
"null","","html-keyboard-response","193","2158783","0.0-4.0-1.51","","<img src=""img/blue-r.png"">","null","trial","null","","0.2,0.8","2:nogo_b","1",""
"null","","html-keyboard-response","194","2159783","0.0-4.0-2.51","","<div style=""font-size:60px;"">+</div>","null","","","","","","",""
"null","","image-keyboard-response","195","2161289","0.0-4.0-0.52","","img/blue.png","null","trial","null","true","0.2,0.8","2:nogo_b","",""
"null","","html-keyboard-response","196","2162303","0.0-4.0-1.52","","<img src=""img/blue-r.png"">","null","trial","null","","0.2,0.8","2:nogo_b","1",""
"null","","html-keyboard-response","197","2163308","0.0-4.0-2.52","","<div style=""font-size:60px;"">+</div>","null","","","","","","",""
"374","","image-keyboard-response","198","2163683","0.0-4.0-0.53","","img/orange.png","32","trial","32","true","0.8,0.2","1:go_a","",""
"null","","html-keyboard-response","199","2164695","0.0-4.0-1.53","","<img src=""img/orange-r.png"" border=""10"">","null","trial","32","","0.8,0.2","1:go_a","1",""
"null","","html-keyboard-response","200","2165702","0.0-4.0-2.53","","<div style=""font-size:60px;"">+</div>","null","","","","","","",""
"743","","image-keyboard-response","201","2166445","0.0-4.0-0.54","","img/blue.png","32","trial","null","false","0.2,0.8","2:nogo_b","",""
"null","","html-keyboard-response","202","2167450","0.0-4.0-1.54","","<img src=""img/blue-r.png"" border=""10"">","null","trial","null","","0.2,0.8","2:nogo_b","1",""
"null","","html-keyboard-response","203","2168452","0.0-4.0-2.54","","<div style=""font-size:60px;"">+</div>","null","","","","","","",""
"451","","image-keyboard-response","204","2168903","0.0-4.0-0.55","","img/orange.png","32","trial","32","true","0.8,0.2","1:go_a","",""
"null","","html-keyboard-response","205","2169919","0.0-4.0-1.55","","<img src=""img/orange-r.png"" border=""10"">","null","trial","32","","0.8,0.2","1:go_a","1",""
"null","","html-keyboard-response","206","2170933","0.0-4.0-2.55","","<div style=""font-size:60px;"">+</div>","null","","","","","","",""
"360","","image-keyboard-response","207","2171294","0.0-4.0-0.56","","img/blue.png","32","trial","null","false","0.2,0.8","2:nogo_b","",""
"null","","html-keyboard-response","208","2172302","0.0-4.0-1.56","","<img src=""img/blue-r.png"" border=""10"">","null","trial","null","","0.2,0.8","2:nogo_b","1",""
"null","","html-keyboard-response","209","2173304","0.0-4.0-2.56","","<div style=""font-size:60px;"">+</div>","null","","","","","","",""
"334","","image-keyboard-response","210","2173639","0.0-4.0-0.57","","img/orange.png","32","trial","32","true","0.8,0.2","1:go_a","",""
"null","","html-keyboard-response","211","2174655","0.0-4.0-1.57","","<img src=""img/orange-r.png"" border=""10"">","null","trial","32","","0.8,0.2","1:go_a","1",""
"null","","html-keyboard-response","212","2175655","0.0-4.0-2.57","","<div style=""font-size:60px;"">+</div>","null","","","","","","",""
"null","","image-keyboard-response","213","2177159","0.0-4.0-0.58","","img/blue.png","null","trial","null","true","0.2,0.8","2:nogo_b","",""
"null","","html-keyboard-response","214","2178162","0.0-4.0-1.58","","<img src=""img/blue-n.png"">","null","trial","null","","0.2,0.8","2:nogo_b","0",""
"null","","html-keyboard-response","215","2179178","0.0-4.0-2.58","","<div style=""font-size:60px;"">+</div>","null","","","","","","",""
"374","","image-keyboard-response","216","2179553","0.0-4.0-0.59","","img/orange.png","32","trial","32","true","0.8,0.2","1:go_a","",""
"null","","html-keyboard-response","217","2180563","0.0-4.0-1.59","","<img src=""img/orange-r.png"" border=""10"">","null","trial","32","","0.8,0.2","1:go_a","1",""
"null","","html-keyboard-response","218","2181568","0.0-4.0-2.59","","<div style=""font-size:60px;"">+</div>","null","","","","","","",""
"5202","","instructions","219","2186770","0.0-5.0","[{""page_index"":0,""viewing_time"":5202}]","","","","","","","","",""
"937","","image-keyboard-response","220","2187708","0.0-6.0-0.0","","img/grey.png","32","trial","32","true","0.6,0.4","3:go_c","",""
"null","","html-keyboard-response","221","2188717","0.0-6.0-1.0","","<img src=""img/grey-r.png"" border=""10"">","null","trial","32","","0.6,0.4","3:go_c","1",""
"null","","html-keyboard-response","222","2189731","0.0-6.0-2.0","","<div style=""font-size:60px;"">+</div>","null","","","","","","",""
"428","","image-keyboard-response","223","2190159","0.0-6.0-0.1","","img/blue.png","32","trial","null","false","0.2,0.8","2:nogo_b","",""
"null","","html-keyboard-response","224","2191164","0.0-6.0-1.1","","<img src=""img/blue-n.png"" border=""10"">","null","trial","null","","0.2,0.8","2:nogo_b","0",""
"null","","html-keyboard-response","225","2192179","0.0-6.0-2.1","","<div style=""font-size:60px;"">+</div>","null","","","","","","",""
"425","","image-keyboard-response","226","2192605","0.0-6.0-0.2","","img/yellow.png","32","trial","32","true","0.8,0.2","1:go_a","",""
"null","","html-keyboard-response","227","2193608","0.0-6.0-1.2","","<img src=""img/yellow-n.png"" border=""10"">","null","trial","32","","0.8,0.2","1:go_a","0",""
"null","","html-keyboard-response","228","2194619","0.0-6.0-2.2","","<div style=""font-size:60px;"">+</div>","null","","","","","","",""
"517","","image-keyboard-response","229","2195138","0.0-6.0-0.3","","img/pink.png","32","trial","null","false","0.4,0.6","4:nogo_d","",""
"null","","html-keyboard-response","230","2196147","0.0-6.0-1.3","","<img src=""img/pink-n.png"" border=""10"">","null","trial","null","","0.4,0.6","4:nogo_d","0",""
"null","","html-keyboard-response","231","2197162","0.0-6.0-2.3","","<div style=""font-size:60px;"">+</div>","null","","","","","","",""
"510","","image-keyboard-response","232","2197674","0.0-6.0-0.4","","img/blue.png","32","trial","null","false","0.2,0.8","2:nogo_b","",""
"null","","html-keyboard-response","233","2198684","0.0-6.0-1.4","","<img src=""img/blue-n.png"" border=""10"">","null","trial","null","","0.2,0.8","2:nogo_b","0",""
"null","","html-keyboard-response","234","2199686","0.0-6.0-2.4","","<div style=""font-size:60px;"">+</div>","null","","","","","","",""
"493","","image-keyboard-response","235","2200180","0.0-6.0-0.5","","img/pink.png","32","trial","null","false","0.4,0.6","4:nogo_d","",""
"null","","html-keyboard-response","236","2201195","0.0-6.0-1.5","","<img src=""img/pink-n.png"" border=""10"">","null","trial","null","","0.4,0.6","4:nogo_d","0",""
"null","","html-keyboard-response","237","2202207","0.0-6.0-2.5","","<div style=""font-size:60px;"">+</div>","null","","","","","","",""
"395","","image-keyboard-response","238","2202603","0.0-6.0-0.6","","img/yellow.png","32","trial","32","true","0.8,0.2","1:go_a","",""
"null","","html-keyboard-response","239","2203609","0.0-6.0-1.6","","<img src=""img/yellow-n.png"" border=""10"">","null","trial","32","","0.8,0.2","1:go_a","0",""
"null","","html-keyboard-response","240","2204623","0.0-6.0-2.6","","<div style=""font-size:60px;"">+</div>","null","","","","","","",""
"404","","image-keyboard-response","241","2205029","0.0-6.0-0.7","","img/grey.png","32","trial","32","true","0.6,0.4","3:go_c","",""
"null","","html-keyboard-response","242","2206040","0.0-6.0-1.7","","<img src=""img/grey-r.png"" border=""10"">","null","trial","32","","0.6,0.4","3:go_c","1",""
"null","","html-keyboard-response","243","2207054","0.0-6.0-2.7","","<div style=""font-size:60px;"">+</div>","null","","","","","","",""
"null","","image-keyboard-response","244","2208563","0.0-6.0-0.8","","img/pink.png","null","trial","null","true","0.4,0.6","4:nogo_d","",""
"null","","html-keyboard-response","245","2209569","0.0-6.0-1.8","","<img src=""img/pink-n.png"">","null","trial","null","","0.4,0.6","4:nogo_d","0",""
"null","","html-keyboard-response","246","2210575","0.0-6.0-2.8","","<div style=""font-size:60px;"">+</div>","null","","","","","","",""
"null","","image-keyboard-response","247","2212079","0.0-6.0-0.9","","img/yellow.png","null","trial","32","false","0.8,0.2","1:go_a","",""
"null","","html-keyboard-response","248","2213088","0.0-6.0-1.9","","<img src=""img/yellow-n.png"">","null","trial","32","","0.8,0.2","1:go_a","0",""
"null","","html-keyboard-response","249","2214096","0.0-6.0-2.9","","<div style=""font-size:60px;"">+</div>","null","","","","","","",""
"394","","image-keyboard-response","250","2214491","0.0-6.0-0.10","","img/grey.png","32","trial","32","true","0.6,0.4","3:go_c","",""
"null","","html-keyboard-response","251","2215506","0.0-6.0-1.10","","<img src=""img/grey-r.png"" border=""10"">","null","trial","32","","0.6,0.4","3:go_c","1",""
"null","","html-keyboard-response","252","2216521","0.0-6.0-2.10","","<div style=""font-size:60px;"">+</div>","null","","","","","","",""
"822","","image-keyboard-response","253","2217343","0.0-6.0-0.11","","img/blue.png","32","trial","null","false","0.2,0.8","2:nogo_b","",""
"null","","html-keyboard-response","254","2218353","0.0-6.0-1.11","","<img src=""img/blue-n.png"" border=""10"">","null","trial","null","","0.2,0.8","2:nogo_b","0",""
"null","","html-keyboard-response","255","2219364","0.0-6.0-2.11","","<div style=""font-size:60px;"">+</div>","null","","","","","","",""
"null","","image-keyboard-response","256","2220866","0.0-6.0-0.12","","img/pink.png","null","trial","null","true","0.4,0.6","4:nogo_d","",""
"null","","html-keyboard-response","257","2221874","0.0-6.0-1.12","","<img src=""img/pink-r.png"">","null","trial","null","","0.4,0.6","4:nogo_d","1",""
"null","","html-keyboard-response","258","2222882","0.0-6.0-2.12","","<div style=""font-size:60px;"">+</div>","null","","","","","","",""
"438","","image-keyboard-response","259","2223321","0.0-6.0-0.13","","img/grey.png","32","trial","32","true","0.6,0.4","3:go_c","",""
"null","","html-keyboard-response","260","2224325","0.0-6.0-1.13","","<img src=""img/grey-n.png"" border=""10"">","null","trial","32","","0.6,0.4","3:go_c","0",""
"null","","html-keyboard-response","261","2225334","0.0-6.0-2.13","","<div style=""font-size:60px;"">+</div>","null","","","","","","",""
"null","","image-keyboard-response","262","2226845","0.0-6.0-0.14","","img/blue.png","null","trial","null","true","0.2,0.8","2:nogo_b","",""
"null","","html-keyboard-response","263","2227859","0.0-6.0-1.14","","<img src=""img/blue-r.png"">","null","trial","null","","0.2,0.8","2:nogo_b","1",""
"null","","html-keyboard-response","264","2228872","0.0-6.0-2.14","","<div style=""font-size:60px;"">+</div>","null","","","","","","",""
"null","","image-keyboard-response","265","2230386","0.0-6.0-0.15","","img/yellow.png","null","trial","32","false","0.8,0.2","1:go_a","",""
"null","","html-keyboard-response","266","2231401","0.0-6.0-1.15","","<img src=""img/yellow-n.png"">","null","trial","32","","0.8,0.2","1:go_a","0",""
"null","","html-keyboard-response","267","2232404","0.0-6.0-2.15","","<div style=""font-size:60px;"">+</div>","null","","","","","","",""
"425","","image-keyboard-response","268","2232831","0.0-6.0-0.16","","img/grey.png","32","trial","32","true","0.6,0.4","3:go_c","",""
"null","","html-keyboard-response","269","2233833","0.0-6.0-1.16","","<img src=""img/grey-r.png"" border=""10"">","null","trial","32","","0.6,0.4","3:go_c","1",""
"null","","html-keyboard-response","270","2234848","0.0-6.0-2.16","","<div style=""font-size:60px;"">+</div>","null","","","","","","",""
"null","","image-keyboard-response","271","2236358","0.0-6.0-0.17","","img/yellow.png","null","trial","32","false","0.8,0.2","1:go_a","",""
"null","","html-keyboard-response","272","2237374","0.0-6.0-1.17","","<img src=""img/yellow-n.png"">","null","trial","32","","0.8,0.2","1:go_a","0",""
"null","","html-keyboard-response","273","2238381","0.0-6.0-2.17","","<div style=""font-size:60px;"">+</div>","null","","","","","","",""
"null","","image-keyboard-response","274","2239887","0.0-6.0-0.18","","img/blue.png","null","trial","null","true","0.2,0.8","2:nogo_b","",""
"null","","html-keyboard-response","275","2240898","0.0-6.0-1.18","","<img src=""img/blue-r.png"">","null","trial","null","","0.2,0.8","2:nogo_b","1",""
"null","","html-keyboard-response","276","2241900","0.0-6.0-2.18","","<div style=""font-size:60px;"">+</div>","null","","","","","","",""
"null","","image-keyboard-response","277","2243410","0.0-6.0-0.19","","img/pink.png","null","trial","null","true","0.4,0.6","4:nogo_d","",""
"null","","html-keyboard-response","278","2244412","0.0-6.0-1.19","","<img src=""img/pink-r.png"">","null","trial","null","","0.4,0.6","4:nogo_d","1",""
"null","","html-keyboard-response","279","2245412","0.0-6.0-2.19","","<div style=""font-size:60px;"">+</div>","null","","","","","","",""
"null","","image-keyboard-response","280","2246916","0.0-6.0-0.20","","img/pink.png","null","trial","null","true","0.4,0.6","4:nogo_d","",""
"null","","html-keyboard-response","281","2247920","0.0-6.0-1.20","","<img src=""img/pink-r.png"">","null","trial","null","","0.4,0.6","4:nogo_d","1",""
"null","","html-keyboard-response","282","2248934","0.0-6.0-2.20","","<div style=""font-size:60px;"">+</div>","null","","","","","","",""
"null","","image-keyboard-response","283","2250445","0.0-6.0-0.21","","img/blue.png","null","trial","null","true","0.2,0.8","2:nogo_b","",""
"null","","html-keyboard-response","284","2251458","0.0-6.0-1.21","","<img src=""img/blue-r.png"">","null","trial","null","","0.2,0.8","2:nogo_b","1",""
"null","","html-keyboard-response","285","2252473","0.0-6.0-2.21","","<div style=""font-size:60px;"">+</div>","null","","","","","","",""
"null","","image-keyboard-response","286","2253981","0.0-6.0-0.22","","img/yellow.png","null","trial","32","false","0.8,0.2","1:go_a","",""
"null","","html-keyboard-response","287","2254983","0.0-6.0-1.22","","<img src=""img/yellow-r.png"">","null","trial","32","","0.8,0.2","1:go_a","1",""
"null","","html-keyboard-response","288","2255985","0.0-6.0-2.22","","<div style=""font-size:60px;"">+</div>","null","","","","","","",""
"313","","image-keyboard-response","289","2256299","0.0-6.0-0.23","","img/grey.png","32","trial","32","true","0.6,0.4","3:go_c","",""
"null","","html-keyboard-response","290","2257309","0.0-6.0-1.23","","<img src=""img/grey-n.png"" border=""10"">","null","trial","32","","0.6,0.4","3:go_c","0",""
"null","","html-keyboard-response","291","2258325","0.0-6.0-2.23","","<div style=""font-size:60px;"">+</div>","null","","","","","","",""
"429","","image-keyboard-response","292","2258755","0.0-6.0-0.24","","img/pink.png","32","trial","null","false","0.4,0.6","4:nogo_d","",""
"null","","html-keyboard-response","293","2259757","0.0-6.0-1.24","","<img src=""img/pink-n.png"" border=""10"">","null","trial","null","","0.4,0.6","4:nogo_d","0",""
"null","","html-keyboard-response","294","2260772","0.0-6.0-2.24","","<div style=""font-size:60px;"">+</div>","null","","","","","","",""
"null","","image-keyboard-response","295","2262284","0.0-6.0-0.25","","img/yellow.png","null","trial","32","false","0.8,0.2","1:go_a","",""
"null","","html-keyboard-response","296","2263284","0.0-6.0-1.25","","<img src=""img/yellow-r.png"">","null","trial","32","","0.8,0.2","1:go_a","1",""
"null","","html-keyboard-response","297","2264299","0.0-6.0-2.25","","<div style=""font-size:60px;"">+</div>","null","","","","","","",""
"548","","image-keyboard-response","298","2264849","0.0-6.0-0.26","","img/grey.png","32","trial","32","true","0.6,0.4","3:go_c","",""
"null","","html-keyboard-response","299","2265855","0.0-6.0-1.26","","<img src=""img/grey-r.png"" border=""10"">","null","trial","32","","0.6,0.4","3:go_c","1",""
"null","","html-keyboard-response","300","2266866","0.0-6.0-2.26","","<div style=""font-size:60px;"">+</div>","null","","","","","","",""
"null","","image-keyboard-response","301","2268376","0.0-6.0-0.27","","img/blue.png","null","trial","null","true","0.2,0.8","2:nogo_b","",""
"null","","html-keyboard-response","302","2269382","0.0-6.0-1.27","","<img src=""img/blue-r.png"">","null","trial","null","","0.2,0.8","2:nogo_b","1",""
"null","","html-keyboard-response","303","2270389","0.0-6.0-2.27","","<div style=""font-size:60px;"">+</div>","null","","","","","","",""
"null","","image-keyboard-response","304","2271891","0.0-6.0-0.28","","img/blue.png","null","trial","null","true","0.2,0.8","2:nogo_b","",""
"null","","html-keyboard-response","305","2272906","0.0-6.0-1.28","","<img src=""img/blue-r.png"">","null","trial","null","","0.2,0.8","2:nogo_b","1",""
"null","","html-keyboard-response","306","2273917","0.0-6.0-2.28","","<div style=""font-size:60px;"">+</div>","null","","","","","","",""
"705","","image-keyboard-response","307","2274623","0.0-6.0-0.29","","img/grey.png","32","trial","32","true","0.6,0.4","3:go_c","",""
"null","","html-keyboard-response","308","2275631","0.0-6.0-1.29","","<img src=""img/grey-r.png"" border=""10"">","null","trial","32","","0.6,0.4","3:go_c","1",""
"null","","html-keyboard-response","309","2276642","0.0-6.0-2.29","","<div style=""font-size:60px;"">+</div>","null","","","","","","",""
"435","","image-keyboard-response","310","2277077","0.0-6.0-0.30","","img/pink.png","32","trial","null","false","0.4,0.6","4:nogo_d","",""
"null","","html-keyboard-response","311","2278090","0.0-6.0-1.30","","<img src=""img/pink-n.png"" border=""10"">","null","trial","null","","0.4,0.6","4:nogo_d","0",""
"null","","html-keyboard-response","312","2279104","0.0-6.0-2.30","","<div style=""font-size:60px;"">+</div>","null","","","","","","",""
"null","","image-keyboard-response","313","2280618","0.0-6.0-0.31","","img/yellow.png","null","trial","32","false","0.8,0.2","1:go_a","",""
"null","","html-keyboard-response","314","2281628","0.0-6.0-1.31","","<img src=""img/yellow-n.png"">","null","trial","32","","0.8,0.2","1:go_a","0",""
"null","","html-keyboard-response","315","2282630","0.0-6.0-2.31","","<div style=""font-size:60px;"">+</div>","null","","","","","","",""
"null","","image-keyboard-response","316","2284140","0.0-6.0-0.32","","img/yellow.png","null","trial","32","false","0.8,0.2","1:go_a","",""
"null","","html-keyboard-response","317","2285155","0.0-6.0-1.32","","<img src=""img/yellow-n.png"">","null","trial","32","","0.8,0.2","1:go_a","0",""
"null","","html-keyboard-response","318","2286160","0.0-6.0-2.32","","<div style=""font-size:60px;"">+</div>","null","","","","","","",""
"399","","image-keyboard-response","319","2286561","0.0-6.0-0.33","","img/grey.png","32","trial","32","true","0.6,0.4","3:go_c","",""
"null","","html-keyboard-response","320","2287568","0.0-6.0-1.33","","<img src=""img/grey-r.png"" border=""10"">","null","trial","32","","0.6,0.4","3:go_c","1",""
"null","","html-keyboard-response","321","2288577","0.0-6.0-2.33","","<div style=""font-size:60px;"">+</div>","null","","","","","","",""
"399","","image-keyboard-response","322","2288976","0.0-6.0-0.34","","img/pink.png","32","trial","null","false","0.4,0.6","4:nogo_d","",""
"null","","html-keyboard-response","323","2289988","0.0-6.0-1.34","","<img src=""img/pink-n.png"" border=""10"">","null","trial","null","","0.4,0.6","4:nogo_d","0",""
"null","","html-keyboard-response","324","2290997","0.0-6.0-2.34","","<div style=""font-size:60px;"">+</div>","null","","","","","","",""
"null","","image-keyboard-response","325","2292500","0.0-6.0-0.35","","img/blue.png","null","trial","null","true","0.2,0.8","2:nogo_b","",""
"null","","html-keyboard-response","326","2293503","0.0-6.0-1.35","","<img src=""img/blue-n.png"">","null","trial","null","","0.2,0.8","2:nogo_b","0",""
"null","","html-keyboard-response","327","2294516","0.0-6.0-2.35","","<div style=""font-size:60px;"">+</div>","null","","","","","","",""
"null","","image-keyboard-response","328","2296024","0.0-6.0-0.36","","img/blue.png","null","trial","null","true","0.2,0.8","2:nogo_b","",""
"null","","html-keyboard-response","329","2297033","0.0-6.0-1.36","","<img src=""img/blue-r.png"">","null","trial","null","","0.2,0.8","2:nogo_b","1",""
"null","","html-keyboard-response","330","2298038","0.0-6.0-2.36","","<div style=""font-size:60px;"">+</div>","null","","","","","","",""
"null","","image-keyboard-response","331","2299543","0.0-6.0-0.37","","img/yellow.png","null","trial","32","false","0.8,0.2","1:go_a","",""
"null","","html-keyboard-response","332","2300551","0.0-6.0-1.37","","<img src=""img/yellow-n.png"">","null","trial","32","","0.8,0.2","1:go_a","0",""
"null","","html-keyboard-response","333","2301560","0.0-6.0-2.37","","<div style=""font-size:60px;"">+</div>","null","","","","","","",""
"null","","image-keyboard-response","334","2303074","0.0-6.0-0.38","","img/pink.png","null","trial","null","true","0.4,0.6","4:nogo_d","",""
"null","","html-keyboard-response","335","2304085","0.0-6.0-1.38","","<img src=""img/pink-r.png"">","null","trial","null","","0.4,0.6","4:nogo_d","1",""
"null","","html-keyboard-response","336","2305089","0.0-6.0-2.38","","<div style=""font-size:60px;"">+</div>","null","","","","","","",""
"415","","image-keyboard-response","337","2305504","0.0-6.0-0.39","","img/grey.png","32","trial","32","true","0.6,0.4","3:go_c","",""
"null","","html-keyboard-response","338","2306513","0.0-6.0-1.39","","<img src=""img/grey-n.png"" border=""10"">","null","trial","32","","0.6,0.4","3:go_c","0",""
"null","","html-keyboard-response","339","2307527","0.0-6.0-2.39","","<div style=""font-size:60px;"">+</div>","null","","","","","","",""
"652","","image-keyboard-response","340","2308181","0.0-6.0-0.40","","img/grey.png","32","trial","32","true","0.6,0.4","3:go_c","",""
"null","","html-keyboard-response","341","2309187","0.0-6.0-1.40","","<img src=""img/grey-n.png"" border=""10"">","null","trial","32","","0.6,0.4","3:go_c","0",""
"null","","html-keyboard-response","342","2310194","0.0-6.0-2.40","","<div style=""font-size:60px;"">+</div>","null","","","","","","",""
"null","","image-keyboard-response","343","2311708","0.0-6.0-0.41","","img/pink.png","null","trial","null","true","0.4,0.6","4:nogo_d","",""
"null","","html-keyboard-response","344","2312720","0.0-6.0-1.41","","<img src=""img/pink-r.png"">","null","trial","null","","0.4,0.6","4:nogo_d","1",""
"null","","html-keyboard-response","345","2313736","0.0-6.0-2.41","","<div style=""font-size:60px;"">+</div>","null","","","","","","",""
"424","","image-keyboard-response","346","2314161","0.0-6.0-0.42","","img/blue.png","32","trial","null","false","0.2,0.8","2:nogo_b","",""
"null","","html-keyboard-response","347","2315166","0.0-6.0-1.42","","<img src=""img/blue-n.png"" border=""10"">","null","trial","null","","0.2,0.8","2:nogo_b","0",""
"null","","html-keyboard-response","348","2316181","0.0-6.0-2.42","","<div style=""font-size:60px;"">+</div>","null","","","","","","",""
"null","","image-keyboard-response","349","2317692","0.0-6.0-0.43","","img/yellow.png","null","trial","32","false","0.8,0.2","1:go_a","",""
"null","","html-keyboard-response","350","2318706","0.0-6.0-1.43","","<img src=""img/yellow-n.png"">","null","trial","32","","0.8,0.2","1:go_a","0",""
"null","","html-keyboard-response","351","2319721","0.0-6.0-2.43","","<div style=""font-size:60px;"">+</div>","null","","","","","","",""
"null","","image-keyboard-response","352","2321233","0.0-6.0-0.44","","img/yellow.png","null","trial","32","false","0.8,0.2","1:go_a","",""
"null","","html-keyboard-response","353","2322235","0.0-6.0-1.44","","<img src=""img/yellow-n.png"">","null","trial","32","","0.8,0.2","1:go_a","0",""
"null","","html-keyboard-response","354","2323248","0.0-6.0-2.44","","<div style=""font-size:60px;"">+</div>","null","","","","","","",""
"null","","image-keyboard-response","355","2324759","0.0-6.0-0.45","","img/blue.png","null","trial","null","true","0.2,0.8","2:nogo_b","",""
"null","","html-keyboard-response","356","2325774","0.0-6.0-1.45","","<img src=""img/blue-r.png"">","null","trial","null","","0.2,0.8","2:nogo_b","1",""
"null","","html-keyboard-response","357","2326789","0.0-6.0-2.45","","<div style=""font-size:60px;"">+</div>","null","","","","","","",""
"567","","image-keyboard-response","358","2327355","0.0-6.0-0.46","","img/pink.png","32","trial","null","false","0.4,0.6","4:nogo_d","",""
"null","","html-keyboard-response","359","2328370","0.0-6.0-1.46","","<img src=""img/pink-r.png"" border=""10"">","null","trial","null","","0.4,0.6","4:nogo_d","1",""
"null","","html-keyboard-response","360","2329372","0.0-6.0-2.46","","<div style=""font-size:60px;"">+</div>","null","","","","","","",""
"403","","image-keyboard-response","361","2329775","0.0-6.0-0.47","","img/grey.png","32","trial","32","true","0.6,0.4","3:go_c","",""
"null","","html-keyboard-response","362","2330788","0.0-6.0-1.47","","<img src=""img/grey-r.png"" border=""10"">","null","trial","32","","0.6,0.4","3:go_c","1",""
"null","","html-keyboard-response","363","2331802","0.0-6.0-2.47","","<div style=""font-size:60px;"">+</div>","null","","","","","","",""
"387","","image-keyboard-response","364","2332190","0.0-6.0-0.48","","img/blue.png","32","trial","null","false","0.2,0.8","2:nogo_b","",""
"null","","html-keyboard-response","365","2333200","0.0-6.0-1.48","","<img src=""img/blue-n.png"" border=""10"">","null","trial","null","","0.2,0.8","2:nogo_b","0",""
"null","","html-keyboard-response","366","2334215","0.0-6.0-2.48","","<div style=""font-size:60px;"">+</div>","null","","","","","","",""
"525","","image-keyboard-response","367","2334741","0.0-6.0-0.49","","img/yellow.png","32","trial","32","true","0.8,0.2","1:go_a","",""
"null","","html-keyboard-response","368","2335754","0.0-6.0-1.49","","<img src=""img/yellow-r.png"" border=""10"">","null","trial","32","","0.8,0.2","1:go_a","1",""
"null","","html-keyboard-response","369","2336756","0.0-6.0-2.49","","<div style=""font-size:60px;"">+</div>","null","","","","","","",""
"399","","image-keyboard-response","370","2337156","0.0-6.0-0.50","","img/grey.png","32","trial","32","true","0.6,0.4","3:go_c","",""
"null","","html-keyboard-response","371","2338157","0.0-6.0-1.50","","<img src=""img/grey-n.png"" border=""10"">","null","trial","32","","0.6,0.4","3:go_c","0",""
"null","","html-keyboard-response","372","2339160","0.0-6.0-2.50","","<div style=""font-size:60px;"">+</div>","null","","","","","","",""
"697","","image-keyboard-response","373","2339858","0.0-6.0-0.51","","img/pink.png","32","trial","null","false","0.4,0.6","4:nogo_d","",""
"null","","html-keyboard-response","374","2340866","0.0-6.0-1.51","","<img src=""img/pink-n.png"" border=""10"">","null","trial","null","","0.4,0.6","4:nogo_d","0",""
"null","","html-keyboard-response","375","2341866","0.0-6.0-2.51","","<div style=""font-size:60px;"">+</div>","null","","","","","","",""
"740","","image-keyboard-response","376","2342608","0.0-6.0-0.52","","img/yellow.png","32","trial","32","true","0.8,0.2","1:go_a","",""
"null","","html-keyboard-response","377","2343620","0.0-6.0-1.52","","<img src=""img/yellow-r.png"" border=""10"">","null","trial","32","","0.8,0.2","1:go_a","1",""
"null","","html-keyboard-response","378","2344635","0.0-6.0-2.52","","<div style=""font-size:60px;"">+</div>","null","","","","","","",""
"623","","image-keyboard-response","379","2345259","0.0-6.0-0.53","","img/grey.png","32","trial","32","true","0.6,0.4","3:go_c","",""
"null","","html-keyboard-response","380","2346264","0.0-6.0-1.53","","<img src=""img/grey-r.png"" border=""10"">","null","trial","32","","0.6,0.4","3:go_c","1",""
"null","","html-keyboard-response","381","2347267","0.0-6.0-2.53","","<div style=""font-size:60px;"">+</div>","null","","","","","","",""
"null","","image-keyboard-response","382","2348773","0.0-6.0-0.54","","img/blue.png","null","trial","null","true","0.2,0.8","2:nogo_b","",""
"null","","html-keyboard-response","383","2349789","0.0-6.0-1.54","","<img src=""img/blue-r.png"">","null","trial","null","","0.2,0.8","2:nogo_b","1",""
"null","","html-keyboard-response","384","2350802","0.0-6.0-2.54","","<div style=""font-size:60px;"">+</div>","null","","","","","","",""
"715","","image-keyboard-response","385","2351520","0.0-6.0-0.55","","img/pink.png","32","trial","null","false","0.4,0.6","4:nogo_d","",""
"null","","html-keyboard-response","386","2352529","0.0-6.0-1.55","","<img src=""img/pink-n.png"" border=""10"">","null","trial","null","","0.4,0.6","4:nogo_d","0",""
"null","","html-keyboard-response","387","2353532","0.0-6.0-2.55","","<div style=""font-size:60px;"">+</div>","null","","","","","","",""
"585","","image-keyboard-response","388","2354117","0.0-6.0-0.56","","img/pink.png","32","trial","null","false","0.4,0.6","4:nogo_d","",""
"null","","html-keyboard-response","389","2355119","0.0-6.0-1.56","","<img src=""img/pink-n.png"" border=""10"">","null","trial","null","","0.4,0.6","4:nogo_d","0",""
"null","","html-keyboard-response","390","2356134","0.0-6.0-2.56","","<div style=""font-size:60px;"">+</div>","null","","","","","","",""
"425","","image-keyboard-response","391","2356559","0.0-6.0-0.57","","img/grey.png","32","trial","32","true","0.6,0.4","3:go_c","",""
"null","","html-keyboard-response","392","2357570","0.0-6.0-1.57","","<img src=""img/grey-r.png"" border=""10"">","null","trial","32","","0.6,0.4","3:go_c","1",""
"null","","html-keyboard-response","393","2358572","0.0-6.0-2.57","","<div style=""font-size:60px;"">+</div>","null","","","","","","",""
"null","","image-keyboard-response","394","2360080","0.0-6.0-0.58","","img/yellow.png","null","trial","32","false","0.8,0.2","1:go_a","",""
"null","","html-keyboard-response","395","2361096","0.0-6.0-1.58","","<img src=""img/yellow-r.png"">","null","trial","32","","0.8,0.2","1:go_a","1",""
"null","","html-keyboard-response","396","2362101","0.0-6.0-2.58","","<div style=""font-size:60px;"">+</div>","null","","","","","","",""
"null","","image-keyboard-response","397","2363603","0.0-6.0-0.59","","img/blue.png","null","trial","null","true","0.2,0.8","2:nogo_b","",""
"null","","html-keyboard-response","398","2364611","0.0-6.0-1.59","","<img src=""img/blue-r.png"">","null","trial","null","","0.2,0.8","2:nogo_b","1",""
"null","","html-keyboard-response","399","2365620","0.0-6.0-2.59","","<div style=""font-size:60px;"">+</div>","null","","","","","","",""
"null","","image-keyboard-response","400","2367124","0.0-6.0-0.60","","img/blue.png","null","trial","null","true","0.2,0.8","2:nogo_b","",""
"null","","html-keyboard-response","401","2368131","0.0-6.0-1.60","","<img src=""img/blue-r.png"">","null","trial","null","","0.2,0.8","2:nogo_b","1",""
"null","","html-keyboard-response","402","2369144","0.0-6.0-2.60","","<div style=""font-size:60px;"">+</div>","null","","","","","","",""
"null","","image-keyboard-response","403","2370651","0.0-6.0-0.61","","img/yellow.png","null","trial","32","false","0.8,0.2","1:go_a","",""
"null","","html-keyboard-response","404","2371656","0.0-6.0-1.61","","<img src=""img/yellow-n.png"">","null","trial","32","","0.8,0.2","1:go_a","0",""
"null","","html-keyboard-response","405","2372661","0.0-6.0-2.61","","<div style=""font-size:60px;"">+</div>","null","","","","","","",""
"null","","image-keyboard-response","406","2374166","0.0-6.0-0.62","","img/pink.png","null","trial","null","true","0.4,0.6","4:nogo_d","",""
"null","","html-keyboard-response","407","2375174","0.0-6.0-1.62","","<img src=""img/pink-n.png"">","null","trial","null","","0.4,0.6","4:nogo_d","0",""
"null","","html-keyboard-response","408","2376182","0.0-6.0-2.62","","<div style=""font-size:60px;"">+</div>","null","","","","","","",""
"423","","image-keyboard-response","409","2376606","0.0-6.0-0.63","","img/grey.png","32","trial","32","true","0.6,0.4","3:go_c","",""
"null","","html-keyboard-response","410","2377608","0.0-6.0-1.63","","<img src=""img/grey-r.png"" border=""10"">","null","trial","32","","0.6,0.4","3:go_c","1",""
"null","","html-keyboard-response","411","2378609","0.0-6.0-2.63","","<div style=""font-size:60px;"">+</div>","null","","","","","","",""
"882","","image-keyboard-response","412","2379492","0.0-6.0-0.64","","img/yellow.png","32","trial","32","true","0.8,0.2","1:go_a","",""
"null","","html-keyboard-response","413","2380505","0.0-6.0-1.64","","<img src=""img/yellow-r.png"" border=""10"">","null","trial","32","","0.8,0.2","1:go_a","1",""
"null","","html-keyboard-response","414","2381506","0.0-6.0-2.64","","<div style=""font-size:60px;"">+</div>","null","","","","","","",""
"323","","image-keyboard-response","415","2381830","0.0-6.0-0.65","","img/pink.png","32","trial","null","false","0.4,0.6","4:nogo_d","",""
"null","","html-keyboard-response","416","2382838","0.0-6.0-1.65","","<img src=""img/pink-n.png"" border=""10"">","null","trial","null","","0.4,0.6","4:nogo_d","0",""
"null","","html-keyboard-response","417","2383846","0.0-6.0-2.65","","<div style=""font-size:60px;"">+</div>","null","","","","","","",""
"565","","image-keyboard-response","418","2384412","0.0-6.0-0.66","","img/grey.png","32","trial","32","true","0.6,0.4","3:go_c","",""
"null","","html-keyboard-response","419","2385428","0.0-6.0-1.66","","<img src=""img/grey-n.png"" border=""10"">","null","trial","32","","0.6,0.4","3:go_c","0",""
"null","","html-keyboard-response","420","2386436","0.0-6.0-2.66","","<div style=""font-size:60px;"">+</div>","null","","","","","","",""
"null","","image-keyboard-response","421","2387940","0.0-6.0-0.67","","img/blue.png","null","trial","null","true","0.2,0.8","2:nogo_b","",""
"null","","html-keyboard-response","422","2388943","0.0-6.0-1.67","","<img src=""img/blue-r.png"">","null","trial","null","","0.2,0.8","2:nogo_b","1",""
"null","","html-keyboard-response","423","2389944","0.0-6.0-2.67","","<div style=""font-size:60px;"">+</div>","null","","","","","","",""
"515","","image-keyboard-response","424","2390461","0.0-6.0-0.68","","img/grey.png","32","trial","32","true","0.6,0.4","3:go_c","",""
"null","","html-keyboard-response","425","2391466","0.0-6.0-1.68","","<img src=""img/grey-r.png"" border=""10"">","null","trial","32","","0.6,0.4","3:go_c","1",""
"null","","html-keyboard-response","426","2392479","0.0-6.0-2.68","","<div style=""font-size:60px;"">+</div>","null","","","","","","",""
"null","","image-keyboard-response","427","2393986","0.0-6.0-0.69","","img/pink.png","null","trial","null","true","0.4,0.6","4:nogo_d","",""
"null","","html-keyboard-response","428","2394990","0.0-6.0-1.69","","<img src=""img/pink-r.png"">","null","trial","null","","0.4,0.6","4:nogo_d","1",""
"null","","html-keyboard-response","429","2396005","0.0-6.0-2.69","","<div style=""font-size:60px;"">+</div>","null","","","","","","",""
"466","","image-keyboard-response","430","2396472","0.0-6.0-0.70","","img/blue.png","32","trial","null","false","0.2,0.8","2:nogo_b","",""
"null","","html-keyboard-response","431","2397481","0.0-6.0-1.70","","<img src=""img/blue-r.png"" border=""10"">","null","trial","null","","0.2,0.8","2:nogo_b","1",""
"null","","html-keyboard-response","432","2398486","0.0-6.0-2.70","","<div style=""font-size:60px;"">+</div>","null","","","","","","",""
"null","","image-keyboard-response","433","2399993","0.0-6.0-0.71","","img/yellow.png","null","trial","32","false","0.8,0.2","1:go_a","",""
"null","","html-keyboard-response","434","2401007","0.0-6.0-1.71","","<img src=""img/yellow-n.png"">","null","trial","32","","0.8,0.2","1:go_a","0",""
"null","","html-keyboard-response","435","2402022","0.0-6.0-2.71","","<div style=""font-size:60px;"">+</div>","null","","","","","","",""
"null","","image-keyboard-response","436","2403532","0.0-6.0-0.72","","img/yellow.png","null","trial","32","false","0.8,0.2","1:go_a","",""
"null","","html-keyboard-response","437","2404534","0.0-6.0-1.72","","<img src=""img/yellow-r.png"">","null","trial","32","","0.8,0.2","1:go_a","1",""
"null","","html-keyboard-response","438","2405550","0.0-6.0-2.72","","<div style=""font-size:60px;"">+</div>","null","","","","","","",""
"407","","image-keyboard-response","439","2405957","0.0-6.0-0.73","","img/grey.png","32","trial","32","true","0.6,0.4","3:go_c","",""
"null","","html-keyboard-response","440","2406965","0.0-6.0-1.73","","<img src=""img/grey-r.png"" border=""10"">","null","trial","32","","0.6,0.4","3:go_c","1",""
"null","","html-keyboard-response","441","2407979","0.0-6.0-2.73","","<div style=""font-size:60px;"">+</div>","null","","","","","","",""
"468","","image-keyboard-response","442","2408449","0.0-6.0-0.74","","img/blue.png","32","trial","null","false","0.2,0.8","2:nogo_b","",""
"null","","html-keyboard-response","443","2409457","0.0-6.0-1.74","","<img src=""img/blue-n.png"" border=""10"">","null","trial","null","","0.2,0.8","2:nogo_b","0",""
"null","","html-keyboard-response","444","2410458","0.0-6.0-2.74","","<div style=""font-size:60px;"">+</div>","null","","","","","","",""
"null","","image-keyboard-response","445","2411966","0.0-6.0-0.75","","img/pink.png","null","trial","null","true","0.4,0.6","4:nogo_d","",""
"null","","html-keyboard-response","446","2412974","0.0-6.0-1.75","","<img src=""img/pink-r.png"">","null","trial","null","","0.4,0.6","4:nogo_d","1",""
"null","","html-keyboard-response","447","2413976","0.0-6.0-2.75","","<div style=""font-size:60px;"">+</div>","null","","","","","","",""
"null","","image-keyboard-response","448","2415486","0.0-6.0-0.76","","img/yellow.png","null","trial","32","false","0.8,0.2","1:go_a","",""
"null","","html-keyboard-response","449","2416489","0.0-6.0-1.76","","<img src=""img/yellow-r.png"">","null","trial","32","","0.8,0.2","1:go_a","1",""
"null","","html-keyboard-response","450","2417500","0.0-6.0-2.76","","<div style=""font-size:60px;"">+</div>","null","","","","","","",""
"363","","image-keyboard-response","451","2417865","0.0-6.0-0.77","","img/grey.png","32","trial","32","true","0.6,0.4","3:go_c","",""
"null","","html-keyboard-response","452","2418872","0.0-6.0-1.77","","<img src=""img/grey-r.png"" border=""10"">","null","trial","32","","0.6,0.4","3:go_c","1",""
"null","","html-keyboard-response","453","2419887","0.0-6.0-2.77","","<div style=""font-size:60px;"">+</div>","null","","","","","","",""
"null","","image-keyboard-response","454","2421393","0.0-6.0-0.78","","img/pink.png","null","trial","null","true","0.4,0.6","4:nogo_d","",""
"null","","html-keyboard-response","455","2422395","0.0-6.0-1.78","","<img src=""img/pink-r.png"">","null","trial","null","","0.4,0.6","4:nogo_d","1",""
"null","","html-keyboard-response","456","2423410","0.0-6.0-2.78","","<div style=""font-size:60px;"">+</div>","null","","","","","","",""
"407","","image-keyboard-response","457","2423819","0.0-6.0-0.79","","img/blue.png","32","trial","null","false","0.2,0.8","2:nogo_b","",""
"null","","html-keyboard-response","458","2424828","0.0-6.0-1.79","","<img src=""img/blue-n.png"" border=""10"">","null","trial","null","","0.2,0.8","2:nogo_b","0",""
"null","","html-keyboard-response","459","2425828","0.0-6.0-2.79","","<div style=""font-size:60px;"">+</div>","null","","","","","","",""
"null","","image-keyboard-response","460","2427337","0.0-6.0-0.80","","img/blue.png","null","trial","null","true","0.2,0.8","2:nogo_b","",""
"null","","html-keyboard-response","461","2428345","0.0-6.0-1.80","","<img src=""img/blue-r.png"">","null","trial","null","","0.2,0.8","2:nogo_b","1",""
"null","","html-keyboard-response","462","2429353","0.0-6.0-2.80","","<div style=""font-size:60px;"">+</div>","null","","","","","","",""
"358","","image-keyboard-response","463","2429712","0.0-6.0-0.81","","img/grey.png","32","trial","32","true","0.6,0.4","3:go_c","",""
"null","","html-keyboard-response","464","2430718","0.0-6.0-1.81","","<img src=""img/grey-r.png"" border=""10"">","null","trial","32","","0.6,0.4","3:go_c","1",""
"null","","html-keyboard-response","465","2431726","0.0-6.0-2.81","","<div style=""font-size:60px;"">+</div>","null","","","","","","",""
"null","","image-keyboard-response","466","2433231","0.0-6.0-0.82","","img/pink.png","null","trial","null","true","0.4,0.6","4:nogo_d","",""
"null","","html-keyboard-response","467","2434239","0.0-6.0-1.82","","<img src=""img/pink-r.png"">","null","trial","null","","0.4,0.6","4:nogo_d","1",""
"null","","html-keyboard-response","468","2435246","0.0-6.0-2.82","","<div style=""font-size:60px;"">+</div>","null","","","","","","",""
"null","","image-keyboard-response","469","2436757","0.0-6.0-0.83","","img/yellow.png","null","trial","32","false","0.8,0.2","1:go_a","",""
"null","","html-keyboard-response","470","2437759","0.0-6.0-1.83","","<img src=""img/yellow-n.png"">","null","trial","32","","0.8,0.2","1:go_a","0",""
"null","","html-keyboard-response","471","2438773","0.0-6.0-2.83","","<div style=""font-size:60px;"">+</div>","null","","","","","","",""
"656","","image-keyboard-response","472","2439430","0.0-6.0-0.84","","img/grey.png","32","trial","32","true","0.6,0.4","3:go_c","",""
"null","","html-keyboard-response","473","2440444","0.0-6.0-1.84","","<img src=""img/grey-n.png"" border=""10"">","null","trial","32","","0.6,0.4","3:go_c","0",""
"null","","html-keyboard-response","474","2441451","0.0-6.0-2.84","","<div style=""font-size:60px;"">+</div>","null","","","","","","",""
"null","","image-keyboard-response","475","2442956","0.0-6.0-0.85","","img/yellow.png","null","trial","32","false","0.8,0.2","1:go_a","",""
"null","","html-keyboard-response","476","2443965","0.0-6.0-1.85","","<img src=""img/yellow-n.png"">","null","trial","32","","0.8,0.2","1:go_a","0",""
"null","","html-keyboard-response","477","2444973","0.0-6.0-2.85","","<div style=""font-size:60px;"">+</div>","null","","","","","","",""
"472","","image-keyboard-response","478","2445445","0.0-6.0-0.86","","img/blue.png","32","trial","null","false","0.2,0.8","2:nogo_b","",""
"null","","html-keyboard-response","479","2446447","0.0-6.0-1.86","","<img src=""img/blue-n.png"" border=""10"">","null","trial","null","","0.2,0.8","2:nogo_b","0",""
"null","","html-keyboard-response","480","2447455","0.0-6.0-2.86","","<div style=""font-size:60px;"">+</div>","null","","","","","","",""
"null","","image-keyboard-response","481","2448966","0.0-6.0-0.87","","img/pink.png","null","trial","null","true","0.4,0.6","4:nogo_d","",""
"null","","html-keyboard-response","482","2449966","0.0-6.0-1.87","","<img src=""img/pink-r.png"">","null","trial","null","","0.4,0.6","4:nogo_d","1",""
"null","","html-keyboard-response","483","2450976","0.0-6.0-2.87","","<div style=""font-size:60px;"">+</div>","null","","","","","","",""
"610","","image-keyboard-response","484","2451587","0.0-6.0-0.88","","img/pink.png","32","trial","null","false","0.4,0.6","4:nogo_d","",""
"null","","html-keyboard-response","485","2452593","0.0-6.0-1.88","","<img src=""img/pink-r.png"" border=""10"">","null","trial","null","","0.4,0.6","4:nogo_d","1",""
"null","","html-keyboard-response","486","2453596","0.0-6.0-2.88","","<div style=""font-size:60px;"">+</div>","null","","","","","","",""
"577","","image-keyboard-response","487","2454174","0.0-6.0-0.89","","img/yellow.png","32","trial","32","true","0.8,0.2","1:go_a","",""
"null","","html-keyboard-response","488","2455181","0.0-6.0-1.89","","<img src=""img/yellow-r.png"" border=""10"">","null","trial","32","","0.8,0.2","1:go_a","1",""
"null","","html-keyboard-response","489","2456195","0.0-6.0-2.89","","<div style=""font-size:60px;"">+</div>","null","","","","","","",""
"660","","image-keyboard-response","490","2456855","0.0-6.0-0.90","","img/blue.png","32","trial","null","false","0.2,0.8","2:nogo_b","",""
"null","","html-keyboard-response","491","2457859","0.0-6.0-1.90","","<img src=""img/blue-n.png"" border=""10"">","null","trial","null","","0.2,0.8","2:nogo_b","0",""
"null","","html-keyboard-response","492","2458859","0.0-6.0-2.90","","<div style=""font-size:60px;"">+</div>","null","","","","","","",""
"681","","image-keyboard-response","493","2459541","0.0-6.0-0.91","","img/grey.png","32","trial","32","true","0.6,0.4","3:go_c","",""
"null","","html-keyboard-response","494","2460542","0.0-6.0-1.91","","<img src=""img/grey-r.png"" border=""10"">","null","trial","32","","0.6,0.4","3:go_c","1",""
"null","","html-keyboard-response","495","2461545","0.0-6.0-2.91","","<div style=""font-size:60px;"">+</div>","null","","","","","","",""
"673","","image-keyboard-response","496","2462219","0.0-6.0-0.92","","img/blue.png","32","trial","null","false","0.2,0.8","2:nogo_b","",""
"null","","html-keyboard-response","497","2463223","0.0-6.0-1.92","","<img src=""img/blue-n.png"" border=""10"">","null","trial","null","","0.2,0.8","2:nogo_b","0",""
"null","","html-keyboard-response","498","2464238","0.0-6.0-2.92","","<div style=""font-size:60px;"">+</div>","null","","","","","","",""
"null","","image-keyboard-response","499","2465748","0.0-6.0-0.93","","img/yellow.png","null","trial","32","false","0.8,0.2","1:go_a","",""
"null","","html-keyboard-response","500","2466753","0.0-6.0-1.93","","<img src=""img/yellow-n.png"">","null","trial","32","","0.8,0.2","1:go_a","0",""
"null","","html-keyboard-response","501","2467759","0.0-6.0-2.93","","<div style=""font-size:60px;"">+</div>","null","","","","","","",""
"481","","image-keyboard-response","502","2468242","0.0-6.0-0.94","","img/grey.png","32","trial","32","true","0.6,0.4","3:go_c","",""
"null","","html-keyboard-response","503","2469244","0.0-6.0-1.94","","<img src=""img/grey-r.png"" border=""10"">","null","trial","32","","0.6,0.4","3:go_c","1",""
"null","","html-keyboard-response","504","2470246","0.0-6.0-2.94","","<div style=""font-size:60px;"">+</div>","null","","","","","","",""
"709","","image-keyboard-response","505","2470955","0.0-6.0-0.95","","img/pink.png","32","trial","null","false","0.4,0.6","4:nogo_d","",""
"null","","html-keyboard-response","506","2471970","0.0-6.0-1.95","","<img src=""img/pink-r.png"" border=""10"">","null","trial","null","","0.4,0.6","4:nogo_d","1",""
"null","","html-keyboard-response","507","2472971","0.0-6.0-2.95","","<div style=""font-size:60px;"">+</div>","null","","","","","","",""
"null","","image-keyboard-response","508","2474475","0.0-6.0-0.96","","img/yellow.png","null","trial","32","false","0.8,0.2","1:go_a","",""
"null","","html-keyboard-response","509","2475492","0.0-6.0-1.96","","<img src=""img/yellow-n.png"">","null","trial","32","","0.8,0.2","1:go_a","0",""
"null","","html-keyboard-response","510","2476498","0.0-6.0-2.96","","<div style=""font-size:60px;"">+</div>","null","","","","","","",""
"null","","image-keyboard-response","511","2478004","0.0-6.0-0.97","","img/blue.png","null","trial","null","true","0.2,0.8","2:nogo_b","",""
"null","","html-keyboard-response","512","2479006","0.0-6.0-1.97","","<img src=""img/blue-r.png"">","null","trial","null","","0.2,0.8","2:nogo_b","1",""
"null","","html-keyboard-response","513","2480008","0.0-6.0-2.97","","<div style=""font-size:60px;"">+</div>","null","","","","","","",""
"null","","image-keyboard-response","514","2481514","0.0-6.0-0.98","","img/pink.png","null","trial","null","true","0.4,0.6","4:nogo_d","",""
"null","","html-keyboard-response","515","2482516","0.0-6.0-1.98","","<img src=""img/pink-r.png"">","null","trial","null","","0.4,0.6","4:nogo_d","1",""
"null","","html-keyboard-response","516","2483523","0.0-6.0-2.98","","<div style=""font-size:60px;"">+</div>","null","","","","","","",""
"460","","image-keyboard-response","517","2483982","0.0-6.0-0.99","","img/grey.png","32","trial","32","true","0.6,0.4","3:go_c","",""
"null","","html-keyboard-response","518","2484996","0.0-6.0-1.99","","<img src=""img/grey-r.png"" border=""10"">","null","trial","32","","0.6,0.4","3:go_c","1",""
"null","","html-keyboard-response","519","2486005","0.0-6.0-2.99","","<div style=""font-size:60px;"">+</div>","null","","","","","","",""
"647","","image-keyboard-response","520","2486653","0.0-6.0-0.100","","img/blue.png","32","trial","null","false","0.2,0.8","2:nogo_b","",""
"null","","html-keyboard-response","521","2487665","0.0-6.0-1.100","","<img src=""img/blue-n.png"" border=""10"">","null","trial","null","","0.2,0.8","2:nogo_b","0",""
"null","","html-keyboard-response","522","2488678","0.0-6.0-2.100","","<div style=""font-size:60px;"">+</div>","null","","","","","","",""
"null","","image-keyboard-response","523","2490190","0.0-6.0-0.101","","img/grey.png","null","trial","32","false","0.6,0.4","3:go_c","",""
"null","","html-keyboard-response","524","2491196","0.0-6.0-1.101","","<img src=""img/grey-r.png"">","null","trial","32","","0.6,0.4","3:go_c","1",""
"null","","html-keyboard-response","525","2492199","0.0-6.0-2.101","","<div style=""font-size:60px;"">+</div>","null","","","","","","",""
"null","","image-keyboard-response","526","2493702","0.0-6.0-0.102","","img/yellow.png","null","trial","32","false","0.8,0.2","1:go_a","",""
"null","","html-keyboard-response","527","2494705","0.0-6.0-1.102","","<img src=""img/yellow-n.png"">","null","trial","32","","0.8,0.2","1:go_a","0",""
"null","","html-keyboard-response","528","2495720","0.0-6.0-2.102","","<div style=""font-size:60px;"">+</div>","null","","","","","","",""
"null","","image-keyboard-response","529","2497233","0.0-6.0-0.103","","img/pink.png","null","trial","null","true","0.4,0.6","4:nogo_d","",""
"null","","html-keyboard-response","530","2498237","0.0-6.0-1.103","","<img src=""img/pink-n.png"">","null","trial","null","","0.4,0.6","4:nogo_d","0",""
"null","","html-keyboard-response","531","2499240","0.0-6.0-2.103","","<div style=""font-size:60px;"">+</div>","null","","","","","","",""
"null","","image-keyboard-response","532","2500747","0.0-6.0-0.104","","img/blue.png","null","trial","null","true","0.2,0.8","2:nogo_b","",""
"null","","html-keyboard-response","533","2501763","0.0-6.0-1.104","","<img src=""img/blue-r.png"">","null","trial","null","","0.2,0.8","2:nogo_b","1",""
"null","","html-keyboard-response","534","2502779","0.0-6.0-2.104","","<div style=""font-size:60px;"">+</div>","null","","","","","","",""
"null","","image-keyboard-response","535","2504294","0.0-6.0-0.105","","img/pink.png","null","trial","null","true","0.4,0.6","4:nogo_d","",""
"null","","html-keyboard-response","536","2505309","0.0-6.0-1.105","","<img src=""img/pink-r.png"">","null","trial","null","","0.4,0.6","4:nogo_d","1",""
"null","","html-keyboard-response","537","2506314","0.0-6.0-2.105","","<div style=""font-size:60px;"">+</div>","null","","","","","","",""
"432","","image-keyboard-response","538","2506747","0.0-6.0-0.106","","img/grey.png","32","trial","32","true","0.6,0.4","3:go_c","",""
"null","","html-keyboard-response","539","2507757","0.0-6.0-1.106","","<img src=""img/grey-r.png"" border=""10"">","null","trial","32","","0.6,0.4","3:go_c","1",""
"null","","html-keyboard-response","540","2508765","0.0-6.0-2.106","","<div style=""font-size:60px;"">+</div>","null","","","","","","",""
"null","","image-keyboard-response","541","2510270","0.0-6.0-0.107","","img/yellow.png","null","trial","32","false","0.8,0.2","1:go_a","",""
"null","","html-keyboard-response","542","2511277","0.0-6.0-1.107","","<img src=""img/yellow-n.png"">","null","trial","32","","0.8,0.2","1:go_a","0",""
"null","","html-keyboard-response","543","2512285","0.0-6.0-2.107","","<div style=""font-size:60px;"">+</div>","null","","","","","","",""
"null","","image-keyboard-response","544","2513793","0.0-6.0-0.108","","img/pink.png","null","trial","null","true","0.4,0.6","4:nogo_d","",""
"null","","html-keyboard-response","545","2514806","0.0-6.0-1.108","","<img src=""img/pink-n.png"">","null","trial","null","","0.4,0.6","4:nogo_d","0",""
"null","","html-keyboard-response","546","2515809","0.0-6.0-2.108","","<div style=""font-size:60px;"">+</div>","null","","","","","","",""
"432","","image-keyboard-response","547","2516242","0.0-6.0-0.109","","img/grey.png","32","trial","32","true","0.6,0.4","3:go_c","",""
"null","","html-keyboard-response","548","2517247","0.0-6.0-1.109","","<img src=""img/grey-r.png"" border=""10"">","null","trial","32","","0.6,0.4","3:go_c","1",""
"null","","html-keyboard-response","549","2518253","0.0-6.0-2.109","","<div style=""font-size:60px;"">+</div>","null","","","","","","",""
"780","","image-keyboard-response","550","2519035","0.0-6.0-0.110","","img/yellow.png","32","trial","32","true","0.8,0.2","1:go_a","",""
"null","","html-keyboard-response","551","2520038","0.0-6.0-1.110","","<img src=""img/yellow-r.png"" border=""10"">","null","trial","32","","0.8,0.2","1:go_a","1",""
"null","","html-keyboard-response","552","2521046","0.0-6.0-2.110","","<div style=""font-size:60px;"">+</div>","null","","","","","","",""
"766","","image-keyboard-response","553","2521813","0.0-6.0-0.111","","img/blue.png","32","trial","null","false","0.2,0.8","2:nogo_b","",""
"null","","html-keyboard-response","554","2522826","0.0-6.0-1.111","","<img src=""img/blue-n.png"" border=""10"">","null","trial","null","","0.2,0.8","2:nogo_b","0",""
"null","","html-keyboard-response","555","2523829","0.0-6.0-2.111","","<div style=""font-size:60px;"">+</div>","null","","","","","","",""
"482","","image-keyboard-response","556","2524314","0.0-6.0-0.112","","img/grey.png","32","trial","32","true","0.6,0.4","3:go_c","",""
"null","","html-keyboard-response","557","2525330","0.0-6.0-1.112","","<img src=""img/grey-r.png"" border=""10"">","null","trial","32","","0.6,0.4","3:go_c","1",""
"null","","html-keyboard-response","558","2526331","0.0-6.0-2.112","","<div style=""font-size:60px;"">+</div>","null","","","","","","",""
"458","","image-keyboard-response","559","2526790","0.0-6.0-0.113","","img/blue.png","32","trial","null","false","0.2,0.8","2:nogo_b","",""
"null","","html-keyboard-response","560","2527795","0.0-6.0-1.113","","<img src=""img/blue-n.png"" border=""10"">","null","trial","null","","0.2,0.8","2:nogo_b","0",""
"null","","html-keyboard-response","561","2528809","0.0-6.0-2.113","","<div style=""font-size:60px;"">+</div>","null","","","","","","",""
"null","","image-keyboard-response","562","2530319","0.0-6.0-0.114","","img/pink.png","null","trial","null","true","0.4,0.6","4:nogo_d","",""
"null","","html-keyboard-response","563","2531320","0.0-6.0-1.114","","<img src=""img/pink-n.png"">","null","trial","null","","0.4,0.6","4:nogo_d","0",""
"null","","html-keyboard-response","564","2532332","0.0-6.0-2.114","","<div style=""font-size:60px;"">+</div>","null","","","","","","",""
"null","","image-keyboard-response","565","2533842","0.0-6.0-0.115","","img/yellow.png","null","trial","32","false","0.8,0.2","1:go_a","",""
"null","","html-keyboard-response","566","2534843","0.0-6.0-1.115","","<img src=""img/yellow-n.png"">","null","trial","32","","0.8,0.2","1:go_a","0",""
"null","","html-keyboard-response","567","2535858","0.0-6.0-2.115","","<div style=""font-size:60px;"">+</div>","null","","","","","","",""
"374","","image-keyboard-response","568","2536232","0.0-6.0-0.116","","img/grey.png","32","trial","32","true","0.6,0.4","3:go_c","",""
"null","","html-keyboard-response","569","2537244","0.0-6.0-1.116","","<img src=""img/grey-r.png"" border=""10"">","null","trial","32","","0.6,0.4","3:go_c","1",""
"null","","html-keyboard-response","570","2538246","0.0-6.0-2.116","","<div style=""font-size:60px;"">+</div>","null","","","","","","",""
"749","","image-keyboard-response","571","2538996","0.0-6.0-0.117","","img/pink.png","32","trial","null","false","0.4,0.6","4:nogo_d","",""
"null","","html-keyboard-response","572","2540002","0.0-6.0-1.117","","<img src=""img/pink-r.png"" border=""10"">","null","trial","null","","0.4,0.6","4:nogo_d","1",""
"null","","html-keyboard-response","573","2541013","0.0-6.0-2.117","","<div style=""font-size:60px;"">+</div>","null","","","","","","",""
"null","","image-keyboard-response","574","2542524","0.0-6.0-0.118","","img/blue.png","null","trial","null","true","0.2,0.8","2:nogo_b","",""
"null","","html-keyboard-response","575","2543528","0.0-6.0-1.118","","<img src=""img/blue-r.png"">","null","trial","null","","0.2,0.8","2:nogo_b","1",""
"null","","html-keyboard-response","576","2544533","0.0-6.0-2.118","","<div style=""font-size:60px;"">+</div>","null","","","","","","",""
"null","","image-keyboard-response","577","2546036","0.0-6.0-0.119","","img/yellow.png","null","trial","32","false","0.8,0.2","1:go_a","",""
"null","","html-keyboard-response","578","2547052","0.0-6.0-1.119","","<img src=""img/yellow-n.png"">","null","trial","32","","0.8,0.2","1:go_a","0",""
"null","","html-keyboard-response","579","2548053","0.0-6.0-2.119","","<div style=""font-size:60px;"">+</div>","null","","","","","","",""
"404714","","instructions","580","2952768","0.0-7.0","[{""page_index"":0,""viewing_time"":404713}]","","","","","","","","",""
"606","","image-keyboard-response","581","2953376","0.0-8.0-0.0","","img/grey.png","32","trial","32","true","0.8,0.2","1:go_a","",""
"null","","html-keyboard-response","582","2954393","0.0-8.0-1.0","","<img src=""img/grey-r.png"" border=""10"">","null","trial","32","","0.8,0.2","1:go_a","1",""
"null","","html-keyboard-response","583","2955394","0.0-8.0-2.0","","<div style=""font-size:60px;"">+</div>","null","","","","","","",""
"496","","image-keyboard-response","584","2955891","0.0-8.0-0.1","","img/green.png","32","trial","32","true","1,0","3:go_c","",""
"null","","html-keyboard-response","585","2956900","0.0-8.0-1.1","","<img src=""img/green-r.png"" border=""10"">","null","trial","32","","1,0","3:go_c","1",""
"null","","html-keyboard-response","586","2957901","0.0-8.0-2.1","","<div style=""font-size:60px;"">+</div>","null","","","","","","",""
"449","","image-keyboard-response","587","2958352","0.0-8.0-0.2","","img/purple.png","32","trial","null","false","0,1","4:nogo_d","",""
"null","","html-keyboard-response","588","2959363","0.0-8.0-1.2","","<img src=""img/purple-n.png"" border=""10"">","null","trial","null","","0,1","4:nogo_d","0",""
"null","","html-keyboard-response","589","2960378","0.0-8.0-2.2","","<div style=""font-size:60px;"">+</div>","null","","","","","","",""
"null","","image-keyboard-response","590","2961885","0.0-8.0-0.3","","img/pink.png","null","trial","null","true","0.2,0.8","2:nogo_b","",""
"null","","html-keyboard-response","591","2962889","0.0-8.0-1.3","","<img src=""img/pink-r.png"">","null","trial","null","","0.2,0.8","2:nogo_b","1",""
"null","","html-keyboard-response","592","2963891","0.0-8.0-2.3","","<div style=""font-size:60px;"">+</div>","null","","","","","","",""
"767","","image-keyboard-response","593","2964659","0.0-8.0-0.4","","img/green.png","32","trial","32","true","1,0","3:go_c","",""
"null","","html-keyboard-response","594","2965665","0.0-8.0-1.4","","<img src=""img/green-r.png"" border=""10"">","null","trial","32","","1,0","3:go_c","1",""
"null","","html-keyboard-response","595","2966677","0.0-8.0-2.4","","<div style=""font-size:60px;"">+</div>","null","","","","","","",""
"null","","image-keyboard-response","596","2968180","0.0-8.0-0.5","","img/pink.png","null","trial","null","true","0.2,0.8","2:nogo_b","",""
"null","","html-keyboard-response","597","2969184","0.0-8.0-1.5","","<img src=""img/pink-n.png"">","null","trial","null","","0.2,0.8","2:nogo_b","0",""
"null","","html-keyboard-response","598","2970193","0.0-8.0-2.5","","<div style=""font-size:60px;"">+</div>","null","","","","","","",""
"null","","image-keyboard-response","599","2971697","0.0-8.0-0.6","","img/purple.png","null","trial","null","true","0,1","4:nogo_d","",""
"null","","html-keyboard-response","600","2972706","0.0-8.0-1.6","","<img src=""img/purple-r.png"">","null","trial","null","","0,1","4:nogo_d","1",""
"null","","html-keyboard-response","601","2973714","0.0-8.0-2.6","","<div style=""font-size:60px;"">+</div>","null","","","","","","",""
"517","","image-keyboard-response","602","2974231","0.0-8.0-0.7","","img/grey.png","32","trial","32","true","0.8,0.2","1:go_a","",""
"null","","html-keyboard-response","603","2975240","0.0-8.0-1.7","","<img src=""img/grey-r.png"" border=""10"">","null","trial","32","","0.8,0.2","1:go_a","1",""
"null","","html-keyboard-response","604","2976244","0.0-8.0-2.7","","<div style=""font-size:60px;"">+</div>","null","","","","","","",""
"525","","image-keyboard-response","605","2976770","0.0-8.0-0.8","","img/grey.png","32","trial","32","true","0.8,0.2","1:go_a","",""
"null","","html-keyboard-response","606","2977784","0.0-8.0-1.8","","<img src=""img/grey-n.png"" border=""10"">","null","trial","32","","0.8,0.2","1:go_a","0",""
"null","","html-keyboard-response","607","2978788","0.0-8.0-2.8","","<div style=""font-size:60px;"">+</div>","null","","","","","","",""
"576","","image-keyboard-response","608","2979366","0.0-8.0-0.9","","img/purple.png","32","trial","null","false","0,1","4:nogo_d","",""
"null","","html-keyboard-response","609","2980368","0.0-8.0-1.9","","<img src=""img/purple-n.png"" border=""10"">","null","trial","null","","0,1","4:nogo_d","0",""
"null","","html-keyboard-response","610","2981377","0.0-8.0-2.9","","<div style=""font-size:60px;"">+</div>","null","","","","","","",""
"460","","image-keyboard-response","611","2981838","0.0-8.0-0.10","","img/green.png","32","trial","32","true","1,0","3:go_c","",""
"null","","html-keyboard-response","612","2982850","0.0-8.0-1.10","","<img src=""img/green-r.png"" border=""10"">","null","trial","32","","1,0","3:go_c","1",""
"null","","html-keyboard-response","613","2983858","0.0-8.0-2.10","","<div style=""font-size:60px;"">+</div>","null","","","","","","",""
"null","","image-keyboard-response","614","2985372","0.0-8.0-0.11","","img/pink.png","null","trial","null","true","0.2,0.8","2:nogo_b","",""
"null","","html-keyboard-response","615","2986385","0.0-8.0-1.11","","<img src=""img/pink-n.png"">","null","trial","null","","0.2,0.8","2:nogo_b","0",""
"null","","html-keyboard-response","616","2987398","0.0-8.0-2.11","","<div style=""font-size:60px;"">+</div>","null","","","","","","",""
"null","","image-keyboard-response","617","2988907","0.0-8.0-0.12","","img/purple.png","null","trial","null","true","0,1","4:nogo_d","",""
"null","","html-keyboard-response","618","2989918","0.0-8.0-1.12","","<img src=""img/purple-r.png"">","null","trial","null","","0,1","4:nogo_d","1",""
"null","","html-keyboard-response","619","2990921","0.0-8.0-2.12","","<div style=""font-size:60px;"">+</div>","null","","","","","","",""
"588","","image-keyboard-response","620","2991511","0.0-8.0-0.13","","img/green.png","32","trial","32","true","1,0","3:go_c","",""
"null","","html-keyboard-response","621","2992521","0.0-8.0-1.13","","<img src=""img/green-r.png"" border=""10"">","null","trial","32","","1,0","3:go_c","1",""
"null","","html-keyboard-response","622","2993536","0.0-8.0-2.13","","<div style=""font-size:60px;"">+</div>","null","","","","","","",""
"525","","image-keyboard-response","623","2994062","0.0-8.0-0.14","","img/grey.png","32","trial","32","true","0.8,0.2","1:go_a","",""
"null","","html-keyboard-response","624","2995074","0.0-8.0-1.14","","<img src=""img/grey-r.png"" border=""10"">","null","trial","32","","0.8,0.2","1:go_a","1",""
"null","","html-keyboard-response","625","2996083","0.0-8.0-2.14","","<div style=""font-size:60px;"">+</div>","null","","","","","","",""
"null","","image-keyboard-response","626","2997597","0.0-8.0-0.15","","img/pink.png","null","trial","null","true","0.2,0.8","2:nogo_b","",""
"null","","html-keyboard-response","627","2998609","0.0-8.0-1.15","","<img src=""img/pink-r.png"">","null","trial","null","","0.2,0.8","2:nogo_b","1",""
"null","","html-keyboard-response","628","2999625","0.0-8.0-2.15","","<div style=""font-size:60px;"">+</div>","null","","","","","","",""
"null","","image-keyboard-response","629","3001136","0.0-8.0-0.16","","img/purple.png","null","trial","null","true","0,1","4:nogo_d","",""
"null","","html-keyboard-response","630","3002153","0.0-8.0-1.16","","<img src=""img/purple-r.png"">","null","trial","null","","0,1","4:nogo_d","1",""
"null","","html-keyboard-response","631","3003156","0.0-8.0-2.16","","<div style=""font-size:60px;"">+</div>","null","","","","","","",""
"null","","image-keyboard-response","632","3004663","0.0-8.0-0.17","","img/pink.png","null","trial","null","true","0.2,0.8","2:nogo_b","",""
"null","","html-keyboard-response","633","3005678","0.0-8.0-1.17","","<img src=""img/pink-r.png"">","null","trial","null","","0.2,0.8","2:nogo_b","1",""
"null","","html-keyboard-response","634","3006680","0.0-8.0-2.17","","<div style=""font-size:60px;"">+</div>","null","","","","","","",""
"498","","image-keyboard-response","635","3007180","0.0-8.0-0.18","","img/grey.png","32","trial","32","true","0.8,0.2","1:go_a","",""
"null","","html-keyboard-response","636","3008188","0.0-8.0-1.18","","<img src=""img/grey-r.png"" border=""10"">","null","trial","32","","0.8,0.2","1:go_a","1",""
"null","","html-keyboard-response","637","3009188","0.0-8.0-2.18","","<div style=""font-size:60px;"">+</div>","null","","","","","","",""
"370","","image-keyboard-response","638","3009559","0.0-8.0-0.19","","img/green.png","32","trial","32","true","1,0","3:go_c","",""
"null","","html-keyboard-response","639","3010570","0.0-8.0-1.19","","<img src=""img/green-r.png"" border=""10"">","null","trial","32","","1,0","3:go_c","1",""
"null","","html-keyboard-response","640","3011585","0.0-8.0-2.19","","<div style=""font-size:60px;"">+</div>","null","","","","","","",""
"null","","image-keyboard-response","641","3013095","0.0-8.0-0.20","","img/purple.png","null","trial","null","true","0,1","4:nogo_d","",""
"null","","html-keyboard-response","642","3014098","0.0-8.0-1.20","","<img src=""img/purple-r.png"">","null","trial","null","","0,1","4:nogo_d","1",""
"null","","html-keyboard-response","643","3015101","0.0-8.0-2.20","","<div style=""font-size:60px;"">+</div>","null","","","","","","",""
"512","","image-keyboard-response","644","3015614","0.0-8.0-0.21","","img/grey.png","32","trial","32","true","0.8,0.2","1:go_a","",""
"null","","html-keyboard-response","645","3016621","0.0-8.0-1.21","","<img src=""img/grey-n.png"" border=""10"">","null","trial","32","","0.8,0.2","1:go_a","0",""
"null","","html-keyboard-response","646","3017621","0.0-8.0-2.21","","<div style=""font-size:60px;"">+</div>","null","","","","","","",""
"842","","image-keyboard-response","647","3018463","0.0-8.0-0.22","","img/green.png","32","trial","32","true","1,0","3:go_c","",""
"null","","html-keyboard-response","648","3019467","0.0-8.0-1.22","","<img src=""img/green-r.png"" border=""10"">","null","trial","32","","1,0","3:go_c","1",""
"null","","html-keyboard-response","649","3020481","0.0-8.0-2.22","","<div style=""font-size:60px;"">+</div>","null","","","","","","",""
"null","","image-keyboard-response","650","3021995","0.0-8.0-0.23","","img/pink.png","null","trial","null","true","0.2,0.8","2:nogo_b","",""
"null","","html-keyboard-response","651","3023010","0.0-8.0-1.23","","<img src=""img/pink-r.png"">","null","trial","null","","0.2,0.8","2:nogo_b","1",""
"null","","html-keyboard-response","652","3024013","0.0-8.0-2.23","","<div style=""font-size:60px;"">+</div>","null","","","","","","",""
"486","","image-keyboard-response","653","3024500","0.0-8.0-0.24","","img/green.png","32","trial","32","true","1,0","3:go_c","",""
"null","","html-keyboard-response","654","3025503","0.0-8.0-1.24","","<img src=""img/green-r.png"" border=""10"">","null","trial","32","","1,0","3:go_c","1",""
"null","","html-keyboard-response","655","3026518","0.0-8.0-2.24","","<div style=""font-size:60px;"">+</div>","null","","","","","","",""
"null","","image-keyboard-response","656","3028031","0.0-8.0-0.25","","img/purple.png","null","trial","null","true","0,1","4:nogo_d","",""
"null","","html-keyboard-response","657","3029034","0.0-8.0-1.25","","<img src=""img/purple-r.png"">","null","trial","null","","0,1","4:nogo_d","1",""
"null","","html-keyboard-response","658","3030049","0.0-8.0-2.25","","<div style=""font-size:60px;"">+</div>","null","","","","","","",""
"null","","image-keyboard-response","659","3031557","0.0-8.0-0.26","","img/pink.png","null","trial","null","true","0.2,0.8","2:nogo_b","",""
"null","","html-keyboard-response","660","3032573","0.0-8.0-1.26","","<img src=""img/pink-r.png"">","null","trial","null","","0.2,0.8","2:nogo_b","1",""
"null","","html-keyboard-response","661","3033574","0.0-8.0-2.26","","<div style=""font-size:60px;"">+</div>","null","","","","","","",""
"397","","image-keyboard-response","662","3033971","0.0-8.0-0.27","","img/grey.png","32","trial","32","true","0.8,0.2","1:go_a","",""
"null","","html-keyboard-response","663","3034975","0.0-8.0-1.27","","<img src=""img/grey-r.png"" border=""10"">","null","trial","32","","0.8,0.2","1:go_a","1",""
"null","","html-keyboard-response","664","3035977","0.0-8.0-2.27","","<div style=""font-size:60px;"">+</div>","null","","","","","","",""
"484","","image-keyboard-response","665","3036462","0.0-8.0-0.28","","img/grey.png","32","trial","32","true","0.8,0.2","1:go_a","",""
"null","","html-keyboard-response","666","3037468","0.0-8.0-1.28","","<img src=""img/grey-r.png"" border=""10"">","null","trial","32","","0.8,0.2","1:go_a","1",""
"null","","html-keyboard-response","667","3038483","0.0-8.0-2.28","","<div style=""font-size:60px;"">+</div>","null","","","","","","",""
"null","","image-keyboard-response","668","3039994","0.0-8.0-0.29","","img/pink.png","null","trial","null","true","0.2,0.8","2:nogo_b","",""
"null","","html-keyboard-response","669","3041010","0.0-8.0-1.29","","<img src=""img/pink-r.png"">","null","trial","null","","0.2,0.8","2:nogo_b","1",""
"null","","html-keyboard-response","670","3042024","0.0-8.0-2.29","","<div style=""font-size:60px;"">+</div>","null","","","","","","",""
"null","","image-keyboard-response","671","3043526","0.0-8.0-0.30","","img/purple.png","null","trial","null","true","0,1","4:nogo_d","",""
"null","","html-keyboard-response","672","3044533","0.0-8.0-1.30","","<img src=""img/purple-r.png"">","null","trial","null","","0,1","4:nogo_d","1",""
"null","","html-keyboard-response","673","3045541","0.0-8.0-2.30","","<div style=""font-size:60px;"">+</div>","null","","","","","","",""
"465","","image-keyboard-response","674","3046006","0.0-8.0-0.31","","img/green.png","32","trial","32","true","1,0","3:go_c","",""
"null","","html-keyboard-response","675","3047012","0.0-8.0-1.31","","<img src=""img/green-r.png"" border=""10"">","null","trial","32","","1,0","3:go_c","1",""
"null","","html-keyboard-response","676","3048021","0.0-8.0-2.31","","<div style=""font-size:60px;"">+</div>","null","","","","","","",""
"null","","image-keyboard-response","677","3049526","0.0-8.0-0.32","","img/purple.png","null","trial","null","true","0,1","4:nogo_d","",""
"null","","html-keyboard-response","678","3050534","0.0-8.0-1.32","","<img src=""img/purple-r.png"">","null","trial","null","","0,1","4:nogo_d","1",""
"null","","html-keyboard-response","679","3051542","0.0-8.0-2.32","","<div style=""font-size:60px;"">+</div>","null","","","","","","",""
"450","","image-keyboard-response","680","3051993","0.0-8.0-0.33","","img/green.png","32","trial","32","true","1,0","3:go_c","",""
"null","","html-keyboard-response","681","3053009","0.0-8.0-1.33","","<img src=""img/green-r.png"" border=""10"">","null","trial","32","","1,0","3:go_c","1",""
"null","","html-keyboard-response","682","3054023","0.0-8.0-2.33","","<div style=""font-size:60px;"">+</div>","null","","","","","","",""
"572","","image-keyboard-response","683","3054596","0.0-8.0-0.34","","img/pink.png","32","trial","null","false","0.2,0.8","2:nogo_b","",""
"null","","html-keyboard-response","684","3055606","0.0-8.0-1.34","","<img src=""img/pink-r.png"" border=""10"">","null","trial","null","","0.2,0.8","2:nogo_b","1",""
"null","","html-keyboard-response","685","3056613","0.0-8.0-2.34","","<div style=""font-size:60px;"">+</div>","null","","","","","","",""
"503","","image-keyboard-response","686","3057115","0.0-8.0-0.35","","img/grey.png","32","trial","32","true","0.8,0.2","1:go_a","",""
"null","","html-keyboard-response","687","3058131","0.0-8.0-1.35","","<img src=""img/grey-n.png"" border=""10"">","null","trial","32","","0.8,0.2","1:go_a","0",""
"null","","html-keyboard-response","688","3059140","0.0-8.0-2.35","","<div style=""font-size:60px;"">+</div>","null","","","","","","",""
"607","","image-keyboard-response","689","3059748","0.0-8.0-0.36","","img/green.png","32","trial","32","true","1,0","3:go_c","",""
