"rt","url","trial_type","trial_index","time_elapsed","internal_node_id","view_history","stimulus","key_press","test_part","correct_response","correct","use_rew","which_stim","reward","responses"
"12997.640000015963","consent.html","external-html","0","13107","0.0-0.0","","","","","","","","","",""
"117484.39499997767","","instructions","1","130593","0.0-1.0","[{""page_index"":0,""viewing_time"":9992.05499998061},{""page_index"":1,""viewing_time"":43485.48000000301},{""page_index"":2,""viewing_time"":8512.350000004517},{""page_index"":3,""viewing_time"":24045.550000009825},{""page_index"":4,""viewing_time"":12915.804999996908},{""page_index"":5,""viewing_time"":8504.354999982752},{""page_index"":6,""viewing_time"":10027.565000025788}]","","","","","","","","",""
"null","","image-keyboard-response","2","132095","0.0-2.0-0.0","","img/test2.PNG","null","practice","null","true","","","",""
"null","","html-keyboard-response","3","133097","0.0-2.0-1.0","","<img src=""img/test2-reward.PNG"">","null","","","","","","",""
"null","","html-keyboard-response","4","134099","0.0-2.0-2.0","","<div style=""font-size:60px;"">+</div>","null","","","","","","",""
"null","","image-keyboard-response","5","135601","0.0-2.0-0.1","","img/test3.PNG","null","practice","null","true","","","",""
"null","","html-keyboard-response","6","136603","0.0-2.0-1.1","","<img src=""img/test3-reward.PNG"">","null","","","","","","",""
"null","","html-keyboard-response","7","137605","0.0-2.0-2.1","","<div style=""font-size:60px;"">+</div>","null","","","","","","",""
"287.4450000235811","","image-keyboard-response","8","137894","0.0-2.0-0.2","","img/test1.PNG","32","practice","32","true","","","",""
"null","","html-keyboard-response","9","138897","0.0-2.0-1.2","","<img src=""img/test1-reward.PNG"" border=""10px; grey"">","null","","","","","","",""
"null","","html-keyboard-response","10","139899","0.0-2.0-2.2","","<div style=""font-size:60px;"">+</div>","null","","","","","","",""
"1022.0450000197161","","image-keyboard-response","11","140923","0.0-2.0-0.3","","img/test1.PNG","32","practice","32","true","","","",""
"null","","html-keyboard-response","12","141926","0.0-2.0-1.3","","<img src=""img/test1-reward.PNG"" border=""10px; grey"">","null","","","","","","",""
"null","","html-keyboard-response","13","142929","0.0-2.0-2.3","","<div style=""font-size:60px;"">+</div>","null","","","","","","",""
"null","","image-keyboard-response","14","144433","0.0-2.0-0.4","","img/test3.PNG","null","practice","null","true","","","",""
"null","","html-keyboard-response","15","145437","0.0-2.0-1.4","","<img src=""img/test3-reward.PNG"">","null","","","","","","",""
"null","","html-keyboard-response","16","146439","0.0-2.0-2.4","","<div style=""font-size:60px;"">+</div>","null","","","","","","",""
"null","","image-keyboard-response","17","147941","0.0-2.0-0.5","","img/test2.PNG","null","practice","null","true","","","",""
"null","","html-keyboard-response","18","148942","0.0-2.0-1.5","","<img src=""img/test2-reward.PNG"">","null","","","","","","",""
"null","","html-keyboard-response","19","149943","0.0-2.0-2.5","","<div style=""font-size:60px;"">+</div>","null","","","","","","",""
"274.3750000081491","","image-keyboard-response","20","150219","0.0-2.0-0.6","","img/test1.PNG","32","practice","32","true","","","",""
"null","","html-keyboard-response","21","151222","0.0-2.0-1.6","","<img src=""img/test1-reward.PNG"" border=""10px; grey"">","null","","","","","","",""
"null","","html-keyboard-response","22","152224","0.0-2.0-2.6","","<div style=""font-size:60px;"">+</div>","null","","","","","","",""
"null","","image-keyboard-response","23","153726","0.0-2.0-0.7","","img/test3.PNG","null","practice","null","true","","","",""
"null","","html-keyboard-response","24","154727","0.0-2.0-1.7","","<img src=""img/test3-reward.PNG"">","null","","","","","","",""
"null","","html-keyboard-response","25","155729","0.0-2.0-2.7","","<div style=""font-size:60px;"">+</div>","null","","","","","","",""
"null","","image-keyboard-response","26","157233","0.0-2.0-0.8","","img/test2.PNG","null","practice","null","true","","","",""
"null","","html-keyboard-response","27","158235","0.0-2.0-1.8","","<img src=""img/test2-reward.PNG"">","null","","","","","","",""
"null","","html-keyboard-response","28","159237","0.0-2.0-2.8","","<div style=""font-size:60px;"">+</div>","null","","","","","","",""
"null","","image-keyboard-response","29","160740","0.0-2.0-0.9","","img/test2.PNG","null","practice","null","true","","","",""
"null","","html-keyboard-response","30","161743","0.0-2.0-1.9","","<img src=""img/test2-reward.PNG"">","null","","","","","","",""
"null","","html-keyboard-response","31","162744","0.0-2.0-2.9","","<div style=""font-size:60px;"">+</div>","null","","","","","","",""
"null","","image-keyboard-response","32","164246","0.0-2.0-0.10","","img/test3.PNG","null","practice","null","true","","","",""
"null","","html-keyboard-response","33","165247","0.0-2.0-1.10","","<img src=""img/test3-reward.PNG"">","null","","","","","","",""
"null","","html-keyboard-response","34","166248","0.0-2.0-2.10","","<div style=""font-size:60px;"">+</div>","null","","","","","","",""
"306.1849999940023","","image-keyboard-response","35","166555","0.0-2.0-0.11","","img/test1.PNG","32","practice","32","true","","","",""
"null","","html-keyboard-response","36","167558","0.0-2.0-1.11","","<img src=""img/test1-reward.PNG"" border=""10px; grey"">","null","","","","","","",""
"null","","html-keyboard-response","37","168561","0.0-2.0-2.11","","<div style=""font-size:60px;"">+</div>","null","","","","","","",""
"8182.085000007646","","instructions","38","176743","0.0-3.0","[{""page_index"":0,""viewing_time"":8181.770000024699}]","","","","","","","","",""
"1038.8549999915995","","image-keyboard-response","39","177784","0.0-4.0-0.0","","img/red.png","32","trial","32","true","0.8,0.2","1:go_a","",""
"null","","html-keyboard-response","40","178787","0.0-4.0-1.0","","<img src=""img/red-r.png"" border=""10"">","null","trial","32","","0.8,0.2","1:go_a","1",""
"null","","html-keyboard-response","41","179789","0.0-4.0-2.0","","<div style=""font-size:60px;"">+</div>","null","","","","","","",""
"527.5949999922886","","image-keyboard-response","42","180318","0.0-4.0-0.1","","img/green.png","32","trial","null","false","0.2,0.8","2:nogo_b","",""
"null","","html-keyboard-response","43","181319","0.0-4.0-1.1","","<img src=""img/green-r.png"" border=""10"">","null","trial","null","","0.2,0.8","2:nogo_b","1",""
"null","","html-keyboard-response","44","182321","0.0-4.0-2.1","","<div style=""font-size:60px;"">+</div>","null","","","","","","",""
"508.76999998581596","","image-keyboard-response","45","182831","0.0-4.0-0.2","","img/red.png","32","trial","32","true","0.8,0.2","1:go_a","",""
"null","","html-keyboard-response","46","183834","0.0-4.0-1.2","","<img src=""img/red-r.png"" border=""10"">","null","trial","32","","0.8,0.2","1:go_a","1",""
"null","","html-keyboard-response","47","184835","0.0-4.0-2.2","","<div style=""font-size:60px;"">+</div>","null","","","","","","",""
"521.2199999950826","","image-keyboard-response","48","185358","0.0-4.0-0.3","","img/green.png","32","trial","null","false","0.2,0.8","2:nogo_b","",""
"null","","html-keyboard-response","49","186361","0.0-4.0-1.3","","<img src=""img/green-r.png"" border=""10"">","null","trial","null","","0.2,0.8","2:nogo_b","1",""
"null","","html-keyboard-response","50","187363","0.0-4.0-2.3","","<div style=""font-size:60px;"">+</div>","null","","","","","","",""
"348.4500000195112","","image-keyboard-response","51","187713","0.0-4.0-0.4","","img/red.png","32","trial","32","true","0.8,0.2","1:go_a","",""
"null","","html-keyboard-response","52","188716","0.0-4.0-1.4","","<img src=""img/red-r.png"" border=""10"">","null","trial","32","","0.8,0.2","1:go_a","1",""
"null","","html-keyboard-response","53","189718","0.0-4.0-2.4","","<div style=""font-size:60px;"">+</div>","null","","","","","","",""
"330.6100000045262","","image-keyboard-response","54","190050","0.0-4.0-0.5","","img/green.png","32","trial","null","false","0.2,0.8","2:nogo_b","",""
"null","","html-keyboard-response","55","191059","0.0-4.0-1.5","","<img src=""img/green-r.png"" border=""10"">","null","trial","null","","0.2,0.8","2:nogo_b","1",""
"null","","html-keyboard-response","56","192062","0.0-4.0-2.5","","<div style=""font-size:60px;"">+</div>","null","","","","","","",""
"366.25500000081956","","image-keyboard-response","57","192429","0.0-4.0-0.6","","img/green.png","32","trial","null","false","0.2,0.8","2:nogo_b","",""
"null","","html-keyboard-response","58","193431","0.0-4.0-1.6","","<img src=""img/green-n.png"" border=""10"">","null","trial","null","","0.2,0.8","2:nogo_b","0",""
"null","","html-keyboard-response","59","194433","0.0-4.0-2.6","","<div style=""font-size:60px;"">+</div>","null","","","","","","",""
"303.9100000169128","","image-keyboard-response","60","194739","0.0-4.0-0.7","","img/red.png","32","trial","32","true","0.8,0.2","1:go_a","",""
"null","","html-keyboard-response","61","195743","0.0-4.0-1.7","","<img src=""img/red-r.png"" border=""10"">","null","trial","32","","0.8,0.2","1:go_a","1",""
"null","","html-keyboard-response","62","196745","0.0-4.0-2.7","","<div style=""font-size:60px;"">+</div>","null","","","","","","",""
"386.35499999509193","","image-keyboard-response","63","197133","0.0-4.0-0.8","","img/red.png","32","trial","32","true","0.8,0.2","1:go_a","",""
"null","","html-keyboard-response","64","198137","0.0-4.0-1.8","","<img src=""img/red-r.png"" border=""10"">","null","trial","32","","0.8,0.2","1:go_a","1",""
"null","","html-keyboard-response","65","199138","0.0-4.0-2.8","","<div style=""font-size:60px;"">+</div>","null","","","","","","",""
"340.6249999825377","","image-keyboard-response","66","199480","0.0-4.0-0.9","","img/green.png","32","trial","null","false","0.2,0.8","2:nogo_b","",""
"null","","html-keyboard-response","67","200482","0.0-4.0-1.9","","<img src=""img/green-n.png"" border=""10"">","null","trial","null","","0.2,0.8","2:nogo_b","0",""
"null","","html-keyboard-response","68","201483","0.0-4.0-2.9","","<div style=""font-size:60px;"">+</div>","null","","","","","","",""
"null","","image-keyboard-response","69","202985","0.0-4.0-0.10","","img/green.png","null","trial","null","true","0.2,0.8","2:nogo_b","",""
"null","","html-keyboard-response","70","203990","0.0-4.0-1.10","","<img src=""img/green-n.png"">","null","trial","null","","0.2,0.8","2:nogo_b","0",""
"null","","html-keyboard-response","71","204991","0.0-4.0-2.10","","<div style=""font-size:60px;"">+</div>","null","","","","","","",""
"283.61000001314096","","image-keyboard-response","72","205276","0.0-4.0-0.11","","img/red.png","32","trial","32","true","0.8,0.2","1:go_a","",""
"null","","html-keyboard-response","73","206279","0.0-4.0-1.11","","<img src=""img/red-r.png"" border=""10"">","null","trial","32","","0.8,0.2","1:go_a","1",""
"null","","html-keyboard-response","74","207282","0.0-4.0-2.11","","<div style=""font-size:60px;"">+</div>","null","","","","","","",""
"null","","image-keyboard-response","75","208784","0.0-4.0-0.12","","img/green.png","null","trial","null","true","0.2,0.8","2:nogo_b","",""
"null","","html-keyboard-response","76","209787","0.0-4.0-1.12","","<img src=""img/green-r.png"">","null","trial","null","","0.2,0.8","2:nogo_b","1",""
"null","","html-keyboard-response","77","210788","0.0-4.0-2.12","","<div style=""font-size:60px;"">+</div>","null","","","","","","",""
"655.9650000126567","","image-keyboard-response","78","211445","0.0-4.0-0.13","","img/red.png","32","trial","32","true","0.8,0.2","1:go_a","",""
"null","","html-keyboard-response","79","212448","0.0-4.0-1.13","","<img src=""img/red-r.png"" border=""10"">","null","trial","32","","0.8,0.2","1:go_a","1",""
"null","","html-keyboard-response","80","213450","0.0-4.0-2.13","","<div style=""font-size:60px;"">+</div>","null","","","","","","",""
"null","","image-keyboard-response","81","214952","0.0-4.0-0.14","","img/green.png","null","trial","null","true","0.2,0.8","2:nogo_b","",""
"null","","html-keyboard-response","82","215955","0.0-4.0-1.14","","<img src=""img/green-r.png"">","null","trial","null","","0.2,0.8","2:nogo_b","1",""
"null","","html-keyboard-response","83","216958","0.0-4.0-2.14","","<div style=""font-size:60px;"">+</div>","null","","","","","","",""
"384.22999999602325","","image-keyboard-response","84","217343","0.0-4.0-0.15","","img/red.png","32","trial","32","true","0.8,0.2","1:go_a","",""
"null","","html-keyboard-response","85","218345","0.0-4.0-1.15","","<img src=""img/red-r.png"" border=""10"">","null","trial","32","","0.8,0.2","1:go_a","1",""
"null","","html-keyboard-response","86","219357","0.0-4.0-2.15","","<div style=""font-size:60px;"">+</div>","null","","","","","","",""
"670.9299999929499","","image-keyboard-response","87","220029","0.0-4.0-0.16","","img/red.png","32","trial","32","true","0.8,0.2","1:go_a","",""
"null","","html-keyboard-response","88","221032","0.0-4.0-1.16","","<img src=""img/red-r.png"" border=""10"">","null","trial","32","","0.8,0.2","1:go_a","1",""
"null","","html-keyboard-response","89","222033","0.0-4.0-2.16","","<div style=""font-size:60px;"">+</div>","null","","","","","","",""
"null","","image-keyboard-response","90","223535","0.0-4.0-0.17","","img/green.png","null","trial","null","true","0.2,0.8","2:nogo_b","",""
"null","","html-keyboard-response","91","224540","0.0-4.0-1.17","","<img src=""img/green-n.png"">","null","trial","null","","0.2,0.8","2:nogo_b","0",""
"null","","html-keyboard-response","92","225542","0.0-4.0-2.17","","<div style=""font-size:60px;"">+</div>","null","","","","","","",""
"433.97499999264255","","image-keyboard-response","93","225977","0.0-4.0-0.18","","img/red.png","32","trial","32","true","0.8,0.2","1:go_a","",""
"null","","html-keyboard-response","94","226979","0.0-4.0-1.18","","<img src=""img/red-r.png"" border=""10"">","null","trial","32","","0.8,0.2","1:go_a","1",""
"null","","html-keyboard-response","95","227982","0.0-4.0-2.18","","<div style=""font-size:60px;"">+</div>","null","","","","","","",""
"null","","image-keyboard-response","96","229484","0.0-4.0-0.19","","img/green.png","null","trial","null","true","0.2,0.8","2:nogo_b","",""
"null","","html-keyboard-response","97","230487","0.0-4.0-1.19","","<img src=""img/green-r.png"">","null","trial","null","","0.2,0.8","2:nogo_b","1",""
"null","","html-keyboard-response","98","231489","0.0-4.0-2.19","","<div style=""font-size:60px;"">+</div>","null","","","","","","",""
"576.0500000033062","","image-keyboard-response","99","232067","0.0-4.0-0.20","","img/red.png","32","trial","32","true","0.8,0.2","1:go_a","",""
"null","","html-keyboard-response","100","233071","0.0-4.0-1.20","","<img src=""img/red-n.png"" border=""10"">","null","trial","32","","0.8,0.2","1:go_a","0",""
"null","","html-keyboard-response","101","234073","0.0-4.0-2.20","","<div style=""font-size:60px;"">+</div>","null","","","","","","",""
"null","","image-keyboard-response","102","235575","0.0-4.0-0.21","","img/green.png","null","trial","null","true","0.2,0.8","2:nogo_b","",""
"null","","html-keyboard-response","103","236577","0.0-4.0-1.21","","<img src=""img/green-r.png"">","null","trial","null","","0.2,0.8","2:nogo_b","1",""
"null","","html-keyboard-response","104","237580","0.0-4.0-2.21","","<div style=""font-size:60px;"">+</div>","null","","","","","","",""
"1023.8700000045355","","image-keyboard-response","105","238605","0.0-4.0-0.22","","img/red.png","32","trial","32","true","0.8,0.2","1:go_a","",""
"null","","html-keyboard-response","106","239606","0.0-4.0-1.22","","<img src=""img/red-r.png"" border=""10"">","null","trial","32","","0.8,0.2","1:go_a","1",""
"null","","html-keyboard-response","107","240607","0.0-4.0-2.22","","<div style=""font-size:60px;"">+</div>","null","","","","","","",""
"null","","image-keyboard-response","108","242109","0.0-4.0-0.23","","img/green.png","null","trial","null","true","0.2,0.8","2:nogo_b","",""
"null","","html-keyboard-response","109","243111","0.0-4.0-1.23","","<img src=""img/green-n.png"">","null","trial","null","","0.2,0.8","2:nogo_b","0",""
"null","","html-keyboard-response","110","244112","0.0-4.0-2.23","","<div style=""font-size:60px;"">+</div>","null","","","","","","",""
"622.7450000005774","","image-keyboard-response","111","244736","0.0-4.0-0.24","","img/green.png","32","trial","null","false","0.2,0.8","2:nogo_b","",""
"null","","html-keyboard-response","112","245740","0.0-4.0-1.24","","<img src=""img/green-r.png"" border=""10"">","null","trial","null","","0.2,0.8","2:nogo_b","1",""
"null","","html-keyboard-response","113","246742","0.0-4.0-2.24","","<div style=""font-size:60px;"">+</div>","null","","","","","","",""
"464.8400000005495","","image-keyboard-response","114","247208","0.0-4.0-0.25","","img/red.png","32","trial","32","true","0.8,0.2","1:go_a","",""
"null","","html-keyboard-response","115","248211","0.0-4.0-1.25","","<img src=""img/red-n.png"" border=""10"">","null","trial","32","","0.8,0.2","1:go_a","0",""
"null","","html-keyboard-response","116","249213","0.0-4.0-2.25","","<div style=""font-size:60px;"">+</div>","null","","","","","","",""
"1118.2250000128988","","image-keyboard-response","117","250332","0.0-4.0-0.26","","img/red.png","32","trial","32","true","0.8,0.2","1:go_a","",""
"null","","html-keyboard-response","118","251334","0.0-4.0-1.26","","<img src=""img/red-r.png"" border=""10"">","null","trial","32","","0.8,0.2","1:go_a","1",""
"null","","html-keyboard-response","119","252337","0.0-4.0-2.26","","<div style=""font-size:60px;"">+</div>","null","","","","","","",""
"null","","image-keyboard-response","120","253840","0.0-4.0-0.27","","img/green.png","null","trial","null","true","0.2,0.8","2:nogo_b","",""
"null","","html-keyboard-response","121","254844","0.0-4.0-1.27","","<img src=""img/green-r.png"">","null","trial","null","","0.2,0.8","2:nogo_b","1",""
"null","","html-keyboard-response","122","255845","0.0-4.0-2.27","","<div style=""font-size:60px;"">+</div>","null","","","","","","",""
"527.6900000171736","","image-keyboard-response","123","256375","0.0-4.0-0.28","","img/red.png","32","trial","32","true","0.8,0.2","1:go_a","",""
"null","","html-keyboard-response","124","257378","0.0-4.0-1.28","","<img src=""img/red-n.png"" border=""10"">","null","trial","32","","0.8,0.2","1:go_a","0",""
"null","","html-keyboard-response","125","258380","0.0-4.0-2.28","","<div style=""font-size:60px;"">+</div>","null","","","","","","",""
"665.4899999848567","","image-keyboard-response","126","259047","0.0-4.0-0.29","","img/green.png","32","trial","null","false","0.2,0.8","2:nogo_b","",""
"null","","html-keyboard-response","127","260049","0.0-4.0-1.29","","<img src=""img/green-n.png"" border=""10"">","null","trial","null","","0.2,0.8","2:nogo_b","0",""
"null","","html-keyboard-response","128","261050","0.0-4.0-2.29","","<div style=""font-size:60px;"">+</div>","null","","","","","","",""
"685.3550000232644","","image-keyboard-response","129","261737","0.0-4.0-0.30","","img/green.png","32","trial","null","false","0.2,0.8","2:nogo_b","",""
"null","","html-keyboard-response","130","262740","0.0-4.0-1.30","","<img src=""img/green-r.png"" border=""10"">","null","trial","null","","0.2,0.8","2:nogo_b","1",""
"null","","html-keyboard-response","131","263742","0.0-4.0-2.30","","<div style=""font-size:60px;"">+</div>","null","","","","","","",""
"null","","image-keyboard-response","132","265244","0.0-4.0-0.31","","img/red.png","null","trial","32","false","0.8,0.2","1:go_a","",""
"null","","html-keyboard-response","133","266256","0.0-4.0-1.31","","<img src=""img/red-r.png"">","null","trial","32","","0.8,0.2","1:go_a","1",""
"null","","html-keyboard-response","134","267259","0.0-4.0-2.31","","<div style=""font-size:60px;"">+</div>","null","","","","","","",""
"573.4349999984261","","image-keyboard-response","135","267834","0.0-4.0-0.32","","img/red.png","32","trial","32","true","0.8,0.2","1:go_a","",""
"null","","html-keyboard-response","136","268837","0.0-4.0-1.32","","<img src=""img/red-r.png"" border=""10"">","null","trial","32","","0.8,0.2","1:go_a","1",""
"null","","html-keyboard-response","137","269838","0.0-4.0-2.32","","<div style=""font-size:60px;"">+</div>","null","","","","","","",""
"null","","image-keyboard-response","138","271339","0.0-4.0-0.33","","img/green.png","null","trial","null","true","0.2,0.8","2:nogo_b","",""
"null","","html-keyboard-response","139","272344","0.0-4.0-1.33","","<img src=""img/green-r.png"">","null","trial","null","","0.2,0.8","2:nogo_b","1",""
"null","","html-keyboard-response","140","273346","0.0-4.0-2.33","","<div style=""font-size:60px;"">+</div>","null","","","","","","",""
"null","","image-keyboard-response","141","274850","0.0-4.0-0.34","","img/green.png","null","trial","null","true","0.2,0.8","2:nogo_b","",""
"null","","html-keyboard-response","142","275852","0.0-4.0-1.34","","<img src=""img/green-r.png"">","null","trial","null","","0.2,0.8","2:nogo_b","1",""
"null","","html-keyboard-response","143","276854","0.0-4.0-2.34","","<div style=""font-size:60px;"">+</div>","null","","","","","","",""
"732.3700000124518","","image-keyboard-response","144","277588","0.0-4.0-0.35","","img/red.png","32","trial","32","true","0.8,0.2","1:go_a","",""
"null","","html-keyboard-response","145","278591","0.0-4.0-1.35","","<img src=""img/red-r.png"" border=""10"">","null","trial","32","","0.8,0.2","1:go_a","1",""
"null","","html-keyboard-response","146","279593","0.0-4.0-2.35","","<div style=""font-size:60px;"">+</div>","null","","","","","","",""
"358.0249999940861","","image-keyboard-response","147","279952","0.0-4.0-0.36","","img/red.png","32","trial","32","true","0.8,0.2","1:go_a","",""
"null","","html-keyboard-response","148","280953","0.0-4.0-1.36","","<img src=""img/red-n.png"" border=""10"">","null","trial","32","","0.8,0.2","1:go_a","0",""
"null","","html-keyboard-response","149","281954","0.0-4.0-2.36","","<div style=""font-size:60px;"">+</div>","null","","","","","","",""
"654.8899999761488","","image-keyboard-response","150","282610","0.0-4.0-0.37","","img/green.png","32","trial","null","false","0.2,0.8","2:nogo_b","",""
"null","","html-keyboard-response","151","283613","0.0-4.0-1.37","","<img src=""img/green-n.png"" border=""10"">","null","trial","null","","0.2,0.8","2:nogo_b","0",""
"null","","html-keyboard-response","152","284614","0.0-4.0-2.37","","<div style=""font-size:60px;"">+</div>","null","","","","","","",""
"null","","image-keyboard-response","153","286116","0.0-4.0-0.38","","img/red.png","null","trial","32","false","0.8,0.2","1:go_a","",""
"null","","html-keyboard-response","154","287118","0.0-4.0-1.38","","<img src=""img/red-n.png"">","null","trial","32","","0.8,0.2","1:go_a","0",""
"null","","html-keyboard-response","155","288121","0.0-4.0-2.38","","<div style=""font-size:60px;"">+</div>","null","","","","","","",""
"437.06500000553206","","image-keyboard-response","156","288559","0.0-4.0-0.39","","img/green.png","32","trial","null","false","0.2,0.8","2:nogo_b","",""
"null","","html-keyboard-response","157","289561","0.0-4.0-1.39","","<img src=""img/green-n.png"" border=""10"">","null","trial","null","","0.2,0.8","2:nogo_b","0",""
"null","","html-keyboard-response","158","290563","0.0-4.0-2.39","","<div style=""font-size:60px;"">+</div>","null","","","","","","",""
"920.174999977462","","image-keyboard-response","159","291485","0.0-4.0-0.40","","img/green.png","32","trial","null","false","0.2,0.8","2:nogo_b","",""
"null","","html-keyboard-response","160","292487","0.0-4.0-1.40","","<img src=""img/green-n.png"" border=""10"">","null","trial","null","","0.2,0.8","2:nogo_b","0",""
"null","","html-keyboard-response","161","293495","0.0-4.0-2.40","","<div style=""font-size:60px;"">+</div>","null","","","","","","",""
"830.3700000105891","","image-keyboard-response","162","294326","0.0-4.0-0.41","","img/red.png","32","trial","32","true","0.8,0.2","1:go_a","",""
"null","","html-keyboard-response","163","295329","0.0-4.0-1.41","","<img src=""img/red-r.png"" border=""10"">","null","trial","32","","0.8,0.2","1:go_a","1",""
"null","","html-keyboard-response","164","296331","0.0-4.0-2.41","","<div style=""font-size:60px;"">+</div>","null","","","","","","",""
"580.3599999926519","","image-keyboard-response","165","296912","0.0-4.0-0.42","","img/green.png","32","trial","null","false","0.2,0.8","2:nogo_b","",""
"null","","html-keyboard-response","166","297914","0.0-4.0-1.42","","<img src=""img/green-n.png"" border=""10"">","null","trial","null","","0.2,0.8","2:nogo_b","0",""
"null","","html-keyboard-response","167","298916","0.0-4.0-2.42","","<div style=""font-size:60px;"">+</div>","null","","","","","","",""
"986.4850000012666","","image-keyboard-response","168","299904","0.0-4.0-0.43","","img/red.png","32","trial","32","true","0.8,0.2","1:go_a","",""
"null","","html-keyboard-response","169","300907","0.0-4.0-1.43","","<img src=""img/red-r.png"" border=""10"">","null","trial","32","","0.8,0.2","1:go_a","1",""
"null","","html-keyboard-response","170","301909","0.0-4.0-2.43","","<div style=""font-size:60px;"">+</div>","null","","","","","","",""
"null","","image-keyboard-response","171","303411","0.0-4.0-0.44","","img/green.png","null","trial","null","true","0.2,0.8","2:nogo_b","",""
"null","","html-keyboard-response","172","304414","0.0-4.0-1.44","","<img src=""img/green-r.png"">","null","trial","null","","0.2,0.8","2:nogo_b","1",""
"null","","html-keyboard-response","173","305416","0.0-4.0-2.44","","<div style=""font-size:60px;"">+</div>","null","","","","","","",""
"303.9600000192877","","image-keyboard-response","174","305722","0.0-4.0-0.45","","img/red.png","32","trial","32","true","0.8,0.2","1:go_a","",""
"null","","html-keyboard-response","175","306724","0.0-4.0-1.45","","<img src=""img/red-r.png"" border=""10"">","null","trial","32","","0.8,0.2","1:go_a","1",""
"null","","html-keyboard-response","176","307727","0.0-4.0-2.45","","<div style=""font-size:60px;"">+</div>","null","","","","","","",""
"null","","image-keyboard-response","177","309229","0.0-4.0-0.46","","img/green.png","null","trial","null","true","0.2,0.8","2:nogo_b","",""
"null","","html-keyboard-response","178","310235","0.0-4.0-1.46","","<img src=""img/green-r.png"">","null","trial","null","","0.2,0.8","2:nogo_b","1",""
"null","","html-keyboard-response","179","311237","0.0-4.0-2.46","","<div style=""font-size:60px;"">+</div>","null","","","","","","",""
"286.81499999947846","","image-keyboard-response","180","311524","0.0-4.0-0.47","","img/red.png","32","trial","32","true","0.8,0.2","1:go_a","",""
"null","","html-keyboard-response","181","312526","0.0-4.0-1.47","","<img src=""img/red-r.png"" border=""10"">","null","trial","32","","0.8,0.2","1:go_a","1",""
"null","","html-keyboard-response","182","313528","0.0-4.0-2.47","","<div style=""font-size:60px;"">+</div>","null","","","","","","",""
"null","","image-keyboard-response","183","315030","0.0-4.0-0.48","","img/red.png","null","trial","32","false","0.8,0.2","1:go_a","",""
"null","","html-keyboard-response","184","316032","0.0-4.0-1.48","","<img src=""img/red-n.png"">","null","trial","32","","0.8,0.2","1:go_a","0",""
"null","","html-keyboard-response","185","317034","0.0-4.0-2.48","","<div style=""font-size:60px;"">+</div>","null","","","","","","",""
"317.9050000035204","","image-keyboard-response","186","317353","0.0-4.0-0.49","","img/green.png","32","trial","null","false","0.2,0.8","2:nogo_b","",""
"null","","html-keyboard-response","187","318355","0.0-4.0-1.49","","<img src=""img/green-r.png"" border=""10"">","null","trial","null","","0.2,0.8","2:nogo_b","1",""
"null","","html-keyboard-response","188","319356","0.0-4.0-2.49","","<div style=""font-size:60px;"">+</div>","null","","","","","","",""
"1167.860000015935","","image-keyboard-response","189","320525","0.0-4.0-0.50","","img/red.png","32","trial","32","true","0.8,0.2","1:go_a","",""
"null","","html-keyboard-response","190","321529","0.0-4.0-1.50","","<img src=""img/red-r.png"" border=""10"">","null","trial","32","","0.8,0.2","1:go_a","1",""
"null","","html-keyboard-response","191","322531","0.0-4.0-2.50","","<div style=""font-size:60px;"">+</div>","null","","","","","","",""
"null","","image-keyboard-response","192","324034","0.0-4.0-0.51","","img/green.png","null","trial","null","true","0.2,0.8","2:nogo_b","",""
"null","","html-keyboard-response","193","325036","0.0-4.0-1.51","","<img src=""img/green-n.png"">","null","trial","null","","0.2,0.8","2:nogo_b","0",""
"null","","html-keyboard-response","194","326038","0.0-4.0-2.51","","<div style=""font-size:60px;"">+</div>","null","","","","","","",""
"729.7900000121444","","image-keyboard-response","195","326769","0.0-4.0-0.52","","img/green.png","32","trial","null","false","0.2,0.8","2:nogo_b","",""
"null","","html-keyboard-response","196","327771","0.0-4.0-1.52","","<img src=""img/green-n.png"" border=""10"">","null","trial","null","","0.2,0.8","2:nogo_b","0",""
"null","","html-keyboard-response","197","328773","0.0-4.0-2.52","","<div style=""font-size:60px;"">+</div>","null","","","","","","",""
"402.025000017602","","image-keyboard-response","198","329176","0.0-4.0-0.53","","img/red.png","32","trial","32","true","0.8,0.2","1:go_a","",""
"null","","html-keyboard-response","199","330178","0.0-4.0-1.53","","<img src=""img/red-r.png"" border=""10"">","null","trial","32","","0.8,0.2","1:go_a","1",""
"null","","html-keyboard-response","200","331181","0.0-4.0-2.53","","<div style=""font-size:60px;"">+</div>","null","","","","","","",""
"null","","image-keyboard-response","201","332684","0.0-4.0-0.54","","img/red.png","null","trial","32","false","0.8,0.2","1:go_a","",""
"null","","html-keyboard-response","202","333689","0.0-4.0-1.54","","<img src=""img/red-n.png"">","null","trial","32","","0.8,0.2","1:go_a","0",""
"null","","html-keyboard-response","203","334691","0.0-4.0-2.54","","<div style=""font-size:60px;"">+</div>","null","","","","","","",""
"605.1000000152271","","image-keyboard-response","204","335298","0.0-4.0-0.55","","img/green.png","32","trial","null","false","0.2,0.8","2:nogo_b","",""
"null","","html-keyboard-response","205","336299","0.0-4.0-1.55","","<img src=""img/green-r.png"" border=""10"">","null","trial","null","","0.2,0.8","2:nogo_b","1",""
"null","","html-keyboard-response","206","337301","0.0-4.0-2.55","","<div style=""font-size:60px;"">+</div>","null","","","","","","",""
"584.9600000074133","","image-keyboard-response","207","337887","0.0-4.0-0.56","","img/red.png","32","trial","32","true","0.8,0.2","1:go_a","",""
"null","","html-keyboard-response","208","338890","0.0-4.0-1.56","","<img src=""img/red-r.png"" border=""10"">","null","trial","32","","0.8,0.2","1:go_a","1",""
"null","","html-keyboard-response","209","339915","0.0-4.0-2.56","","<div style=""font-size:60px;"">+</div>","null","","","","","","",""
"null","","image-keyboard-response","210","341417","0.0-4.0-0.57","","img/green.png","null","trial","null","true","0.2,0.8","2:nogo_b","",""
"null","","html-keyboard-response","211","342419","0.0-4.0-1.57","","<img src=""img/green-n.png"">","null","trial","null","","0.2,0.8","2:nogo_b","0",""
"null","","html-keyboard-response","212","343434","0.0-4.0-2.57","","<div style=""font-size:60px;"">+</div>","null","","","","","","",""
"614.1000000061467","","image-keyboard-response","213","344050","0.0-4.0-0.58","","img/red.png","32","trial","32","true","0.8,0.2","1:go_a","",""
"null","","html-keyboard-response","214","345056","0.0-4.0-1.58","","<img src=""img/red-r.png"" border=""10"">","null","trial","32","","0.8,0.2","1:go_a","1",""
"null","","html-keyboard-response","215","346057","0.0-4.0-2.58","","<div style=""font-size:60px;"">+</div>","null","","","","","","",""
"null","","image-keyboard-response","216","347559","0.0-4.0-0.59","","img/green.png","null","trial","null","true","0.2,0.8","2:nogo_b","",""
"null","","html-keyboard-response","217","348565","0.0-4.0-1.59","","<img src=""img/green-r.png"">","null","trial","null","","0.2,0.8","2:nogo_b","1",""
"null","","html-keyboard-response","218","349566","0.0-4.0-2.59","","<div style=""font-size:60px;"">+</div>","null","","","","","","",""
"13445.589999988442","","instructions","219","363012","0.0-5.0","[{""page_index"":0,""viewing_time"":13444.980000000214}]","","","","","","","","",""
"1112.055000005057","","image-keyboard-response","220","364126","0.0-6.0-0.0","","img/red.png","32","trial","32","true","0.8,0.2","1:go_a","",""
"null","","html-keyboard-response","221","365130","0.0-6.0-1.0","","<img src=""img/red-n.png"" border=""10"">","null","trial","32","","0.8,0.2","1:go_a","0",""
"null","","html-keyboard-response","222","366133","0.0-6.0-2.0","","<div style=""font-size:60px;"">+</div>","null","","","","","","",""
"541.09499999322","","image-keyboard-response","223","366675","0.0-6.0-0.1","","img/purple.png","32","trial","32","true","1,0","3:go_c","",""
"null","","html-keyboard-response","224","367677","0.0-6.0-1.1","","<img src=""img/purple-r.png"" border=""10"">","null","trial","32","","1,0","3:go_c","1",""
"null","","html-keyboard-response","225","368678","0.0-6.0-2.1","","<div style=""font-size:60px;"">+</div>","null","","","","","","",""
"null","","image-keyboard-response","226","370180","0.0-6.0-0.2","","img/grey.png","null","trial","null","true","0.2,0.8","2:nogo_b","",""
"null","","html-keyboard-response","227","371182","0.0-6.0-1.2","","<img src=""img/grey-r.png"">","null","trial","null","","0.2,0.8","2:nogo_b","1",""
"null","","html-keyboard-response","228","372183","0.0-6.0-2.2","","<div style=""font-size:60px;"">+</div>","null","","","","","","",""
"1026.465000002645","","image-keyboard-response","229","373211","0.0-6.0-0.3","","img/green.png","32","trial","null","false","0,1","4:nogo_d","",""
"null","","html-keyboard-response","230","374213","0.0-6.0-1.3","","<img src=""img/green-n.png"" border=""10"">","null","trial","null","","0,1","4:nogo_d","0",""
"null","","html-keyboard-response","231","375214","0.0-6.0-2.3","","<div style=""font-size:60px;"">+</div>","null","","","","","","",""
"651.7499999899883","","image-keyboard-response","232","375868","0.0-6.0-0.4","","img/purple.png","32","trial","32","true","1,0","3:go_c","",""
"null","","html-keyboard-response","233","376871","0.0-6.0-1.4","","<img src=""img/purple-r.png"" border=""10"">","null","trial","32","","1,0","3:go_c","1",""
"null","","html-keyboard-response","234","377874","0.0-6.0-2.4","","<div style=""font-size:60px;"">+</div>","null","","","","","","",""
"null","","image-keyboard-response","235","379377","0.0-6.0-0.5","","img/green.png","null","trial","null","true","0,1","4:nogo_d","",""
"null","","html-keyboard-response","236","380380","0.0-6.0-1.5","","<img src=""img/green-r.png"">","null","trial","null","","0,1","4:nogo_d","1",""
"null","","html-keyboard-response","237","381381","0.0-6.0-2.5","","<div style=""font-size:60px;"">+</div>","null","","","","","","",""
"null","","image-keyboard-response","238","382886","0.0-6.0-0.6","","img/grey.png","null","trial","null","true","0.2,0.8","2:nogo_b","",""
"null","","html-keyboard-response","239","383890","0.0-6.0-1.6","","<img src=""img/grey-r.png"">","null","trial","null","","0.2,0.8","2:nogo_b","1",""
"null","","html-keyboard-response","240","384892","0.0-6.0-2.6","","<div style=""font-size:60px;"">+</div>","null","","","","","","",""
"530.1299999991897","","image-keyboard-response","241","385423","0.0-6.0-0.7","","img/red.png","32","trial","32","true","0.8,0.2","1:go_a","",""
"null","","html-keyboard-response","242","386425","0.0-6.0-1.7","","<img src=""img/red-n.png"" border=""10"">","null","trial","32","","0.8,0.2","1:go_a","0",""
"null","","html-keyboard-response","243","387426","0.0-6.0-2.7","","<div style=""font-size:60px;"">+</div>","null","","","","","","",""
"1103.289999999106","","image-keyboard-response","244","388531","0.0-6.0-0.8","","img/green.png","32","trial","null","false","0,1","4:nogo_d","",""
"null","","html-keyboard-response","245","389534","0.0-6.0-1.8","","<img src=""img/green-n.png"" border=""10"">","null","trial","null","","0,1","4:nogo_d","0",""
"null","","html-keyboard-response","246","390535","0.0-6.0-2.8","","<div style=""font-size:60px;"">+</div>","null","","","","","","",""
"null","","image-keyboard-response","247","392036","0.0-6.0-0.9","","img/purple.png","null","trial","32","false","1,0","3:go_c","",""
"null","","html-keyboard-response","248","393038","0.0-6.0-1.9","","<img src=""img/purple-n.png"">","null","trial","32","","1,0","3:go_c","0",""
"null","","html-keyboard-response","249","394040","0.0-6.0-2.9","","<div style=""font-size:60px;"">+</div>","null","","","","","","",""
"null","","image-keyboard-response","250","395543","0.0-6.0-0.10","","img/grey.png","null","trial","null","true","0.2,0.8","2:nogo_b","",""
"null","","html-keyboard-response","251","396547","0.0-6.0-1.10","","<img src=""img/grey-n.png"">","null","trial","null","","0.2,0.8","2:nogo_b","0",""
"null","","html-keyboard-response","252","397549","0.0-6.0-2.10","","<div style=""font-size:60px;"">+</div>","null","","","","","","",""
"300.93000002671033","","image-keyboard-response","253","397851","0.0-6.0-0.11","","img/red.png","32","trial","32","true","0.8,0.2","1:go_a","",""
"null","","html-keyboard-response","254","398853","0.0-6.0-1.11","","<img src=""img/red-r.png"" border=""10"">","null","trial","32","","0.8,0.2","1:go_a","1",""
"null","","html-keyboard-response","255","399855","0.0-6.0-2.11","","<div style=""font-size:60px;"">+</div>","null","","","","","","",""
"1094.2050000012387","","image-keyboard-response","256","400951","0.0-6.0-0.12","","img/red.png","32","trial","32","true","0.8,0.2","1:go_a","",""
"null","","html-keyboard-response","257","401955","0.0-6.0-1.12","","<img src=""img/red-r.png"" border=""10"">","null","trial","32","","0.8,0.2","1:go_a","1",""
"null","","html-keyboard-response","258","402956","0.0-6.0-2.12","","<div style=""font-size:60px;"">+</div>","null","","","","","","",""
"469.97000000556","","image-keyboard-response","259","403428","0.0-6.0-0.13","","img/green.png","32","trial","null","false","0,1","4:nogo_d","",""
"null","","html-keyboard-response","260","404430","0.0-6.0-1.13","","<img src=""img/green-n.png"" border=""10"">","null","trial","null","","0,1","4:nogo_d","0",""
"null","","html-keyboard-response","261","405432","0.0-6.0-2.13","","<div style=""font-size:60px;"">+</div>","null","","","","","","",""
"null","","image-keyboard-response","262","406934","0.0-6.0-0.14","","img/purple.png","null","trial","32","false","1,0","3:go_c","",""
"null","","html-keyboard-response","263","407935","0.0-6.0-1.14","","<img src=""img/purple-n.png"">","null","trial","32","","1,0","3:go_c","0",""
"null","","html-keyboard-response","264","408937","0.0-6.0-2.14","","<div style=""font-size:60px;"">+</div>","null","","","","","","",""
"null","","image-keyboard-response","265","410441","0.0-6.0-0.15","","img/grey.png","null","trial","null","true","0.2,0.8","2:nogo_b","",""
"null","","html-keyboard-response","266","411445","0.0-6.0-1.15","","<img src=""img/grey-r.png"">","null","trial","null","","0.2,0.8","2:nogo_b","1",""
"null","","html-keyboard-response","267","412446","0.0-6.0-2.15","","<div style=""font-size:60px;"">+</div>","null","","","","","","",""
"1079.104999982519","","image-keyboard-response","268","413526","0.0-6.0-0.16","","img/green.png","32","trial","null","false","0,1","4:nogo_d","",""
"null","","html-keyboard-response","269","414529","0.0-6.0-1.16","","<img src=""img/green-n.png"" border=""10"">","null","trial","null","","0,1","4:nogo_d","0",""
"null","","html-keyboard-response","270","415531","0.0-6.0-2.16","","<div style=""font-size:60px;"">+</div>","null","","","","","","",""
"641.9400000013411","","image-keyboard-response","271","416174","0.0-6.0-0.17","","img/red.png","32","trial","32","true","0.8,0.2","1:go_a","",""
"null","","html-keyboard-response","272","417176","0.0-6.0-1.17","","<img src=""img/red-r.png"" border=""10"">","null","trial","32","","0.8,0.2","1:go_a","1",""
"null","","html-keyboard-response","273","418177","0.0-6.0-2.17","","<div style=""font-size:60px;"">+</div>","null","","","","","","",""
"408.2050000142772","","image-keyboard-response","274","418587","0.0-6.0-0.18","","img/purple.png","32","trial","32","true","1,0","3:go_c","",""
"null","","html-keyboard-response","275","419591","0.0-6.0-1.18","","<img src=""img/purple-r.png"" border=""10"">","null","trial","32","","1,0","3:go_c","1",""
"null","","html-keyboard-response","276","420594","0.0-6.0-2.18","","<div style=""font-size:60px;"">+</div>","null","","","","","","",""
"768.1000000156928","","image-keyboard-response","277","421365","0.0-6.0-0.19","","img/grey.png","32","trial","null","false","0.2,0.8","2:nogo_b","",""
"null","","html-keyboard-response","278","422368","0.0-6.0-1.19","","<img src=""img/grey-n.png"" border=""10"">","null","trial","null","","0.2,0.8","2:nogo_b","0",""
"null","","html-keyboard-response","279","423369","0.0-6.0-2.19","","<div style=""font-size:60px;"">+</div>","null","","","","","","",""
"570.6249999930151","","image-keyboard-response","280","423941","0.0-6.0-0.20","","img/red.png","32","trial","32","true","0.8,0.2","1:go_a","",""
"null","","html-keyboard-response","281","424945","0.0-6.0-1.20","","<img src=""img/red-r.png"" border=""10"">","null","trial","32","","0.8,0.2","1:go_a","1",""
"null","","html-keyboard-response","282","425947","0.0-6.0-2.20","","<div style=""font-size:60px;"">+</div>","null","","","","","","",""
"null","","image-keyboard-response","283","427450","0.0-6.0-0.21","","img/grey.png","null","trial","null","true","0.2,0.8","2:nogo_b","",""
"null","","html-keyboard-response","284","428453","0.0-6.0-1.21","","<img src=""img/grey-r.png"">","null","trial","null","","0.2,0.8","2:nogo_b","1",""
"null","","html-keyboard-response","285","429455","0.0-6.0-2.21","","<div style=""font-size:60px;"">+</div>","null","","","","","","",""
"545.3350000025239","","image-keyboard-response","286","430001","0.0-6.0-0.22","","img/purple.png","32","trial","32","true","1,0","3:go_c","",""
"null","","html-keyboard-response","287","431003","0.0-6.0-1.22","","<img src=""img/purple-r.png"" border=""10"">","null","trial","32","","1,0","3:go_c","1",""
"null","","html-keyboard-response","288","432004","0.0-6.0-2.22","","<div style=""font-size:60px;"">+</div>","null","","","","","","",""
"950.3100000147242","","image-keyboard-response","289","432956","0.0-6.0-0.23","","img/green.png","32","trial","null","false","0,1","4:nogo_d","",""
"null","","html-keyboard-response","290","433958","0.0-6.0-1.23","","<img src=""img/green-n.png"" border=""10"">","null","trial","null","","0,1","4:nogo_d","0",""
"null","","html-keyboard-response","291","434959","0.0-6.0-2.23","","<div style=""font-size:60px;"">+</div>","null","","","","","","",""
"null","","image-keyboard-response","292","436462","0.0-6.0-0.24","","img/green.png","null","trial","null","true","0,1","4:nogo_d","",""
"null","","html-keyboard-response","293","437469","0.0-6.0-1.24","","<img src=""img/green-r.png"">","null","trial","null","","0,1","4:nogo_d","1",""
"null","","html-keyboard-response","294","438470","0.0-6.0-2.24","","<div style=""font-size:60px;"">+</div>","null","","","","","","",""
"564.3750000162981","","image-keyboard-response","295","439037","0.0-6.0-0.25","","img/purple.png","32","trial","32","true","1,0","3:go_c","",""
"null","","html-keyboard-response","296","440051","0.0-6.0-1.25","","<img src=""img/purple-r.png"" border=""10"">","null","trial","32","","1,0","3:go_c","1",""
"null","","html-keyboard-response","297","441061","0.0-6.0-2.25","","<div style=""font-size:60px;"">+</div>","null","","","","","","",""
"null","","image-keyboard-response","298","442563","0.0-6.0-0.26","","img/grey.png","null","trial","null","true","0.2,0.8","2:nogo_b","",""
"null","","html-keyboard-response","299","443567","0.0-6.0-1.26","","<img src=""img/grey-n.png"">","null","trial","null","","0.2,0.8","2:nogo_b","0",""
"null","","html-keyboard-response","300","444569","0.0-6.0-2.26","","<div style=""font-size:60px;"">+</div>","null","","","","","","",""
"377.1249999990687","","image-keyboard-response","301","444947","0.0-6.0-0.27","","img/red.png","32","trial","32","true","0.8,0.2","1:go_a","",""
"null","","html-keyboard-response","302","445950","0.0-6.0-1.27","","<img src=""img/red-r.png"" border=""10"">","null","trial","32","","0.8,0.2","1:go_a","1",""
"null","","html-keyboard-response","303","446953","0.0-6.0-2.27","","<div style=""font-size:60px;"">+</div>","null","","","","","","",""
"null","","image-keyboard-response","304","448455","0.0-6.0-0.28","","img/green.png","null","trial","null","true","0,1","4:nogo_d","",""
"null","","html-keyboard-response","305","449457","0.0-6.0-1.28","","<img src=""img/green-r.png"">","null","trial","null","","0,1","4:nogo_d","1",""
"null","","html-keyboard-response","306","450460","0.0-6.0-2.28","","<div style=""font-size:60px;"">+</div>","null","","","","","","",""
"350.60999999404885","","image-keyboard-response","307","450811","0.0-6.0-0.29","","img/grey.png","32","trial","null","false","0.2,0.8","2:nogo_b","",""
"null","","html-keyboard-response","308","451825","0.0-6.0-1.29","","<img src=""img/grey-n.png"" border=""10"">","null","trial","null","","0.2,0.8","2:nogo_b","0",""
"null","","html-keyboard-response","309","452827","0.0-6.0-2.29","","<div style=""font-size:60px;"">+</div>","null","","","","","","",""
"548.7700000230689","","image-keyboard-response","310","453377","0.0-6.0-0.30","","img/red.png","32","trial","32","true","0.8,0.2","1:go_a","",""
"null","","html-keyboard-response","311","454378","0.0-6.0-1.30","","<img src=""img/red-r.png"" border=""10"">","null","trial","32","","0.8,0.2","1:go_a","1",""
"null","","html-keyboard-response","312","455380","0.0-6.0-2.30","","<div style=""font-size:60px;"">+</div>","null","","","","","","",""
"null","","image-keyboard-response","313","456883","0.0-6.0-0.31","","img/purple.png","null","trial","32","false","1,0","3:go_c","",""
"null","","html-keyboard-response","314","457885","0.0-6.0-1.31","","<img src=""img/purple-n.png"">","null","trial","32","","1,0","3:go_c","0",""
"null","","html-keyboard-response","315","458887","0.0-6.0-2.31","","<div style=""font-size:60px;"">+</div>","null","","","","","","",""
"268.6999999859836","","image-keyboard-response","316","459157","0.0-6.0-0.32","","img/purple.png","32","trial","32","true","1,0","3:go_c","",""
"null","","html-keyboard-response","317","460161","0.0-6.0-1.32","","<img src=""img/purple-r.png"" border=""10"">","null","trial","32","","1,0","3:go_c","1",""
"null","","html-keyboard-response","318","461162","0.0-6.0-2.32","","<div style=""font-size:60px;"">+</div>","null","","","","","","",""
"null","","image-keyboard-response","319","462665","0.0-6.0-0.33","","img/grey.png","null","trial","null","true","0.2,0.8","2:nogo_b","",""
"null","","html-keyboard-response","320","463667","0.0-6.0-1.33","","<img src=""img/grey-n.png"">","null","trial","null","","0.2,0.8","2:nogo_b","0",""
"null","","html-keyboard-response","321","464669","0.0-6.0-2.33","","<div style=""font-size:60px;"">+</div>","null","","","","","","",""
"645.3900000196882","","image-keyboard-response","322","465316","0.0-6.0-0.34","","img/green.png","32","trial","null","false","0,1","4:nogo_d","",""
"null","","html-keyboard-response","323","466319","0.0-6.0-1.34","","<img src=""img/green-n.png"" border=""10"">","null","trial","null","","0,1","4:nogo_d","0",""
"null","","html-keyboard-response","324","467321","0.0-6.0-2.34","","<div style=""font-size:60px;"">+</div>","null","","","","","","",""
"304.34499998227693","","image-keyboard-response","325","467627","0.0-6.0-0.35","","img/red.png","32","trial","32","true","0.8,0.2","1:go_a","",""
"null","","html-keyboard-response","326","468630","0.0-6.0-1.35","","<img src=""img/red-r.png"" border=""10"">","null","trial","32","","0.8,0.2","1:go_a","1",""
"null","","html-keyboard-response","327","469632","0.0-6.0-2.35","","<div style=""font-size:60px;"">+</div>","null","","","","","","",""
"553.764999989653","","image-keyboard-response","328","470187","0.0-6.0-0.36","","img/red.png","32","trial","32","true","0.8,0.2","1:go_a","",""
"null","","html-keyboard-response","329","471189","0.0-6.0-1.36","","<img src=""img/red-n.png"" border=""10"">","null","trial","32","","0.8,0.2","1:go_a","0",""
"null","","html-keyboard-response","330","472191","0.0-6.0-2.36","","<div style=""font-size:60px;"">+</div>","null","","","","","","",""
"547.3000000056345","","image-keyboard-response","331","472739","0.0-6.0-0.37","","img/purple.png","32","trial","32","true","1,0","3:go_c","",""
"null","","html-keyboard-response","332","473741","0.0-6.0-1.37","","<img src=""img/purple-r.png"" border=""10"">","null","trial","32","","1,0","3:go_c","1",""
"null","","html-keyboard-response","333","474743","0.0-6.0-2.37","","<div style=""font-size:60px;"">+</div>","null","","","","","","",""
"null","","image-keyboard-response","334","476245","0.0-6.0-0.38","","img/grey.png","null","trial","null","true","0.2,0.8","2:nogo_b","",""
"null","","html-keyboard-response","335","477247","0.0-6.0-1.38","","<img src=""img/grey-r.png"">","null","trial","null","","0.2,0.8","2:nogo_b","1",""
"null","","html-keyboard-response","336","478251","0.0-6.0-2.38","","<div style=""font-size:60px;"">+</div>","null","","","","","","",""
"null","","image-keyboard-response","337","479754","0.0-6.0-0.39","","img/green.png","null","trial","null","true","0,1","4:nogo_d","",""
"null","","html-keyboard-response","338","480757","0.0-6.0-1.39","","<img src=""img/green-r.png"">","null","trial","null","","0,1","4:nogo_d","1",""
"null","","html-keyboard-response","339","481758","0.0-6.0-2.39","","<div style=""font-size:60px;"">+</div>","null","","","","","","",""
"null","","image-keyboard-response","340","483260","0.0-6.0-0.40","","img/grey.png","null","trial","null","true","0.2,0.8","2:nogo_b","",""
"null","","html-keyboard-response","341","484262","0.0-6.0-1.40","","<img src=""img/grey-r.png"">","null","trial","null","","0.2,0.8","2:nogo_b","1",""
"null","","html-keyboard-response","342","485268","0.0-6.0-2.40","","<div style=""font-size:60px;"">+</div>","null","","","","","","",""
"403.37499999441206","","image-keyboard-response","343","485672","0.0-6.0-0.41","","img/purple.png","32","trial","32","true","1,0","3:go_c","",""
"null","","html-keyboard-response","344","486677","0.0-6.0-1.41","","<img src=""img/purple-r.png"" border=""10"">","null","trial","32","","1,0","3:go_c","1",""
"null","","html-keyboard-response","345","487678","0.0-6.0-2.41","","<div style=""font-size:60px;"">+</div>","null","","","","","","",""
"547.4799999792594","","image-keyboard-response","346","488227","0.0-6.0-0.42","","img/red.png","32","trial","32","true","0.8,0.2","1:go_a","",""
"null","","html-keyboard-response","347","489232","0.0-6.0-1.42","","<img src=""img/red-r.png"" border=""10"">","null","trial","32","","0.8,0.2","1:go_a","1",""
"null","","html-keyboard-response","348","490234","0.0-6.0-2.42","","<div style=""font-size:60px;"">+</div>","null","","","","","","",""
"626.8299999937881","","image-keyboard-response","349","490863","0.0-6.0-0.43","","img/green.png","32","trial","null","false","0,1","4:nogo_d","",""
"null","","html-keyboard-response","350","491867","0.0-6.0-1.43","","<img src=""img/green-n.png"" border=""10"">","null","trial","null","","0,1","4:nogo_d","0",""
"null","","html-keyboard-response","351","492870","0.0-6.0-2.43","","<div style=""font-size:60px;"">+</div>","null","","","","","","",""
"867.8400000208057","","image-keyboard-response","352","493739","0.0-6.0-0.44","","img/green.png","32","trial","null","false","0,1","4:nogo_d","",""
"null","","html-keyboard-response","353","494741","0.0-6.0-1.44","","<img src=""img/green-n.png"" border=""10"">","null","trial","null","","0,1","4:nogo_d","0",""
"null","","html-keyboard-response","354","495743","0.0-6.0-2.44","","<div style=""font-size:60px;"">+</div>","null","","","","","","",""
"null","","image-keyboard-response","355","497245","0.0-6.0-0.45","","img/purple.png","null","trial","32","false","1,0","3:go_c","",""
"null","","html-keyboard-response","356","498247","0.0-6.0-1.45","","<img src=""img/purple-n.png"">","null","trial","32","","1,0","3:go_c","0",""
"null","","html-keyboard-response","357","499249","0.0-6.0-2.45","","<div style=""font-size:60px;"">+</div>","null","","","","","","",""
"null","","image-keyboard-response","358","500752","0.0-6.0-0.46","","img/grey.png","null","trial","null","true","0.2,0.8","2:nogo_b","",""
"null","","html-keyboard-response","359","501757","0.0-6.0-1.46","","<img src=""img/grey-r.png"">","null","trial","null","","0.2,0.8","2:nogo_b","1",""
"null","","html-keyboard-response","360","502759","0.0-6.0-2.46","","<div style=""font-size:60px;"">+</div>","null","","","","","","",""
"371.91999997594394","","image-keyboard-response","361","503132","0.0-6.0-0.47","","img/red.png","32","trial","32","true","0.8,0.2","1:go_a","",""
"null","","html-keyboard-response","362","504137","0.0-6.0-1.47","","<img src=""img/red-r.png"" border=""10"">","null","trial","32","","0.8,0.2","1:go_a","1",""
"null","","html-keyboard-response","363","505139","0.0-6.0-2.47","","<div style=""font-size:60px;"">+</div>","null","","","","","","",""
"470.9300000104122","","image-keyboard-response","364","505611","0.0-6.0-0.48","","img/grey.png","32","trial","null","false","0.2,0.8","2:nogo_b","",""
"null","","html-keyboard-response","365","506614","0.0-6.0-1.48","","<img src=""img/grey-r.png"" border=""10"">","null","trial","null","","0.2,0.8","2:nogo_b","1",""
"null","","html-keyboard-response","366","507615","0.0-6.0-2.48","","<div style=""font-size:60px;"">+</div>","null","","","","","","",""
"null","","image-keyboard-response","367","509117","0.0-6.0-0.49","","img/red.png","null","trial","32","false","0.8,0.2","1:go_a","",""
"null","","html-keyboard-response","368","510119","0.0-6.0-1.49","","<img src=""img/red-r.png"">","null","trial","32","","0.8,0.2","1:go_a","1",""
"null","","html-keyboard-response","369","511121","0.0-6.0-2.49","","<div style=""font-size:60px;"">+</div>","null","","","","","","",""
"530.2150000061374","","image-keyboard-response","370","511652","0.0-6.0-0.50","","img/green.png","32","trial","null","false","0,1","4:nogo_d","",""
"null","","html-keyboard-response","371","512654","0.0-6.0-1.50","","<img src=""img/green-n.png"" border=""10"">","null","trial","null","","0,1","4:nogo_d","0",""
"null","","html-keyboard-response","372","513655","0.0-6.0-2.50","","<div style=""font-size:60px;"">+</div>","null","","","","","","",""
"434.58499998087063","","image-keyboard-response","373","514091","0.0-6.0-0.51","","img/purple.png","32","trial","32","true","1,0","3:go_c","",""
"null","","html-keyboard-response","374","515095","0.0-6.0-1.51","","<img src=""img/purple-r.png"" border=""10"">","null","trial","32","","1,0","3:go_c","1",""
"null","","html-keyboard-response","375","516098","0.0-6.0-2.51","","<div style=""font-size:60px;"">+</div>","null","","","","","","",""
"null","","image-keyboard-response","376","517600","0.0-6.0-0.52","","img/grey.png","null","trial","null","true","0.2,0.8","2:nogo_b","",""
"null","","html-keyboard-response","377","518601","0.0-6.0-1.52","","<img src=""img/grey-r.png"">","null","trial","null","","0.2,0.8","2:nogo_b","1",""
"null","","html-keyboard-response","378","519603","0.0-6.0-2.52","","<div style=""font-size:60px;"">+</div>","null","","","","","","",""
"431.0750000004191","","image-keyboard-response","379","520036","0.0-6.0-0.53","","img/green.png","32","trial","null","false","0,1","4:nogo_d","",""
"null","","html-keyboard-response","380","521038","0.0-6.0-1.53","","<img src=""img/green-n.png"" border=""10"">","null","trial","null","","0,1","4:nogo_d","0",""
"null","","html-keyboard-response","381","522040","0.0-6.0-2.53","","<div style=""font-size:60px;"">+</div>","null","","","","","","",""
"null","","image-keyboard-response","382","523543","0.0-6.0-0.54","","img/red.png","null","trial","32","false","0.8,0.2","1:go_a","",""
"null","","html-keyboard-response","383","524547","0.0-6.0-1.54","","<img src=""img/red-n.png"">","null","trial","32","","0.8,0.2","1:go_a","0",""
"null","","html-keyboard-response","384","525549","0.0-6.0-2.54","","<div style=""font-size:60px;"">+</div>","null","","","","","","",""
"516.2700000219047","","image-keyboard-response","385","526066","0.0-6.0-0.55","","img/purple.png","32","trial","32","true","1,0","3:go_c","",""
"null","","html-keyboard-response","386","527069","0.0-6.0-1.55","","<img src=""img/purple-r.png"" border=""10"">","null","trial","32","","1,0","3:go_c","1",""
"null","","html-keyboard-response","387","528079","0.0-6.0-2.55","","<div style=""font-size:60px;"">+</div>","null","","","","","","",""
"600.8849999925587","","image-keyboard-response","388","528682","0.0-6.0-0.56","","img/red.png","32","trial","32","true","0.8,0.2","1:go_a","",""
"null","","html-keyboard-response","389","529685","0.0-6.0-1.56","","<img src=""img/red-r.png"" border=""10"">","null","trial","32","","0.8,0.2","1:go_a","1",""
"null","","html-keyboard-response","390","530689","0.0-6.0-2.56","","<div style=""font-size:60px;"">+</div>","null","","","","","","",""
"null","","image-keyboard-response","391","532190","0.0-6.0-0.57","","img/green.png","null","trial","null","true","0,1","4:nogo_d","",""
"null","","html-keyboard-response","392","533193","0.0-6.0-1.57","","<img src=""img/green-r.png"">","null","trial","null","","0,1","4:nogo_d","1",""
"null","","html-keyboard-response","393","534195","0.0-6.0-2.57","","<div style=""font-size:60px;"">+</div>","null","","","","","","",""
"475.9900000062771","","image-keyboard-response","394","534672","0.0-6.0-0.58","","img/purple.png","32","trial","32","true","1,0","3:go_c","",""
"null","","html-keyboard-response","395","535674","0.0-6.0-1.58","","<img src=""img/purple-r.png"" border=""10"">","null","trial","32","","1,0","3:go_c","1",""
"null","","html-keyboard-response","396","536676","0.0-6.0-2.58","","<div style=""font-size:60px;"">+</div>","null","","","","","","",""
"null","","image-keyboard-response","397","538177","0.0-6.0-0.59","","img/grey.png","null","trial","null","true","0.2,0.8","2:nogo_b","",""
"null","","html-keyboard-response","398","539179","0.0-6.0-1.59","","<img src=""img/grey-r.png"">","null","trial","null","","0.2,0.8","2:nogo_b","1",""
"null","","html-keyboard-response","399","540181","0.0-6.0-2.59","","<div style=""font-size:60px;"">+</div>","null","","","","","","",""
"497.9449999809731","","image-keyboard-response","400","540680","0.0-6.0-0.60","","img/grey.png","32","trial","null","false","0.2,0.8","2:nogo_b","",""
"null","","html-keyboard-response","401","541684","0.0-6.0-1.60","","<img src=""img/grey-r.png"" border=""10"">","null","trial","null","","0.2,0.8","2:nogo_b","1",""
"null","","html-keyboard-response","402","542688","0.0-6.0-2.60","","<div style=""font-size:60px;"">+</div>","null","","","","","","",""
"null","","image-keyboard-response","403","544192","0.0-6.0-0.61","","img/red.png","null","trial","32","false","0.8,0.2","1:go_a","",""
"null","","html-keyboard-response","404","545201","0.0-6.0-1.61","","<img src=""img/red-n.png"">","null","trial","32","","0.8,0.2","1:go_a","0",""
"null","","html-keyboard-response","405","546202","0.0-6.0-2.61","","<div style=""font-size:60px;"">+</div>","null","","","","","","",""
"695.8250000025146","","image-keyboard-response","406","546900","0.0-6.0-0.62","","img/green.png","32","trial","null","false","0,1","4:nogo_d","",""
"null","","html-keyboard-response","407","547904","0.0-6.0-1.62","","<img src=""img/green-n.png"" border=""10"">","null","trial","null","","0,1","4:nogo_d","0",""
"null","","html-keyboard-response","408","548906","0.0-6.0-2.62","","<div style=""font-size:60px;"">+</div>","null","","","","","","",""
"780.2350000129081","","image-keyboard-response","409","549687","0.0-6.0-0.63","","img/purple.png","32","trial","32","true","1,0","3:go_c","",""
"null","","html-keyboard-response","410","550690","0.0-6.0-1.63","","<img src=""img/purple-r.png"" border=""10"">","null","trial","32","","1,0","3:go_c","1",""
"null","","html-keyboard-response","411","551692","0.0-6.0-2.63","","<div style=""font-size:60px;"">+</div>","null","","","","","","",""
"null","","image-keyboard-response","412","553195","0.0-6.0-0.64","","img/grey.png","null","trial","null","true","0.2,0.8","2:nogo_b","",""
"null","","html-keyboard-response","413","554198","0.0-6.0-1.64","","<img src=""img/grey-r.png"">","null","trial","null","","0.2,0.8","2:nogo_b","1",""
"null","","html-keyboard-response","414","555199","0.0-6.0-2.64","","<div style=""font-size:60px;"">+</div>","null","","","","","","",""
"null","","image-keyboard-response","415","556701","0.0-6.0-0.65","","img/red.png","null","trial","32","false","0.8,0.2","1:go_a","",""
"null","","html-keyboard-response","416","557703","0.0-6.0-1.65","","<img src=""img/red-n.png"">","null","trial","32","","0.8,0.2","1:go_a","0",""
"null","","html-keyboard-response","417","558705","0.0-6.0-2.65","","<div style=""font-size:60px;"">+</div>","null","","","","","","",""
"407.27500000502914","","image-keyboard-response","418","559114","0.0-6.0-0.66","","img/purple.png","32","trial","32","true","1,0","3:go_c","",""
"null","","html-keyboard-response","419","560119","0.0-6.0-1.66","","<img src=""img/purple-r.png"" border=""10"">","null","trial","32","","1,0","3:go_c","1",""
"null","","html-keyboard-response","420","561122","0.0-6.0-2.66","","<div style=""font-size:60px;"">+</div>","null","","","","","","",""
"null","","image-keyboard-response","421","562625","0.0-6.0-0.67","","img/green.png","null","trial","null","true","0,1","4:nogo_d","",""
"null","","html-keyboard-response","422","563627","0.0-6.0-1.67","","<img src=""img/green-r.png"">","null","trial","null","","0,1","4:nogo_d","1",""
"null","","html-keyboard-response","423","564630","0.0-6.0-2.67","","<div style=""font-size:60px;"">+</div>","null","","","","","","",""
"null","","image-keyboard-response","424","566132","0.0-6.0-0.68","","img/green.png","null","trial","null","true","0,1","4:nogo_d","",""
"null","","html-keyboard-response","425","567136","0.0-6.0-1.68","","<img src=""img/green-r.png"">","null","trial","null","","0,1","4:nogo_d","1",""
"null","","html-keyboard-response","426","568139","0.0-6.0-2.68","","<div style=""font-size:60px;"">+</div>","null","","","","","","",""
"707.3600000003353","","image-keyboard-response","427","568847","0.0-6.0-0.69","","img/grey.png","32","trial","null","false","0.2,0.8","2:nogo_b","",""
"null","","html-keyboard-response","428","569850","0.0-6.0-1.69","","<img src=""img/grey-n.png"" border=""10"">","null","trial","null","","0.2,0.8","2:nogo_b","0",""
"null","","html-keyboard-response","429","570851","0.0-6.0-2.69","","<div style=""font-size:60px;"">+</div>","null","","","","","","",""
"779.3250000104308","","image-keyboard-response","430","571631","0.0-6.0-0.70","","img/purple.png","32","trial","32","true","1,0","3:go_c","",""
"null","","html-keyboard-response","431","572634","0.0-6.0-1.70","","<img src=""img/purple-r.png"" border=""10"">","null","trial","32","","1,0","3:go_c","1",""
"null","","html-keyboard-response","432","573637","0.0-6.0-2.70","","<div style=""font-size:60px;"">+</div>","null","","","","","","",""
"436.2849999743048","","image-keyboard-response","433","574075","0.0-6.0-0.71","","img/red.png","32","trial","32","true","0.8,0.2","1:go_a","",""
"null","","html-keyboard-response","434","575078","0.0-6.0-1.71","","<img src=""img/red-n.png"" border=""10"">","null","trial","32","","0.8,0.2","1:go_a","0",""
"null","","html-keyboard-response","435","576081","0.0-6.0-2.71","","<div style=""font-size:60px;"">+</div>","null","","","","","","",""
"null","","image-keyboard-response","436","577583","0.0-6.0-0.72","","img/red.png","null","trial","32","false","0.8,0.2","1:go_a","",""
"null","","html-keyboard-response","437","578585","0.0-6.0-1.72","","<img src=""img/red-r.png"">","null","trial","32","","0.8,0.2","1:go_a","1",""
"null","","html-keyboard-response","438","579587","0.0-6.0-2.72","","<div style=""font-size:60px;"">+</div>","null","","","","","","",""
"571.9300000055227","","image-keyboard-response","439","580161","0.0-6.0-0.73","","img/purple.png","32","trial","32","true","1,0","3:go_c","",""
"null","","html-keyboard-response","440","581163","0.0-6.0-1.73","","<img src=""img/purple-r.png"" border=""10"">","null","trial","32","","1,0","3:go_c","1",""
"null","","html-keyboard-response","441","582165","0.0-6.0-2.73","","<div style=""font-size:60px;"">+</div>","null","","","","","","",""
"null","","image-keyboard-response","442","583673","0.0-6.0-0.74","","img/grey.png","null","trial","null","true","0.2,0.8","2:nogo_b","",""
"null","","html-keyboard-response","443","584676","0.0-6.0-1.74","","<img src=""img/grey-r.png"">","null","trial","null","","0.2,0.8","2:nogo_b","1",""
"null","","html-keyboard-response","444","585678","0.0-6.0-2.74","","<div style=""font-size:60px;"">+</div>","null","","","","","","",""
"null","","image-keyboard-response","445","587180","0.0-6.0-0.75","","img/green.png","null","trial","null","true","0,1","4:nogo_d","",""
"null","","html-keyboard-response","446","588181","0.0-6.0-1.75","","<img src=""img/green-r.png"">","null","trial","null","","0,1","4:nogo_d","1",""
"null","","html-keyboard-response","447","589183","0.0-6.0-2.75","","<div style=""font-size:60px;"">+</div>","null","","","","","","",""
"433.82499998551793","","image-keyboard-response","448","589618","0.0-6.0-0.76","","img/green.png","32","trial","null","false","0,1","4:nogo_d","",""
"null","","html-keyboard-response","449","590621","0.0-6.0-1.76","","<img src=""img/green-n.png"" border=""10"">","null","trial","null","","0,1","4:nogo_d","0",""
"null","","html-keyboard-response","450","591624","0.0-6.0-2.76","","<div style=""font-size:60px;"">+</div>","null","","","","","","",""
"491.2849999964237","","image-keyboard-response","451","592116","0.0-6.0-0.77","","img/red.png","32","trial","32","true","0.8,0.2","1:go_a","",""
"null","","html-keyboard-response","452","593119","0.0-6.0-1.77","","<img src=""img/red-r.png"" border=""10"">","null","trial","32","","0.8,0.2","1:go_a","1",""
"null","","html-keyboard-response","453","594121","0.0-6.0-2.77","","<div style=""font-size:60px;"">+</div>","null","","","","","","",""
"346.6049999988172","","image-keyboard-response","454","594470","0.0-6.0-0.78","","img/purple.png","32","trial","32","true","1,0","3:go_c","",""
"null","","html-keyboard-response","455","595473","0.0-6.0-1.78","","<img src=""img/purple-r.png"" border=""10"">","null","trial","32","","1,0","3:go_c","1",""
"null","","html-keyboard-response","456","596475","0.0-6.0-2.78","","<div style=""font-size:60px;"">+</div>","null","","","","","","",""
"null","","image-keyboard-response","457","597976","0.0-6.0-0.79","","img/grey.png","null","trial","null","true","0.2,0.8","2:nogo_b","",""
"null","","html-keyboard-response","458","598978","0.0-6.0-1.79","","<img src=""img/grey-r.png"">","null","trial","null","","0.2,0.8","2:nogo_b","1",""
"null","","html-keyboard-response","459","599979","0.0-6.0-2.79","","<div style=""font-size:60px;"">+</div>","null","","","","","","",""
"null","","image-keyboard-response","460","601481","0.0-6.0-0.80","","img/green.png","null","trial","null","true","0,1","4:nogo_d","",""
"null","","html-keyboard-response","461","602483","0.0-6.0-1.80","","<img src=""img/green-r.png"">","null","trial","null","","0,1","4:nogo_d","1",""
"null","","html-keyboard-response","462","603484","0.0-6.0-2.80","","<div style=""font-size:60px;"">+</div>","null","","","","","","",""
"854.2799999995623","","image-keyboard-response","463","604340","0.0-6.0-0.81","","img/purple.png","32","trial","32","true","1,0","3:go_c","",""
"null","","html-keyboard-response","464","605345","0.0-6.0-1.81","","<img src=""img/purple-r.png"" border=""10"">","null","trial","32","","1,0","3:go_c","1",""
"null","","html-keyboard-response","465","606346","0.0-6.0-2.81","","<div style=""font-size:60px;"">+</div>","null","","","","","","",""
"null","","image-keyboard-response","466","607847","0.0-6.0-0.82","","img/red.png","null","trial","32","false","0.8,0.2","1:go_a","",""
"null","","html-keyboard-response","467","608851","0.0-6.0-1.82","","<img src=""img/red-r.png"">","null","trial","32","","0.8,0.2","1:go_a","1",""
"null","","html-keyboard-response","468","609853","0.0-6.0-2.82","","<div style=""font-size:60px;"">+</div>","null","","","","","","",""
"null","","image-keyboard-response","469","611355","0.0-6.0-0.83","","img/grey.png","null","trial","null","true","0.2,0.8","2:nogo_b","",""
"null","","html-keyboard-response","470","612359","0.0-6.0-1.83","","<img src=""img/grey-r.png"">","null","trial","null","","0.2,0.8","2:nogo_b","1",""
"null","","html-keyboard-response","471","613362","0.0-6.0-2.83","","<div style=""font-size:60px;"">+</div>","null","","","","","","",""
"null","","image-keyboard-response","472","614865","0.0-6.0-0.84","","img/grey.png","null","trial","null","true","0.2,0.8","2:nogo_b","",""
"null","","html-keyboard-response","473","615868","0.0-6.0-1.84","","<img src=""img/grey-r.png"">","null","trial","null","","0.2,0.8","2:nogo_b","1",""
"null","","html-keyboard-response","474","616870","0.0-6.0-2.84","","<div style=""font-size:60px;"">+</div>","null","","","","","","",""
"490.12499998207204","","image-keyboard-response","475","617361","0.0-6.0-0.85","","img/red.png","32","trial","32","true","0.8,0.2","1:go_a","",""
"null","","html-keyboard-response","476","618365","0.0-6.0-1.85","","<img src=""img/red-r.png"" border=""10"">","null","trial","32","","0.8,0.2","1:go_a","1",""
"null","","html-keyboard-response","477","619367","0.0-6.0-2.85","","<div style=""font-size:60px;"">+</div>","null","","","","","","",""
"531.6549999988638","","image-keyboard-response","478","619902","0.0-6.0-0.86","","img/green.png","32","trial","null","false","0,1","4:nogo_d","",""
"null","","html-keyboard-response","479","620904","0.0-6.0-1.86","","<img src=""img/green-n.png"" border=""10"">","null","trial","null","","0,1","4:nogo_d","0",""
"null","","html-keyboard-response","480","621906","0.0-6.0-2.86","","<div style=""font-size:60px;"">+</div>","null","","","","","","",""
"1048.6450000025798","","image-keyboard-response","481","622956","0.0-6.0-0.87","","img/purple.png","32","trial","32","true","1,0","3:go_c","",""
"null","","html-keyboard-response","482","623958","0.0-6.0-1.87","","<img src=""img/purple-r.png"" border=""10"">","null","trial","32","","1,0","3:go_c","1",""
"null","","html-keyboard-response","483","624960","0.0-6.0-2.87","","<div style=""font-size:60px;"">+</div>","null","","","","","","",""
"null","","image-keyboard-response","484","626461","0.0-6.0-0.88","","img/red.png","null","trial","32","false","0.8,0.2","1:go_a","",""
"null","","html-keyboard-response","485","627463","0.0-6.0-1.88","","<img src=""img/red-n.png"">","null","trial","32","","0.8,0.2","1:go_a","0",""
"null","","html-keyboard-response","486","628465","0.0-6.0-2.88","","<div style=""font-size:60px;"">+</div>","null","","","","","","",""
"489.91999999270774","","image-keyboard-response","487","628956","0.0-6.0-0.89","","img/green.png","32","trial","null","false","0,1","4:nogo_d","",""
"null","","html-keyboard-response","488","629959","0.0-6.0-1.89","","<img src=""img/green-n.png"" border=""10"">","null","trial","null","","0,1","4:nogo_d","0",""
"null","","html-keyboard-response","489","630963","0.0-6.0-2.89","","<div style=""font-size:60px;"">+</div>","null","","","","","","",""
"575.459999992745","","image-keyboard-response","490","631539","0.0-6.0-0.90","","img/grey.png","32","trial","null","false","0.2,0.8","2:nogo_b","",""
"null","","html-keyboard-response","491","632541","0.0-6.0-1.90","","<img src=""img/grey-n.png"" border=""10"">","null","trial","null","","0.2,0.8","2:nogo_b","0",""
"null","","html-keyboard-response","492","633543","0.0-6.0-2.90","","<div style=""font-size:60px;"">+</div>","null","","","","","","",""
"670.6950000079814","","image-keyboard-response","493","634214","0.0-6.0-0.91","","img/purple.png","32","trial","32","true","1,0","3:go_c","",""
"null","","html-keyboard-response","494","635217","0.0-6.0-1.91","","<img src=""img/purple-r.png"" border=""10"">","null","trial","32","","1,0","3:go_c","1",""
"null","","html-keyboard-response","495","636219","0.0-6.0-2.91","","<div style=""font-size:60px;"">+</div>","null","","","","","","",""
"546.8999999866355","","image-keyboard-response","496","636766","0.0-6.0-0.92","","img/purple.png","32","trial","32","true","1,0","3:go_c","",""
"null","","html-keyboard-response","497","637769","0.0-6.0-1.92","","<img src=""img/purple-r.png"" border=""10"">","null","trial","32","","1,0","3:go_c","1",""
"null","","html-keyboard-response","498","638771","0.0-6.0-2.92","","<div style=""font-size:60px;"">+</div>","null","","","","","","",""
"null","","image-keyboard-response","499","640275","0.0-6.0-0.93","","img/red.png","null","trial","32","false","0.8,0.2","1:go_a","",""
"null","","html-keyboard-response","500","641277","0.0-6.0-1.93","","<img src=""img/red-n.png"">","null","trial","32","","0.8,0.2","1:go_a","0",""
"null","","html-keyboard-response","501","642280","0.0-6.0-2.93","","<div style=""font-size:60px;"">+</div>","null","","","","","","",""
"1256.7500000004657","","image-keyboard-response","502","643538","0.0-6.0-0.94","","img/green.png","32","trial","null","false","0,1","4:nogo_d","",""
"null","","html-keyboard-response","503","644543","0.0-6.0-1.94","","<img src=""img/green-n.png"" border=""10"">","null","trial","null","","0,1","4:nogo_d","0",""
"null","","html-keyboard-response","504","645545","0.0-6.0-2.94","","<div style=""font-size:60px;"">+</div>","null","","","","","","",""
"null","","image-keyboard-response","505","647046","0.0-6.0-0.95","","img/grey.png","null","trial","null","true","0.2,0.8","2:nogo_b","",""
"null","","html-keyboard-response","506","648050","0.0-6.0-1.95","","<img src=""img/grey-r.png"">","null","trial","null","","0.2,0.8","2:nogo_b","1",""
"null","","html-keyboard-response","507","649052","0.0-6.0-2.95","","<div style=""font-size:60px;"">+</div>","null","","","","","","",""
"697.8149999922607","","image-keyboard-response","508","649751","0.0-6.0-0.96","","img/purple.png","32","trial","32","true","1,0","3:go_c","",""
"null","","html-keyboard-response","509","650753","0.0-6.0-1.96","","<img src=""img/purple-r.png"" border=""10"">","null","trial","32","","1,0","3:go_c","1",""
"null","","html-keyboard-response","510","651754","0.0-6.0-2.96","","<div style=""font-size:60px;"">+</div>","null","","","","","","",""
"null","","image-keyboard-response","511","653256","0.0-6.0-0.97","","img/red.png","null","trial","32","false","0.8,0.2","1:go_a","",""
"null","","html-keyboard-response","512","654259","0.0-6.0-1.97","","<img src=""img/red-n.png"">","null","trial","32","","0.8,0.2","1:go_a","0",""
"null","","html-keyboard-response","513","655261","0.0-6.0-2.97","","<div style=""font-size:60px;"">+</div>","null","","","","","","",""
"null","","image-keyboard-response","514","656762","0.0-6.0-0.98","","img/green.png","null","trial","null","true","0,1","4:nogo_d","",""
"null","","html-keyboard-response","515","657764","0.0-6.0-1.98","","<img src=""img/green-r.png"">","null","trial","null","","0,1","4:nogo_d","1",""
"null","","html-keyboard-response","516","658767","0.0-6.0-2.98","","<div style=""font-size:60px;"">+</div>","null","","","","","","",""
"631.3000000081956","","image-keyboard-response","517","659399","0.0-6.0-0.99","","img/grey.png","32","trial","null","false","0.2,0.8","2:nogo_b","",""
"null","","html-keyboard-response","518","660401","0.0-6.0-1.99","","<img src=""img/grey-n.png"" border=""10"">","null","trial","null","","0.2,0.8","2:nogo_b","0",""
"null","","html-keyboard-response","519","661403","0.0-6.0-2.99","","<div style=""font-size:60px;"">+</div>","null","","","","","","",""
"433.500000013737","","image-keyboard-response","520","661837","0.0-6.0-0.100","","img/purple.png","32","trial","32","true","1,0","3:go_c","",""
"null","","html-keyboard-response","521","662840","0.0-6.0-1.100","","<img src=""img/purple-r.png"" border=""10"">","null","trial","32","","1,0","3:go_c","1",""
"null","","html-keyboard-response","522","663842","0.0-6.0-2.100","","<div style=""font-size:60px;"">+</div>","null","","","","","","",""
"null","","image-keyboard-response","523","665345","0.0-6.0-0.101","","img/red.png","null","trial","32","false","0.8,0.2","1:go_a","",""
"null","","html-keyboard-response","524","666348","0.0-6.0-1.101","","<img src=""img/red-n.png"">","null","trial","32","","0.8,0.2","1:go_a","0",""
"null","","html-keyboard-response","525","667350","0.0-6.0-2.101","","<div style=""font-size:60px;"">+</div>","null","","","","","","",""
"null","","image-keyboard-response","526","668852","0.0-6.0-0.102","","img/green.png","null","trial","null","true","0,1","4:nogo_d","",""
"null","","html-keyboard-response","527","669854","0.0-6.0-1.102","","<img src=""img/green-r.png"">","null","trial","null","","0,1","4:nogo_d","1",""
"null","","html-keyboard-response","528","670856","0.0-6.0-2.102","","<div style=""font-size:60px;"">+</div>","null","","","","","","",""
"null","","image-keyboard-response","529","672358","0.0-6.0-0.103","","img/grey.png","null","trial","null","true","0.2,0.8","2:nogo_b","",""
"null","","html-keyboard-response","530","673360","0.0-6.0-1.103","","<img src=""img/grey-r.png"">","null","trial","null","","0.2,0.8","2:nogo_b","1",""
"null","","html-keyboard-response","531","674361","0.0-6.0-2.103","","<div style=""font-size:60px;"">+</div>","null","","","","","","",""
"689.1749999776948","","image-keyboard-response","532","675053","0.0-6.0-0.104","","img/grey.png","32","trial","null","false","0.2,0.8","2:nogo_b","",""
"null","","html-keyboard-response","533","676057","0.0-6.0-1.104","","<img src=""img/grey-n.png"" border=""10"">","null","trial","null","","0.2,0.8","2:nogo_b","0",""
"null","","html-keyboard-response","534","677058","0.0-6.0-2.104","","<div style=""font-size:60px;"">+</div>","null","","","","","","",""
"719.4500000041444","","image-keyboard-response","535","677779","0.0-6.0-0.105","","img/green.png","32","trial","null","false","0,1","4:nogo_d","",""
"null","","html-keyboard-response","536","678784","0.0-6.0-1.105","","<img src=""img/green-n.png"" border=""10"">","null","trial","null","","0,1","4:nogo_d","0",""
"null","","html-keyboard-response","537","679786","0.0-6.0-2.105","","<div style=""font-size:60px;"">+</div>","null","","","","","","",""
"476.01499999291264","","image-keyboard-response","538","680263","0.0-6.0-0.106","","img/red.png","32","trial","32","true","0.8,0.2","1:go_a","",""
"null","","html-keyboard-response","539","681266","0.0-6.0-1.106","","<img src=""img/red-r.png"" border=""10"">","null","trial","32","","0.8,0.2","1:go_a","1",""
"null","","html-keyboard-response","540","682267","0.0-6.0-2.106","","<div style=""font-size:60px;"">+</div>","null","","","","","","",""
"304.49000000953674","","image-keyboard-response","541","682573","0.0-6.0-0.107","","img/purple.png","32","trial","32","true","1,0","3:go_c","",""
"null","","html-keyboard-response","542","683575","0.0-6.0-1.107","","<img src=""img/purple-r.png"" border=""10"">","null","trial","32","","1,0","3:go_c","1",""
"null","","html-keyboard-response","543","684578","0.0-6.0-2.107","","<div style=""font-size:60px;"">+</div>","null","","","","","","",""
"267.50499999616295","","image-keyboard-response","544","684846","0.0-6.0-0.108","","img/purple.png","32","trial","32","true","1,0","3:go_c","",""
"null","","html-keyboard-response","545","685849","0.0-6.0-1.108","","<img src=""img/purple-r.png"" border=""10"">","null","trial","32","","1,0","3:go_c","1",""
"null","","html-keyboard-response","546","686850","0.0-6.0-2.108","","<div style=""font-size:60px;"">+</div>","null","","","","","","",""
"651.6799999808427","","image-keyboard-response","547","687503","0.0-6.0-0.109","","img/red.png","32","trial","32","true","0.8,0.2","1:go_a","",""
"null","","html-keyboard-response","548","688506","0.0-6.0-1.109","","<img src=""img/red-r.png"" border=""10"">","null","trial","32","","0.8,0.2","1:go_a","1",""
"null","","html-keyboard-response","549","689507","0.0-6.0-2.109","","<div style=""font-size:60px;"">+</div>","null","","","","","","",""
"null","","image-keyboard-response","550","691016","0.0-6.0-0.110","","img/grey.png","null","trial","null","true","0.2,0.8","2:nogo_b","",""
"null","","html-keyboard-response","551","692019","0.0-6.0-1.110","","<img src=""img/grey-n.png"">","null","trial","null","","0.2,0.8","2:nogo_b","0",""
"null","","html-keyboard-response","552","693021","0.0-6.0-2.110","","<div style=""font-size:60px;"">+</div>","null","","","","","","",""
"null","","image-keyboard-response","553","694538","0.0-6.0-0.111","","img/green.png","null","trial","null","true","0,1","4:nogo_d","",""
"null","","html-keyboard-response","554","695541","0.0-6.0-1.111","","<img src=""img/green-r.png"">","null","trial","null","","0,1","4:nogo_d","1",""
"null","","html-keyboard-response","555","696543","0.0-6.0-2.111","","<div style=""font-size:60px;"">+</div>","null","","","","","","",""
"801.2400000006892","","image-keyboard-response","556","697346","0.0-6.0-0.112","","img/red.png","32","trial","32","true","0.8,0.2","1:go_a","",""
"null","","html-keyboard-response","557","698350","0.0-6.0-1.112","","<img src=""img/red-r.png"" border=""10"">","null","trial","32","","0.8,0.2","1:go_a","1",""
"null","","html-keyboard-response","558","699367","0.0-6.0-2.112","","<div style=""font-size:60px;"">+</div>","null","","","","","","",""
"334.1800000052899","","image-keyboard-response","559","699704","0.0-6.0-0.113","","img/purple.png","32","trial","32","true","1,0","3:go_c","",""
"null","","html-keyboard-response","560","700706","0.0-6.0-1.113","","<img src=""img/purple-r.png"" border=""10"">","null","trial","32","","1,0","3:go_c","1",""
"null","","html-keyboard-response","561","701708","0.0-6.0-2.113","","<div style=""font-size:60px;"">+</div>","null","","","","","","",""
"null","","image-keyboard-response","562","703210","0.0-6.0-0.114","","img/grey.png","null","trial","null","true","0.2,0.8","2:nogo_b","",""
"null","","html-keyboard-response","563","704213","0.0-6.0-1.114","","<img src=""img/grey-r.png"">","null","trial","null","","0.2,0.8","2:nogo_b","1",""
"null","","html-keyboard-response","564","705216","0.0-6.0-2.114","","<div style=""font-size:60px;"">+</div>","null","","","","","","",""
"null","","image-keyboard-response","565","706718","0.0-6.0-0.115","","img/green.png","null","trial","null","true","0,1","4:nogo_d","",""
"null","","html-keyboard-response","566","707721","0.0-6.0-1.115","","<img src=""img/green-r.png"">","null","trial","null","","0,1","4:nogo_d","1",""
"null","","html-keyboard-response","567","708726","0.0-6.0-2.115","","<div style=""font-size:60px;"">+</div>","null","","","","","","",""
"662.6300000061747","","image-keyboard-response","568","709389","0.0-6.0-0.116","","img/red.png","32","trial","32","true","0.8,0.2","1:go_a","",""
"null","","html-keyboard-response","569","710392","0.0-6.0-1.116","","<img src=""img/red-r.png"" border=""10"">","null","trial","32","","0.8,0.2","1:go_a","1",""
"null","","html-keyboard-response","570","711394","0.0-6.0-2.116","","<div style=""font-size:60px;"">+</div>","null","","","","","","",""
"null","","image-keyboard-response","571","712895","0.0-6.0-0.117","","img/green.png","null","trial","null","true","0,1","4:nogo_d","",""
"null","","html-keyboard-response","572","713898","0.0-6.0-1.117","","<img src=""img/green-r.png"">","null","trial","null","","0,1","4:nogo_d","1",""
"null","","html-keyboard-response","573","714901","0.0-6.0-2.117","","<div style=""font-size:60px;"">+</div>","null","","","","","","",""
"375.4100000078324","","image-keyboard-response","574","715278","0.0-6.0-0.118","","img/purple.png","32","trial","32","true","1,0","3:go_c","",""
"null","","html-keyboard-response","575","716281","0.0-6.0-1.118","","<img src=""img/purple-r.png"" border=""10"">","null","trial","32","","1,0","3:go_c","1",""
"null","","html-keyboard-response","576","717282","0.0-6.0-2.118","","<div style=""font-size:60px;"">+</div>","null","","","","","","",""
"640.7650000182912","","image-keyboard-response","577","717924","0.0-6.0-0.119","","img/grey.png","32","trial","null","false","0.2,0.8","2:nogo_b","",""
"null","","html-keyboard-response","578","718930","0.0-6.0-1.119","","<img src=""img/grey-n.png"" border=""10"">","null","trial","null","","0.2,0.8","2:nogo_b","0",""
"null","","html-keyboard-response","579","719931","0.0-6.0-2.119","","<div style=""font-size:60px;"">+</div>","null","","","","","","",""
"77280.39499997976","","instructions","580","797211","0.0-7.0","[{""page_index"":0,""viewing_time"":77279.86999999848}]","","","","","","","","",""
"1147.079999995185","","image-keyboard-response","581","798361","0.0-8.0-0.0","","img/yellow.png","32","trial","null","false","0.4,0.6","4:nogo_d","",""
"null","","html-keyboard-response","582","799363","0.0-8.0-1.0","","<img src=""img/yellow-n.png"" border=""10"">","null","trial","null","","0.4,0.6","4:nogo_d","0",""
"null","","html-keyboard-response","583","800365","0.0-8.0-2.0","","<div style=""font-size:60px;"">+</div>","null","","","","","","",""
"440.8899999980349","","image-keyboard-response","584","800807","0.0-8.0-0.1","","img/grey.png","32","trial","null","false","0.4,0.6","2:nogo_b","",""
"null","","html-keyboard-response","585","801811","0.0-8.0-1.1","","<img src=""img/grey-n.png"" border=""10"">","null","trial","null","","0.4,0.6","2:nogo_b","0",""
"null","","html-keyboard-response","586","802812","0.0-8.0-2.1","","<div style=""font-size:60px;"">+</div>","null","","","","","","",""
"null","","image-keyboard-response","587","804315","0.0-8.0-0.2","","img/purple.png","null","trial","32","false","0.6,0.4","3:go_c","",""
"null","","html-keyboard-response","588","805321","0.0-8.0-1.2","","<img src=""img/purple-n.png"">","null","trial","32","","0.6,0.4","3:go_c","0",""
"null","","html-keyboard-response","589","806322","0.0-8.0-2.2","","<div style=""font-size:60px;"">+</div>","null","","","","","","",""
"null","","image-keyboard-response","590","807824","0.0-8.0-0.3","","img/green.png","null","trial","32","false","0.6,0.4","1:go_a","",""
"null","","html-keyboard-response","591","808828","0.0-8.0-1.3","","<img src=""img/green-r.png"">","null","trial","32","","0.6,0.4","1:go_a","1",""
"null","","html-keyboard-response","592","809829","0.0-8.0-2.3","","<div style=""font-size:60px;"">+</div>","null","","","","","","",""
"null","","image-keyboard-response","593","811330","0.0-8.0-0.4","","img/purple.png","null","trial","32","false","0.6,0.4","3:go_c","",""
"null","","html-keyboard-response","594","812332","0.0-8.0-1.4","","<img src=""img/purple-n.png"">","null","trial","32","","0.6,0.4","3:go_c","0",""
"null","","html-keyboard-response","595","813334","0.0-8.0-2.4","","<div style=""font-size:60px;"">+</div>","null","","","","","","",""
"null","","image-keyboard-response","596","814835","0.0-8.0-0.5","","img/yellow.png","null","trial","null","true","0.4,0.6","4:nogo_d","",""
"null","","html-keyboard-response","597","815837","0.0-8.0-1.5","","<img src=""img/yellow-r.png"">","null","trial","null","","0.4,0.6","4:nogo_d","1",""
"null","","html-keyboard-response","598","816839","0.0-8.0-2.5","","<div style=""font-size:60px;"">+</div>","null","","","","","","",""
"null","","image-keyboard-response","599","818345","0.0-8.0-0.6","","img/grey.png","null","trial","null","true","0.4,0.6","2:nogo_b","",""
"null","","html-keyboard-response","600","819347","0.0-8.0-1.6","","<img src=""img/grey-r.png"">","null","trial","null","","0.4,0.6","2:nogo_b","1",""
"null","","html-keyboard-response","601","820349","0.0-8.0-2.6","","<div style=""font-size:60px;"">+</div>","null","","","","","","",""
"410.25999997509643","","image-keyboard-response","602","820760","0.0-8.0-0.7","","img/green.png","32","trial","32","true","0.6,0.4","1:go_a","",""
"null","","html-keyboard-response","603","821763","0.0-8.0-1.7","","<img src=""img/green-r.png"" border=""10"">","null","trial","32","","0.6,0.4","1:go_a","1",""
"null","","html-keyboard-response","604","822766","0.0-8.0-2.7","","<div style=""font-size:60px;"">+</div>","null","","","","","","",""
"1174.780000001192","","image-keyboard-response","605","823943","0.0-8.0-0.8","","img/yellow.png","32","trial","null","false","0.4,0.6","4:nogo_d","",""
"null","","html-keyboard-response","606","824956","0.0-8.0-1.8","","<img src=""img/yellow-n.png"" border=""10"">","null","trial","null","","0.4,0.6","4:nogo_d","0",""
"null","","html-keyboard-response","607","825958","0.0-8.0-2.8","","<div style=""font-size:60px;"">+</div>","null","","","","","","",""
"733.074999996461","","image-keyboard-response","608","826693","0.0-8.0-0.9","","img/green.png","32","trial","32","true","0.6,0.4","1:go_a","",""
"null","","html-keyboard-response","609","827695","0.0-8.0-1.9","","<img src=""img/green-r.png"" border=""10"">","null","trial","32","","0.6,0.4","1:go_a","1",""
"null","","html-keyboard-response","610","828696","0.0-8.0-2.9","","<div style=""font-size:60px;"">+</div>","null","","","","","","",""
"null","","image-keyboard-response","611","830199","0.0-8.0-0.10","","img/purple.png","null","trial","32","false","0.6,0.4","3:go_c","",""
"null","","html-keyboard-response","612","831201","0.0-8.0-1.10","","<img src=""img/purple-n.png"">","null","trial","32","","0.6,0.4","3:go_c","0",""
"null","","html-keyboard-response","613","832202","0.0-8.0-2.10","","<div style=""font-size:60px;"">+</div>","null","","","","","","",""
"null","","image-keyboard-response","614","833705","0.0-8.0-0.11","","img/grey.png","null","trial","null","true","0.4,0.6","2:nogo_b","",""
"null","","html-keyboard-response","615","834708","0.0-8.0-1.11","","<img src=""img/grey-n.png"">","null","trial","null","","0.4,0.6","2:nogo_b","0",""
"null","","html-keyboard-response","616","835710","0.0-8.0-2.11","","<div style=""font-size:60px;"">+</div>","null","","","","","","",""
"969.8349999962375","","image-keyboard-response","617","836681","0.0-8.0-0.12","","img/purple.png","32","trial","32","true","0.6,0.4","3:go_c","",""
"null","","html-keyboard-response","618","837684","0.0-8.0-1.12","","<img src=""img/purple-n.png"" border=""10"">","null","trial","32","","0.6,0.4","3:go_c","0",""
"null","","html-keyboard-response","619","838686","0.0-8.0-2.12","","<div style=""font-size:60px;"">+</div>","null","","","","","","",""
"null","","image-keyboard-response","620","840188","0.0-8.0-0.13","","img/yellow.png","null","trial","null","true","0.4,0.6","4:nogo_d","",""
"null","","html-keyboard-response","621","841191","0.0-8.0-1.13","","<img src=""img/yellow-n.png"">","null","trial","null","","0.4,0.6","4:nogo_d","0",""
"null","","html-keyboard-response","622","842195","0.0-8.0-2.13","","<div style=""font-size:60px;"">+</div>","null","","","","","","",""
"919.3350000132341","","image-keyboard-response","623","843115","0.0-8.0-0.14","","img/grey.png","32","trial","null","false","0.4,0.6","2:nogo_b","",""
"null","","html-keyboard-response","624","844118","0.0-8.0-1.14","","<img src=""img/grey-n.png"" border=""10"">","null","trial","null","","0.4,0.6","2:nogo_b","0",""
"null","","html-keyboard-response","625","845119","0.0-8.0-2.14","","<div style=""font-size:60px;"">+</div>","null","","","","","","",""
"386.400000017602","","image-keyboard-response","626","845507","0.0-8.0-0.15","","img/green.png","32","trial","32","true","0.6,0.4","1:go_a","",""
"null","","html-keyboard-response","627","846510","0.0-8.0-1.15","","<img src=""img/green-r.png"" border=""10"">","null","trial","32","","0.6,0.4","1:go_a","1",""
"null","","html-keyboard-response","628","847513","0.0-8.0-2.15","","<div style=""font-size:60px;"">+</div>","null","","","","","","",""
"541.6350000014063","","image-keyboard-response","629","848055","0.0-8.0-0.16","","img/grey.png","32","trial","null","false","0.4,0.6","2:nogo_b","",""
"null","","html-keyboard-response","630","849059","0.0-8.0-1.16","","<img src=""img/grey-n.png"" border=""10"">","null","trial","null","","0.4,0.6","2:nogo_b","0",""
"null","","html-keyboard-response","631","850061","0.0-8.0-2.16","","<div style=""font-size:60px;"">+</div>","null","","","","","","",""
"383.93000001087785","","image-keyboard-response","632","850446","0.0-8.0-0.17","","img/purple.png","32","trial","32","true","0.6,0.4","3:go_c","",""
"null","","html-keyboard-response","633","851449","0.0-8.0-1.17","","<img src=""img/purple-r.png"" border=""10"">","null","trial","32","","0.6,0.4","3:go_c","1",""
"null","","html-keyboard-response","634","852451","0.0-8.0-2.17","","<div style=""font-size:60px;"">+</div>","null","","","","","","",""
"605.4250000161119","","image-keyboard-response","635","853057","0.0-8.0-0.18","","img/yellow.png","32","trial","null","false","0.4,0.6","4:nogo_d","",""
"null","","html-keyboard-response","636","854060","0.0-8.0-1.18","","<img src=""img/yellow-r.png"" border=""10"">","null","trial","null","","0.4,0.6","4:nogo_d","1",""
"null","","html-keyboard-response","637","855063","0.0-8.0-2.18","","<div style=""font-size:60px;"">+</div>","null","","","","","","",""
"324.9849999847356","","image-keyboard-response","638","855390","0.0-8.0-0.19","","img/green.png","32","trial","32","true","0.6,0.4","1:go_a","",""
"null","","html-keyboard-response","639","856393","0.0-8.0-1.19","","<img src=""img/green-r.png"" border=""10"">","null","trial","32","","0.6,0.4","1:go_a","1",""
"null","","html-keyboard-response","640","857395","0.0-8.0-2.19","","<div style=""font-size:60px;"">+</div>","null","","","","","","",""
"702.1499999973457","","image-keyboard-response","641","858100","0.0-8.0-0.20","","img/green.png","32","trial","32","true","0.6,0.4","1:go_a","",""
"null","","html-keyboard-response","642","859103","0.0-8.0-1.20","","<img src=""img/green-n.png"" border=""10"">","null","trial","32","","0.6,0.4","1:go_a","0",""
"null","","html-keyboard-response","643","860105","0.0-8.0-2.20","","<div style=""font-size:60px;"">+</div>","null","","","","","","",""
"null","","image-keyboard-response","644","861607","0.0-8.0-0.21","","img/yellow.png","null","trial","null","true","0.4,0.6","4:nogo_d","",""
"null","","html-keyboard-response","645","862611","0.0-8.0-1.21","","<img src=""img/yellow-r.png"">","null","trial","null","","0.4,0.6","4:nogo_d","1",""
"null","","html-keyboard-response","646","863612","0.0-8.0-2.21","","<div style=""font-size:60px;"">+</div>","null","","","","","","",""
"null","","image-keyboard-response","647","865115","0.0-8.0-0.22","","img/grey.png","null","trial","null","true","0.4,0.6","2:nogo_b","",""
"null","","html-keyboard-response","648","866117","0.0-8.0-1.22","","<img src=""img/grey-n.png"">","null","trial","null","","0.4,0.6","2:nogo_b","0",""
"null","","html-keyboard-response","649","867120","0.0-8.0-2.22","","<div style=""font-size:60px;"">+</div>","null","","","","","","",""
"null","","image-keyboard-response","650","868621","0.0-8.0-0.23","","img/purple.png","null","trial","32","false","0.6,0.4","3:go_c","",""
"null","","html-keyboard-response","651","869624","0.0-8.0-1.23","","<img src=""img/purple-n.png"">","null","trial","32","","0.6,0.4","3:go_c","0",""
"null","","html-keyboard-response","652","870625","0.0-8.0-2.23","","<div style=""font-size:60px;"">+</div>","null","","","","","","",""
"null","","image-keyboard-response","653","872126","0.0-8.0-0.24","","img/grey.png","null","trial","null","true","0.4,0.6","2:nogo_b","",""
"null","","html-keyboard-response","654","873130","0.0-8.0-1.24","","<img src=""img/grey-r.png"">","null","trial","null","","0.4,0.6","2:nogo_b","1",""
"null","","html-keyboard-response","655","874132","0.0-8.0-2.24","","<div style=""font-size:60px;"">+</div>","null","","","","","","",""
"447.60000001406297","","image-keyboard-response","656","874581","0.0-8.0-0.25","","img/purple.png","32","trial","32","true","0.6,0.4","3:go_c","",""
"null","","html-keyboard-response","657","875584","0.0-8.0-1.25","","<img src=""img/purple-r.png"" border=""10"">","null","trial","32","","0.6,0.4","3:go_c","1",""
"null","","html-keyboard-response","658","876585","0.0-8.0-2.25","","<div style=""font-size:60px;"">+</div>","null","","","","","","",""
"349.68999997363426","","image-keyboard-response","659","876936","0.0-8.0-0.26","","img/yellow.png","32","trial","null","false","0.4,0.6","4:nogo_d","",""
"null","","html-keyboard-response","660","877939","0.0-8.0-1.26","","<img src=""img/yellow-n.png"" border=""10"">","null","trial","null","","0.4,0.6","4:nogo_d","0",""
"null","","html-keyboard-response","661","878941","0.0-8.0-2.26","","<div style=""font-size:60px;"">+</div>","null","","","","","","",""
"null","","image-keyboard-response","662","880444","0.0-8.0-0.27","","img/green.png","null","trial","32","false","0.6,0.4","1:go_a","",""
"null","","html-keyboard-response","663","881446","0.0-8.0-1.27","","<img src=""img/green-r.png"">","null","trial","32","","0.6,0.4","1:go_a","1",""
"null","","html-keyboard-response","664","882447","0.0-8.0-2.27","","<div style=""font-size:60px;"">+</div>","null","","","","","","",""
"null","","image-keyboard-response","665","883949","0.0-8.0-0.28","","img/grey.png","null","trial","null","true","0.4,0.6","2:nogo_b","",""
"null","","html-keyboard-response","666","884953","0.0-8.0-1.28","","<img src=""img/grey-n.png"">","null","trial","null","","0.4,0.6","2:nogo_b","0",""
"null","","html-keyboard-response","667","885954","0.0-8.0-2.28","","<div style=""font-size:60px;"">+</div>","null","","","","","","",""
"351.1149999976624","","image-keyboard-response","668","886307","0.0-8.0-0.29","","img/purple.png","32","trial","32","true","0.6,0.4","3:go_c","",""
"null","","html-keyboard-response","669","887309","0.0-8.0-1.29","","<img src=""img/purple-n.png"" border=""10"">","null","trial","32","","0.6,0.4","3:go_c","0",""
"null","","html-keyboard-response","670","888311","0.0-8.0-2.29","","<div style=""font-size:60px;"">+</div>","null","","","","","","",""
"884.0750000090338","","image-keyboard-response","671","889196","0.0-8.0-0.30","","img/green.png","32","trial","32","true","0.6,0.4","1:go_a","",""
"null","","html-keyboard-response","672","890198","0.0-8.0-1.30","","<img src=""img/green-n.png"" border=""10"">","null","trial","32","","0.6,0.4","1:go_a","0",""
"null","","html-keyboard-response","673","891200","0.0-8.0-2.30","","<div style=""font-size:60px;"">+</div>","null","","","","","","",""
"null","","image-keyboard-response","674","892702","0.0-8.0-0.31","","img/yellow.png","null","trial","null","true","0.4,0.6","4:nogo_d","",""
"null","","html-keyboard-response","675","893704","0.0-8.0-1.31","","<img src=""img/yellow-r.png"">","null","trial","null","","0.4,0.6","4:nogo_d","1",""
"null","","html-keyboard-response","676","894706","0.0-8.0-2.31","","<div style=""font-size:60px;"">+</div>","null","","","","","","",""
"null","","image-keyboard-response","677","896208","0.0-8.0-0.32","","img/yellow.png","null","trial","null","true","0.4,0.6","4:nogo_d","",""
"null","","html-keyboard-response","678","897213","0.0-8.0-1.32","","<img src=""img/yellow-r.png"">","null","trial","null","","0.4,0.6","4:nogo_d","1",""
"null","","html-keyboard-response","679","898216","0.0-8.0-2.32","","<div style=""font-size:60px;"">+</div>","null","","","","","","",""
"null","","image-keyboard-response","680","899719","0.0-8.0-0.33","","img/grey.png","null","trial","null","true","0.4,0.6","2:nogo_b","",""
"null","","html-keyboard-response","681","900723","0.0-8.0-1.33","","<img src=""img/grey-r.png"">","null","trial","null","","0.4,0.6","2:nogo_b","1",""
"null","","html-keyboard-response","682","901725","0.0-8.0-2.33","","<div style=""font-size:60px;"">+</div>","null","","","","","","",""
