"rt","url","trial_type","trial_index","time_elapsed","internal_node_id","view_history","stimulus","key_press","test_part","correct_response","correct","use_rew","which_stim","reward","responses"
"7942.219999997178","consent.html","external-html","0","8049","0.0-0.0","","","","","","","","","",""
"469578.8750000065","","instructions","1","477615","0.0-1.0","[{""page_index"":0,""viewing_time"":3378.610000014305},{""page_index"":1,""viewing_time"":386146.6899999941},{""page_index"":2,""viewing_time"":6120.034999999916},{""page_index"":3,""viewing_time"":26477.874999982305},{""page_index"":4,""viewing_time"":11385.060000000522},{""page_index"":5,""viewing_time"":10501.115000020945},{""page_index"":6,""viewing_time"":25566.829999996116}]","","","","","","","","",""
"null","","image-keyboard-response","2","479121","0.0-2.0-0.0","","img/test3.PNG","null","practice","null","true","","","",""
"null","","html-keyboard-response","3","480125","0.0-2.0-1.0","","<img src=""img/test3-reward.PNG"">","null","","","","","","",""
"null","","html-keyboard-response","4","481129","0.0-2.0-2.0","","<div style=""font-size:60px;"">+</div>","null","","","","","","",""
"562.1849999879487","","image-keyboard-response","5","481692","0.0-2.0-0.1","","img/test1.PNG","32","practice","32","true","","","",""
"null","","html-keyboard-response","6","482696","0.0-2.0-1.1","","<img src=""img/test1-reward.PNG"" border=""10px; grey"">","null","","","","","","",""
"null","","html-keyboard-response","7","483701","0.0-2.0-2.1","","<div style=""font-size:60px;"">+</div>","null","","","","","","",""
"null","","image-keyboard-response","8","485204","0.0-2.0-0.2","","img/test2.PNG","null","practice","null","true","","","",""
"null","","html-keyboard-response","9","486208","0.0-2.0-1.2","","<img src=""img/test2-reward.PNG"">","null","","","","","","",""
"null","","html-keyboard-response","10","487212","0.0-2.0-2.2","","<div style=""font-size:60px;"">+</div>","null","","","","","","",""
"750.2500000118744","","image-keyboard-response","11","487963","0.0-2.0-0.3","","img/test3.PNG","32","practice","null","false","","","",""
"null","","html-keyboard-response","12","488965","0.0-2.0-1.3","","<img src=""img/test3-neutral.PNG"" border=""10px; grey"">","null","","","","","","",""
"null","","html-keyboard-response","13","489970","0.0-2.0-2.3","","<div style=""font-size:60px;"">+</div>","null","","","","","","",""
"512.2149999951944","","image-keyboard-response","14","490483","0.0-2.0-0.4","","img/test1.PNG","32","practice","32","true","","","",""
"null","","html-keyboard-response","15","491487","0.0-2.0-1.4","","<img src=""img/test1-reward.PNG"" border=""10px; grey"">","null","","","","","","",""
"null","","html-keyboard-response","16","492489","0.0-2.0-2.4","","<div style=""font-size:60px;"">+</div>","null","","","","","","",""
"433.4950000047684","","image-keyboard-response","17","492923","0.0-2.0-0.5","","img/test2.PNG","32","practice","null","false","","","",""
"null","","html-keyboard-response","18","493927","0.0-2.0-1.5","","<img src=""img/test2-neutral.PNG"" border=""10px; grey"">","null","","","","","","",""
"null","","html-keyboard-response","19","494928","0.0-2.0-2.5","","<div style=""font-size:60px;"">+</div>","null","","","","","","",""
"null","","image-keyboard-response","20","496430","0.0-2.0-0.6","","img/test3.PNG","null","practice","null","true","","","",""
"null","","html-keyboard-response","21","497435","0.0-2.0-1.6","","<img src=""img/test3-reward.PNG"">","null","","","","","","",""
"null","","html-keyboard-response","22","498436","0.0-2.0-2.6","","<div style=""font-size:60px;"">+</div>","null","","","","","","",""
"null","","image-keyboard-response","23","499937","0.0-2.0-0.7","","img/test2.PNG","null","practice","null","true","","","",""
"null","","html-keyboard-response","24","500937","0.0-2.0-1.7","","<img src=""img/test2-reward.PNG"">","null","","","","","","",""
"null","","html-keyboard-response","25","501939","0.0-2.0-2.7","","<div style=""font-size:60px;"">+</div>","null","","","","","","",""
"542.8250000113621","","image-keyboard-response","26","502483","0.0-2.0-0.8","","img/test1.PNG","32","practice","32","true","","","",""
"null","","html-keyboard-response","27","503486","0.0-2.0-1.8","","<img src=""img/test1-reward.PNG"" border=""10px; grey"">","null","","","","","","",""
"null","","html-keyboard-response","28","504487","0.0-2.0-2.8","","<div style=""font-size:60px;"">+</div>","null","","","","","","",""
"null","","image-keyboard-response","29","505991","0.0-2.0-0.9","","img/test3.PNG","null","practice","null","true","","","",""
"null","","html-keyboard-response","30","506995","0.0-2.0-1.9","","<img src=""img/test3-reward.PNG"">","null","","","","","","",""
"null","","html-keyboard-response","31","508000","0.0-2.0-2.9","","<div style=""font-size:60px;"">+</div>","null","","","","","","",""
"706.3649999909103","","image-keyboard-response","32","508707","0.0-2.0-0.10","","img/test1.PNG","32","practice","32","true","","","",""
"null","","html-keyboard-response","33","509708","0.0-2.0-1.10","","<img src=""img/test1-reward.PNG"" border=""10px; grey"">","null","","","","","","",""
"null","","html-keyboard-response","34","510710","0.0-2.0-2.10","","<div style=""font-size:60px;"">+</div>","null","","","","","","",""
"587.4149999872316","","image-keyboard-response","35","511298","0.0-2.0-0.11","","img/test2.PNG","32","practice","null","false","","","",""
"null","","html-keyboard-response","36","512301","0.0-2.0-1.11","","<img src=""img/test2-neutral.PNG"" border=""10px; grey"">","null","","","","","","",""
"null","","html-keyboard-response","37","513304","0.0-2.0-2.11","","<div style=""font-size:60px;"">+</div>","null","","","","","","",""
"1595.434999995632","","instructions","38","514900","0.0-3.0","[{""page_index"":0,""viewing_time"":1595.2899999974761}]","","","","","","","","",""
"1245.085000002291","","image-keyboard-response","39","516146","0.0-4.0-0.0","","img/orange.png","32","trial","32","true","0.8,0.2","1:go_a","",""
"null","","html-keyboard-response","40","517148","0.0-4.0-1.0","","<img src=""img/orange-r.png"" border=""10"">","null","trial","32","","0.8,0.2","1:go_a","1",""
"null","","html-keyboard-response","41","518152","0.0-4.0-2.0","","<div style=""font-size:60px;"">+</div>","null","","","","","","",""
"625.4099999787286","","image-keyboard-response","42","518778","0.0-4.0-0.1","","img/purple.png","32","trial","null","false","0.2,0.8","2:nogo_b","",""
"null","","html-keyboard-response","43","519783","0.0-4.0-1.1","","<img src=""img/purple-n.png"" border=""10"">","null","trial","null","","0.2,0.8","2:nogo_b","0",""
"null","","html-keyboard-response","44","520787","0.0-4.0-2.1","","<div style=""font-size:60px;"">+</div>","null","","","","","","",""
"605.6999999855179","","image-keyboard-response","45","521394","0.0-4.0-0.2","","img/orange.png","32","trial","32","true","0.8,0.2","1:go_a","",""
"null","","html-keyboard-response","46","522396","0.0-4.0-1.2","","<img src=""img/orange-r.png"" border=""10"">","null","trial","32","","0.8,0.2","1:go_a","1",""
"null","","html-keyboard-response","47","523400","0.0-4.0-2.2","","<div style=""font-size:60px;"">+</div>","null","","","","","","",""
"972.6950000040233","","image-keyboard-response","48","524373","0.0-4.0-0.3","","img/purple.png","32","trial","null","false","0.2,0.8","2:nogo_b","",""
"null","","html-keyboard-response","49","525374","0.0-4.0-1.3","","<img src=""img/purple-n.png"" border=""10"">","null","trial","null","","0.2,0.8","2:nogo_b","0",""
"null","","html-keyboard-response","50","526377","0.0-4.0-2.3","","<div style=""font-size:60px;"">+</div>","null","","","","","","",""
"551.3849999988452","","image-keyboard-response","51","526929","0.0-4.0-0.4","","img/orange.png","32","trial","32","true","0.8,0.2","1:go_a","",""
"null","","html-keyboard-response","52","527933","0.0-4.0-1.4","","<img src=""img/orange-r.png"" border=""10"">","null","trial","32","","0.8,0.2","1:go_a","1",""
"null","","html-keyboard-response","53","528938","0.0-4.0-2.4","","<div style=""font-size:60px;"">+</div>","null","","","","","","",""
"798.6450000025798","","image-keyboard-response","54","529737","0.0-4.0-0.5","","img/purple.png","32","trial","null","false","0.2,0.8","2:nogo_b","",""
"null","","html-keyboard-response","55","530739","0.0-4.0-1.5","","<img src=""img/purple-n.png"" border=""10"">","null","trial","null","","0.2,0.8","2:nogo_b","0",""
"null","","html-keyboard-response","56","531741","0.0-4.0-2.5","","<div style=""font-size:60px;"">+</div>","null","","","","","","",""
"null","","image-keyboard-response","57","533244","0.0-4.0-0.6","","img/purple.png","null","trial","null","true","0.2,0.8","2:nogo_b","",""
"null","","html-keyboard-response","58","534249","0.0-4.0-1.6","","<img src=""img/purple-n.png"">","null","trial","null","","0.2,0.8","2:nogo_b","0",""
"null","","html-keyboard-response","59","535252","0.0-4.0-2.6","","<div style=""font-size:60px;"">+</div>","null","","","","","","",""
"412.544999999227","","image-keyboard-response","60","535666","0.0-4.0-0.7","","img/orange.png","32","trial","32","true","0.8,0.2","1:go_a","",""
"null","","html-keyboard-response","61","536669","0.0-4.0-1.7","","<img src=""img/orange-r.png"" border=""10"">","null","trial","32","","0.8,0.2","1:go_a","1",""
"null","","html-keyboard-response","62","537674","0.0-4.0-2.7","","<div style=""font-size:60px;"">+</div>","null","","","","","","",""
"null","","image-keyboard-response","63","539177","0.0-4.0-0.8","","img/purple.png","null","trial","null","true","0.2,0.8","2:nogo_b","",""
"null","","html-keyboard-response","64","540181","0.0-4.0-1.8","","<img src=""img/purple-r.png"">","null","trial","null","","0.2,0.8","2:nogo_b","1",""
"null","","html-keyboard-response","65","541186","0.0-4.0-2.8","","<div style=""font-size:60px;"">+</div>","null","","","","","","",""
"502.9849999991711","","image-keyboard-response","66","541689","0.0-4.0-0.9","","img/orange.png","32","trial","32","true","0.8,0.2","1:go_a","",""
"null","","html-keyboard-response","67","542695","0.0-4.0-1.9","","<img src=""img/orange-n.png"" border=""10"">","null","trial","32","","0.8,0.2","1:go_a","0",""
"null","","html-keyboard-response","68","543697","0.0-4.0-2.9","","<div style=""font-size:60px;"">+</div>","null","","","","","","",""
"575.764999986859","","image-keyboard-response","69","544273","0.0-4.0-0.10","","img/purple.png","32","trial","null","false","0.2,0.8","2:nogo_b","",""
"null","","html-keyboard-response","70","545278","0.0-4.0-1.10","","<img src=""img/purple-n.png"" border=""10"">","null","trial","null","","0.2,0.8","2:nogo_b","0",""
"null","","html-keyboard-response","71","546282","0.0-4.0-2.10","","<div style=""font-size:60px;"">+</div>","null","","","","","","",""
"606.3549999962561","","image-keyboard-response","72","546889","0.0-4.0-0.11","","img/orange.png","32","trial","32","true","0.8,0.2","1:go_a","",""
"null","","html-keyboard-response","73","547890","0.0-4.0-1.11","","<img src=""img/orange-r.png"" border=""10"">","null","trial","32","","0.8,0.2","1:go_a","1",""
"null","","html-keyboard-response","74","548894","0.0-4.0-2.11","","<div style=""font-size:60px;"">+</div>","null","","","","","","",""
"642.0750000106636","","image-keyboard-response","75","549537","0.0-4.0-0.12","","img/orange.png","32","trial","32","true","0.8,0.2","1:go_a","",""
"null","","html-keyboard-response","76","550543","0.0-4.0-1.12","","<img src=""img/orange-r.png"" border=""10"">","null","trial","32","","0.8,0.2","1:go_a","1",""
"null","","html-keyboard-response","77","551547","0.0-4.0-2.12","","<div style=""font-size:60px;"">+</div>","null","","","","","","",""
"null","","image-keyboard-response","78","553051","0.0-4.0-0.13","","img/purple.png","null","trial","null","true","0.2,0.8","2:nogo_b","",""
"null","","html-keyboard-response","79","554055","0.0-4.0-1.13","","<img src=""img/purple-r.png"">","null","trial","null","","0.2,0.8","2:nogo_b","1",""
"null","","html-keyboard-response","80","555059","0.0-4.0-2.13","","<div style=""font-size:60px;"">+</div>","null","","","","","","",""
"517.2550000133924","","image-keyboard-response","81","555577","0.0-4.0-0.14","","img/orange.png","32","trial","32","true","0.8,0.2","1:go_a","",""
"null","","html-keyboard-response","82","556580","0.0-4.0-1.14","","<img src=""img/orange-n.png"" border=""10"">","null","trial","32","","0.8,0.2","1:go_a","0",""
"null","","html-keyboard-response","83","557584","0.0-4.0-2.14","","<div style=""font-size:60px;"">+</div>","null","","","","","","",""
"488.0200000188779","","image-keyboard-response","84","558073","0.0-4.0-0.15","","img/purple.png","32","trial","null","false","0.2,0.8","2:nogo_b","",""
"null","","html-keyboard-response","85","559075","0.0-4.0-1.15","","<img src=""img/purple-n.png"" border=""10"">","null","trial","null","","0.2,0.8","2:nogo_b","0",""
"null","","html-keyboard-response","86","560080","0.0-4.0-2.15","","<div style=""font-size:60px;"">+</div>","null","","","","","","",""
"624.3800000229385","","image-keyboard-response","87","560705","0.0-4.0-0.16","","img/orange.png","32","trial","32","true","0.8,0.2","1:go_a","",""
"null","","html-keyboard-response","88","561706","0.0-4.0-1.16","","<img src=""img/orange-r.png"" border=""10"">","null","trial","32","","0.8,0.2","1:go_a","1",""
"null","","html-keyboard-response","89","562710","0.0-4.0-2.16","","<div style=""font-size:60px;"">+</div>","null","","","","","","",""
"null","","image-keyboard-response","90","564213","0.0-4.0-0.17","","img/purple.png","null","trial","null","true","0.2,0.8","2:nogo_b","",""
"null","","html-keyboard-response","91","565217","0.0-4.0-1.17","","<img src=""img/purple-r.png"">","null","trial","null","","0.2,0.8","2:nogo_b","1",""
"null","","html-keyboard-response","92","566221","0.0-4.0-2.17","","<div style=""font-size:60px;"">+</div>","null","","","","","","",""
"null","","image-keyboard-response","93","567722","0.0-4.0-0.18","","img/purple.png","null","trial","null","true","0.2,0.8","2:nogo_b","",""
"null","","html-keyboard-response","94","568724","0.0-4.0-1.18","","<img src=""img/purple-r.png"">","null","trial","null","","0.2,0.8","2:nogo_b","1",""
"null","","html-keyboard-response","95","569724","0.0-4.0-2.18","","<div style=""font-size:60px;"">+</div>","null","","","","","","",""
"347.50000000349246","","image-keyboard-response","96","570072","0.0-4.0-0.19","","img/orange.png","32","trial","32","true","0.8,0.2","1:go_a","",""
"null","","html-keyboard-response","97","571075","0.0-4.0-1.19","","<img src=""img/orange-r.png"" border=""10"">","null","trial","32","","0.8,0.2","1:go_a","1",""
"null","","html-keyboard-response","98","572079","0.0-4.0-2.19","","<div style=""font-size:60px;"">+</div>","null","","","","","","",""
"681.060000002617","","image-keyboard-response","99","572760","0.0-4.0-0.20","","img/purple.png","32","trial","null","false","0.2,0.8","2:nogo_b","",""
"null","","html-keyboard-response","100","573761","0.0-4.0-1.20","","<img src=""img/purple-n.png"" border=""10"">","null","trial","null","","0.2,0.8","2:nogo_b","0",""
"null","","html-keyboard-response","101","574766","0.0-4.0-2.20","","<div style=""font-size:60px;"">+</div>","null","","","","","","",""
"529.4649999996182","","image-keyboard-response","102","575296","0.0-4.0-0.21","","img/orange.png","32","trial","32","true","0.8,0.2","1:go_a","",""
"null","","html-keyboard-response","103","576299","0.0-4.0-1.21","","<img src=""img/orange-r.png"" border=""10"">","null","trial","32","","0.8,0.2","1:go_a","1",""
"null","","html-keyboard-response","104","577302","0.0-4.0-2.21","","<div style=""font-size:60px;"">+</div>","null","","","","","","",""
"490.4099999985192","","image-keyboard-response","105","577793","0.0-4.0-0.22","","img/orange.png","32","trial","32","true","0.8,0.2","1:go_a","",""
"null","","html-keyboard-response","106","578795","0.0-4.0-1.22","","<img src=""img/orange-r.png"" border=""10"">","null","trial","32","","0.8,0.2","1:go_a","1",""
"null","","html-keyboard-response","107","579799","0.0-4.0-2.22","","<div style=""font-size:60px;"">+</div>","null","","","","","","",""
"null","","image-keyboard-response","108","581302","0.0-4.0-0.23","","img/purple.png","null","trial","null","true","0.2,0.8","2:nogo_b","",""
"null","","html-keyboard-response","109","582307","0.0-4.0-1.23","","<img src=""img/purple-r.png"">","null","trial","null","","0.2,0.8","2:nogo_b","1",""
"null","","html-keyboard-response","110","583311","0.0-4.0-2.23","","<div style=""font-size:60px;"">+</div>","null","","","","","","",""
"null","","image-keyboard-response","111","584814","0.0-4.0-0.24","","img/purple.png","null","trial","null","true","0.2,0.8","2:nogo_b","",""
"null","","html-keyboard-response","112","585819","0.0-4.0-1.24","","<img src=""img/purple-r.png"">","null","trial","null","","0.2,0.8","2:nogo_b","1",""
"null","","html-keyboard-response","113","586825","0.0-4.0-2.24","","<div style=""font-size:60px;"">+</div>","null","","","","","","",""
"521.6700000164565","","image-keyboard-response","114","587347","0.0-4.0-0.25","","img/orange.png","32","trial","32","true","0.8,0.2","1:go_a","",""
"null","","html-keyboard-response","115","588350","0.0-4.0-1.25","","<img src=""img/orange-r.png"" border=""10"">","null","trial","32","","0.8,0.2","1:go_a","1",""
"null","","html-keyboard-response","116","589353","0.0-4.0-2.25","","<div style=""font-size:60px;"">+</div>","null","","","","","","",""
"null","","image-keyboard-response","117","590857","0.0-4.0-0.26","","img/purple.png","null","trial","null","true","0.2,0.8","2:nogo_b","",""
"null","","html-keyboard-response","118","591858","0.0-4.0-1.26","","<img src=""img/purple-n.png"">","null","trial","null","","0.2,0.8","2:nogo_b","0",""
"null","","html-keyboard-response","119","592860","0.0-4.0-2.26","","<div style=""font-size:60px;"">+</div>","null","","","","","","",""
"747.7249999938067","","image-keyboard-response","120","593608","0.0-4.0-0.27","","img/orange.png","32","trial","32","true","0.8,0.2","1:go_a","",""
"null","","html-keyboard-response","121","594609","0.0-4.0-1.27","","<img src=""img/orange-r.png"" border=""10"">","null","trial","32","","0.8,0.2","1:go_a","1",""
"null","","html-keyboard-response","122","595611","0.0-4.0-2.27","","<div style=""font-size:60px;"">+</div>","null","","","","","","",""
"787.4900000169873","","image-keyboard-response","123","596399","0.0-4.0-0.28","","img/purple.png","32","trial","null","false","0.2,0.8","2:nogo_b","",""
"null","","html-keyboard-response","124","597402","0.0-4.0-1.28","","<img src=""img/purple-n.png"" border=""10"">","null","trial","null","","0.2,0.8","2:nogo_b","0",""
"null","","html-keyboard-response","125","598406","0.0-4.0-2.28","","<div style=""font-size:60px;"">+</div>","null","","","","","","",""
"632.8100000100676","","image-keyboard-response","126","599039","0.0-4.0-0.29","","img/orange.png","32","trial","32","true","0.8,0.2","1:go_a","",""
"null","","html-keyboard-response","127","600041","0.0-4.0-1.29","","<img src=""img/orange-r.png"" border=""10"">","null","trial","32","","0.8,0.2","1:go_a","1",""
"null","","html-keyboard-response","128","601044","0.0-4.0-2.29","","<div style=""font-size:60px;"">+</div>","null","","","","","","",""
"835.2899999881629","","image-keyboard-response","129","601880","0.0-4.0-0.30","","img/purple.png","32","trial","null","false","0.2,0.8","2:nogo_b","",""
"null","","html-keyboard-response","130","602882","0.0-4.0-1.30","","<img src=""img/purple-n.png"" border=""10"">","null","trial","null","","0.2,0.8","2:nogo_b","0",""
"null","","html-keyboard-response","131","603884","0.0-4.0-2.30","","<div style=""font-size:60px;"">+</div>","null","","","","","","",""
"610.3350000048522","","image-keyboard-response","132","604495","0.0-4.0-0.31","","img/orange.png","32","trial","32","true","0.8,0.2","1:go_a","",""
"null","","html-keyboard-response","133","605496","0.0-4.0-1.31","","<img src=""img/orange-r.png"" border=""10"">","null","trial","32","","0.8,0.2","1:go_a","1",""
"null","","html-keyboard-response","134","606501","0.0-4.0-2.31","","<div style=""font-size:60px;"">+</div>","null","","","","","","",""
"null","","image-keyboard-response","135","608005","0.0-4.0-0.32","","img/purple.png","null","trial","null","true","0.2,0.8","2:nogo_b","",""
"null","","html-keyboard-response","136","609009","0.0-4.0-1.32","","<img src=""img/purple-r.png"">","null","trial","null","","0.2,0.8","2:nogo_b","1",""
"null","","html-keyboard-response","137","610013","0.0-4.0-2.32","","<div style=""font-size:60px;"">+</div>","null","","","","","","",""
"529.8299999849405","","image-keyboard-response","138","610543","0.0-4.0-0.33","","img/orange.png","32","trial","32","true","0.8,0.2","1:go_a","",""
"null","","html-keyboard-response","139","611546","0.0-4.0-1.33","","<img src=""img/orange-n.png"" border=""10"">","null","trial","32","","0.8,0.2","1:go_a","0",""
"null","","html-keyboard-response","140","612550","0.0-4.0-2.33","","<div style=""font-size:60px;"">+</div>","null","","","","","","",""
"440.6099999905564","","image-keyboard-response","141","612991","0.0-4.0-0.34","","img/orange.png","32","trial","32","true","0.8,0.2","1:go_a","",""
"null","","html-keyboard-response","142","613995","0.0-4.0-1.34","","<img src=""img/orange-r.png"" border=""10"">","null","trial","32","","0.8,0.2","1:go_a","1",""
"null","","html-keyboard-response","143","614999","0.0-4.0-2.34","","<div style=""font-size:60px;"">+</div>","null","","","","","","",""
"1431.6950000065845","","image-keyboard-response","144","616431","0.0-4.0-0.35","","img/purple.png","32","trial","null","false","0.2,0.8","2:nogo_b","",""
"null","","html-keyboard-response","145","617432","0.0-4.0-1.35","","<img src=""img/purple-n.png"" border=""10"">","null","trial","null","","0.2,0.8","2:nogo_b","0",""
"null","","html-keyboard-response","146","618436","0.0-4.0-2.35","","<div style=""font-size:60px;"">+</div>","null","","","","","","",""
"1282.519999978831","","image-keyboard-response","147","619719","0.0-4.0-0.36","","img/purple.png","32","trial","null","false","0.2,0.8","2:nogo_b","",""
"null","","html-keyboard-response","148","620722","0.0-4.0-1.36","","<img src=""img/purple-n.png"" border=""10"">","null","trial","null","","0.2,0.8","2:nogo_b","0",""
"null","","html-keyboard-response","149","621727","0.0-4.0-2.36","","<div style=""font-size:60px;"">+</div>","null","","","","","","",""
"567.3450000176672","","image-keyboard-response","150","622295","0.0-4.0-0.37","","img/orange.png","32","trial","32","true","0.8,0.2","1:go_a","",""
"null","","html-keyboard-response","151","623297","0.0-4.0-1.37","","<img src=""img/orange-r.png"" border=""10"">","null","trial","32","","0.8,0.2","1:go_a","1",""
"null","","html-keyboard-response","152","624298","0.0-4.0-2.37","","<div style=""font-size:60px;"">+</div>","null","","","","","","",""
"387.7400000055786","","image-keyboard-response","153","624687","0.0-4.0-0.38","","img/purple.png","32","trial","null","false","0.2,0.8","2:nogo_b","",""
"null","","html-keyboard-response","154","625691","0.0-4.0-1.38","","<img src=""img/purple-n.png"" border=""10"">","null","trial","null","","0.2,0.8","2:nogo_b","0",""
"null","","html-keyboard-response","155","626696","0.0-4.0-2.38","","<div style=""font-size:60px;"">+</div>","null","","","","","","",""
"446.67000000481494","","image-keyboard-response","156","627143","0.0-4.0-0.39","","img/orange.png","32","trial","32","true","0.8,0.2","1:go_a","",""
"null","","html-keyboard-response","157","628145","0.0-4.0-1.39","","<img src=""img/orange-r.png"" border=""10"">","null","trial","32","","0.8,0.2","1:go_a","1",""
"null","","html-keyboard-response","158","629146","0.0-4.0-2.39","","<div style=""font-size:60px;"">+</div>","null","","","","","","",""
"null","","image-keyboard-response","159","630649","0.0-4.0-0.40","","img/purple.png","null","trial","null","true","0.2,0.8","2:nogo_b","",""
"null","","html-keyboard-response","160","631654","0.0-4.0-1.40","","<img src=""img/purple-n.png"">","null","trial","null","","0.2,0.8","2:nogo_b","0",""
"null","","html-keyboard-response","161","632658","0.0-4.0-2.40","","<div style=""font-size:60px;"">+</div>","null","","","","","","",""
"444.30500001180917","","image-keyboard-response","162","633103","0.0-4.0-0.41","","img/orange.png","32","trial","32","true","0.8,0.2","1:go_a","",""
"null","","html-keyboard-response","163","634108","0.0-4.0-1.41","","<img src=""img/orange-r.png"" border=""10"">","null","trial","32","","0.8,0.2","1:go_a","1",""
"null","","html-keyboard-response","164","635109","0.0-4.0-2.41","","<div style=""font-size:60px;"">+</div>","null","","","","","","",""
"null","","image-keyboard-response","165","636610","0.0-4.0-0.42","","img/purple.png","null","trial","null","true","0.2,0.8","2:nogo_b","",""
"null","","html-keyboard-response","166","637615","0.0-4.0-1.42","","<img src=""img/purple-n.png"">","null","trial","null","","0.2,0.8","2:nogo_b","0",""
"null","","html-keyboard-response","167","638619","0.0-4.0-2.42","","<div style=""font-size:60px;"">+</div>","null","","","","","","",""
"418.34500001277775","","image-keyboard-response","168","639038","0.0-4.0-0.43","","img/orange.png","32","trial","32","true","0.8,0.2","1:go_a","",""
"null","","html-keyboard-response","169","640042","0.0-4.0-1.43","","<img src=""img/orange-r.png"" border=""10"">","null","trial","32","","0.8,0.2","1:go_a","1",""
"null","","html-keyboard-response","170","641046","0.0-4.0-2.43","","<div style=""font-size:60px;"">+</div>","null","","","","","","",""
"1351.9049999886192","","image-keyboard-response","171","642398","0.0-4.0-0.44","","img/purple.png","32","trial","null","false","0.2,0.8","2:nogo_b","",""
"null","","html-keyboard-response","172","643402","0.0-4.0-1.44","","<img src=""img/purple-n.png"" border=""10"">","null","trial","null","","0.2,0.8","2:nogo_b","0",""
"null","","html-keyboard-response","173","644406","0.0-4.0-2.44","","<div style=""font-size:60px;"">+</div>","null","","","","","","",""
"1007.0750000013504","","image-keyboard-response","174","645414","0.0-4.0-0.45","","img/orange.png","32","trial","32","true","0.8,0.2","1:go_a","",""
"null","","html-keyboard-response","175","646415","0.0-4.0-1.45","","<img src=""img/orange-n.png"" border=""10"">","null","trial","32","","0.8,0.2","1:go_a","0",""
"null","","html-keyboard-response","176","647419","0.0-4.0-2.45","","<div style=""font-size:60px;"">+</div>","null","","","","","","",""
"null","","image-keyboard-response","177","648923","0.0-4.0-0.46","","img/purple.png","null","trial","null","true","0.2,0.8","2:nogo_b","",""
"null","","html-keyboard-response","178","649927","0.0-4.0-1.46","","<img src=""img/purple-r.png"">","null","trial","null","","0.2,0.8","2:nogo_b","1",""
"null","","html-keyboard-response","179","650931","0.0-4.0-2.46","","<div style=""font-size:60px;"">+</div>","null","","","","","","",""
"698.8199999905191","","image-keyboard-response","180","651630","0.0-4.0-0.47","","img/orange.png","32","trial","32","true","0.8,0.2","1:go_a","",""
"null","","html-keyboard-response","181","652632","0.0-4.0-1.47","","<img src=""img/orange-n.png"" border=""10"">","null","trial","32","","0.8,0.2","1:go_a","0",""
"null","","html-keyboard-response","182","653636","0.0-4.0-2.47","","<div style=""font-size:60px;"">+</div>","null","","","","","","",""
"801.0849999845959","","image-keyboard-response","183","654438","0.0-4.0-0.48","","img/orange.png","32","trial","32","true","0.8,0.2","1:go_a","",""
"null","","html-keyboard-response","184","655441","0.0-4.0-1.48","","<img src=""img/orange-r.png"" border=""10"">","null","trial","32","","0.8,0.2","1:go_a","1",""
"null","","html-keyboard-response","185","656446","0.0-4.0-2.48","","<div style=""font-size:60px;"">+</div>","null","","","","","","",""
"815.1050000160467","","image-keyboard-response","186","657262","0.0-4.0-0.49","","img/purple.png","32","trial","null","false","0.2,0.8","2:nogo_b","",""
"null","","html-keyboard-response","187","658268","0.0-4.0-1.49","","<img src=""img/purple-n.png"" border=""10"">","null","trial","null","","0.2,0.8","2:nogo_b","0",""
"null","","html-keyboard-response","188","659273","0.0-4.0-2.49","","<div style=""font-size:60px;"">+</div>","null","","","","","","",""
"740.4749999986961","","image-keyboard-response","189","660014","0.0-4.0-0.50","","img/orange.png","32","trial","32","true","0.8,0.2","1:go_a","",""
"null","","html-keyboard-response","190","661020","0.0-4.0-1.50","","<img src=""img/orange-r.png"" border=""10"">","null","trial","32","","0.8,0.2","1:go_a","1",""
"null","","html-keyboard-response","191","662024","0.0-4.0-2.50","","<div style=""font-size:60px;"">+</div>","null","","","","","","",""
"null","","image-keyboard-response","192","663528","0.0-4.0-0.51","","img/purple.png","null","trial","null","true","0.2,0.8","2:nogo_b","",""
"null","","html-keyboard-response","193","664532","0.0-4.0-1.51","","<img src=""img/purple-r.png"">","null","trial","null","","0.2,0.8","2:nogo_b","1",""
"null","","html-keyboard-response","194","665536","0.0-4.0-2.51","","<div style=""font-size:60px;"">+</div>","null","","","","","","",""
"null","","image-keyboard-response","195","667040","0.0-4.0-0.52","","img/purple.png","null","trial","null","true","0.2,0.8","2:nogo_b","",""
"null","","html-keyboard-response","196","668044","0.0-4.0-1.52","","<img src=""img/purple-r.png"">","null","trial","null","","0.2,0.8","2:nogo_b","1",""
"null","","html-keyboard-response","197","669048","0.0-4.0-2.52","","<div style=""font-size:60px;"">+</div>","null","","","","","","",""
"469.46999998181127","","image-keyboard-response","198","669518","0.0-4.0-0.53","","img/orange.png","32","trial","32","true","0.8,0.2","1:go_a","",""
"null","","html-keyboard-response","199","670519","0.0-4.0-1.53","","<img src=""img/orange-r.png"" border=""10"">","null","trial","32","","0.8,0.2","1:go_a","1",""
"null","","html-keyboard-response","200","671521","0.0-4.0-2.53","","<div style=""font-size:60px;"">+</div>","null","","","","","","",""
"483.65500001818873","","image-keyboard-response","201","672005","0.0-4.0-0.54","","img/orange.png","32","trial","32","true","0.8,0.2","1:go_a","",""
"null","","html-keyboard-response","202","673008","0.0-4.0-1.54","","<img src=""img/orange-r.png"" border=""10"">","null","trial","32","","0.8,0.2","1:go_a","1",""
"null","","html-keyboard-response","203","674011","0.0-4.0-2.54","","<div style=""font-size:60px;"">+</div>","null","","","","","","",""
"null","","image-keyboard-response","204","675513","0.0-4.0-0.55","","img/purple.png","null","trial","null","true","0.2,0.8","2:nogo_b","",""
"null","","html-keyboard-response","205","676514","0.0-4.0-1.55","","<img src=""img/purple-r.png"">","null","trial","null","","0.2,0.8","2:nogo_b","1",""
"null","","html-keyboard-response","206","677516","0.0-4.0-2.55","","<div style=""font-size:60px;"">+</div>","null","","","","","","",""
"591.9099999882746","","image-keyboard-response","207","678109","0.0-4.0-0.56","","img/purple.png","32","trial","null","false","0.2,0.8","2:nogo_b","",""
"null","","html-keyboard-response","208","679115","0.0-4.0-1.56","","<img src=""img/purple-n.png"" border=""10"">","null","trial","null","","0.2,0.8","2:nogo_b","0",""
"null","","html-keyboard-response","209","680120","0.0-4.0-2.56","","<div style=""font-size:60px;"">+</div>","null","","","","","","",""
"525.5100000067614","","image-keyboard-response","210","680646","0.0-4.0-0.57","","img/orange.png","32","trial","32","true","0.8,0.2","1:go_a","",""
"null","","html-keyboard-response","211","681650","0.0-4.0-1.57","","<img src=""img/orange-r.png"" border=""10"">","null","trial","32","","0.8,0.2","1:go_a","1",""
"null","","html-keyboard-response","212","682655","0.0-4.0-2.57","","<div style=""font-size:60px;"">+</div>","null","","","","","","",""
"null","","image-keyboard-response","213","684158","0.0-4.0-0.58","","img/purple.png","null","trial","null","true","0.2,0.8","2:nogo_b","",""
"null","","html-keyboard-response","214","685162","0.0-4.0-1.58","","<img src=""img/purple-r.png"">","null","trial","null","","0.2,0.8","2:nogo_b","1",""
"null","","html-keyboard-response","215","686167","0.0-4.0-2.58","","<div style=""font-size:60px;"">+</div>","null","","","","","","",""
"453.87500000651926","","image-keyboard-response","216","686621","0.0-4.0-0.59","","img/orange.png","32","trial","32","true","0.8,0.2","1:go_a","",""
"null","","html-keyboard-response","217","687624","0.0-4.0-1.59","","<img src=""img/orange-r.png"" border=""10"">","null","trial","32","","0.8,0.2","1:go_a","1",""
"null","","html-keyboard-response","218","688628","0.0-4.0-2.59","","<div style=""font-size:60px;"">+</div>","null","","","","","","",""
"55922.7350000001","","instructions","219","744549","0.0-5.0","[{""page_index"":0,""viewing_time"":55922.595000010915}]","","","","","","","","",""
"996.2050000031013","","image-keyboard-response","220","745547","0.0-6.0-0.0","","img/orange.png","32","trial","null","false","0,1","4:nogo_d","",""
"null","","html-keyboard-response","221","746548","0.0-6.0-1.0","","<img src=""img/orange-n.png"" border=""10"">","null","trial","null","","0,1","4:nogo_d","0",""
"null","","html-keyboard-response","222","747553","0.0-6.0-2.0","","<div style=""font-size:60px;"">+</div>","null","","","","","","",""
"633.8049999903888","","image-keyboard-response","223","748187","0.0-6.0-0.1","","img/green.png","32","trial","32","true","0.8,0.2","1:go_a","",""
"null","","html-keyboard-response","224","749189","0.0-6.0-1.1","","<img src=""img/green-r.png"" border=""10"">","null","trial","32","","0.8,0.2","1:go_a","1",""
"null","","html-keyboard-response","225","750193","0.0-6.0-2.1","","<div style=""font-size:60px;"">+</div>","null","","","","","","",""
"null","","image-keyboard-response","226","751697","0.0-6.0-0.2","","img/yellow.png","null","trial","null","true","0.2,0.8","2:nogo_b","",""
"null","","html-keyboard-response","227","752701","0.0-6.0-1.2","","<img src=""img/yellow-r.png"">","null","trial","null","","0.2,0.8","2:nogo_b","1",""
"null","","html-keyboard-response","228","753706","0.0-6.0-2.2","","<div style=""font-size:60px;"">+</div>","null","","","","","","",""
"722.0249999954831","","image-keyboard-response","229","754428","0.0-6.0-0.3","","img/pink.png","32","trial","32","true","1,0","3:go_c","",""
"null","","html-keyboard-response","230","755429","0.0-6.0-1.3","","<img src=""img/pink-r.png"" border=""10"">","null","trial","32","","1,0","3:go_c","1",""
"null","","html-keyboard-response","231","756431","0.0-6.0-2.3","","<div style=""font-size:60px;"">+</div>","null","","","","","","",""
"723.150000005262","","image-keyboard-response","232","757155","0.0-6.0-0.4","","img/pink.png","32","trial","32","true","1,0","3:go_c","",""
"null","","html-keyboard-response","233","758158","0.0-6.0-1.4","","<img src=""img/pink-r.png"" border=""10"">","null","trial","32","","1,0","3:go_c","1",""
"null","","html-keyboard-response","234","759162","0.0-6.0-2.4","","<div style=""font-size:60px;"">+</div>","null","","","","","","",""
"625.8450000023004","","image-keyboard-response","235","759789","0.0-6.0-0.5","","img/orange.png","32","trial","null","false","0,1","4:nogo_d","",""
"null","","html-keyboard-response","236","760793","0.0-6.0-1.5","","<img src=""img/orange-n.png"" border=""10"">","null","trial","null","","0,1","4:nogo_d","0",""
"null","","html-keyboard-response","237","761797","0.0-6.0-2.5","","<div style=""font-size:60px;"">+</div>","null","","","","","","",""
"940.5899999837857","","image-keyboard-response","238","762738","0.0-6.0-0.6","","img/green.png","32","trial","32","true","0.8,0.2","1:go_a","",""
"null","","html-keyboard-response","239","763742","0.0-6.0-1.6","","<img src=""img/green-r.png"" border=""10"">","null","trial","32","","0.8,0.2","1:go_a","1",""
"null","","html-keyboard-response","240","764746","0.0-6.0-2.6","","<div style=""font-size:60px;"">+</div>","null","","","","","","",""
"1135.649999981979","","image-keyboard-response","241","765882","0.0-6.0-0.7","","img/yellow.png","32","trial","null","false","0.2,0.8","2:nogo_b","",""
"null","","html-keyboard-response","242","766884","0.0-6.0-1.7","","<img src=""img/yellow-n.png"" border=""10"">","null","trial","null","","0.2,0.8","2:nogo_b","0",""
"null","","html-keyboard-response","243","767887","0.0-6.0-2.7","","<div style=""font-size:60px;"">+</div>","null","","","","","","",""
"771.1649999837391","","image-keyboard-response","244","768659","0.0-6.0-0.8","","img/orange.png","32","trial","null","false","0,1","4:nogo_d","",""
"null","","html-keyboard-response","245","769663","0.0-6.0-1.8","","<img src=""img/orange-n.png"" border=""10"">","null","trial","null","","0,1","4:nogo_d","0",""
"null","","html-keyboard-response","246","770667","0.0-6.0-2.8","","<div style=""font-size:60px;"">+</div>","null","","","","","","",""
"710.9900000214111","","image-keyboard-response","247","771379","0.0-6.0-0.9","","img/yellow.png","32","trial","null","false","0.2,0.8","2:nogo_b","",""
"null","","html-keyboard-response","248","772384","0.0-6.0-1.9","","<img src=""img/yellow-n.png"" border=""10"">","null","trial","null","","0.2,0.8","2:nogo_b","0",""
"null","","html-keyboard-response","249","773384","0.0-6.0-2.9","","<div style=""font-size:60px;"">+</div>","null","","","","","","",""
"737.6899999799207","","image-keyboard-response","250","774122","0.0-6.0-0.10","","img/pink.png","32","trial","32","true","1,0","3:go_c","",""
"null","","html-keyboard-response","251","775125","0.0-6.0-1.10","","<img src=""img/pink-r.png"" border=""10"">","null","trial","32","","1,0","3:go_c","1",""
"null","","html-keyboard-response","252","776130","0.0-6.0-2.10","","<div style=""font-size:60px;"">+</div>","null","","","","","","",""
"569.4099999964237","","image-keyboard-response","253","776700","0.0-6.0-0.11","","img/green.png","32","trial","32","true","0.8,0.2","1:go_a","",""
"null","","html-keyboard-response","254","777703","0.0-6.0-1.11","","<img src=""img/green-r.png"" border=""10"">","null","trial","32","","0.8,0.2","1:go_a","1",""
"null","","html-keyboard-response","255","778707","0.0-6.0-2.11","","<div style=""font-size:60px;"">+</div>","null","","","","","","",""
"719.4849999796133","","image-keyboard-response","256","779427","0.0-6.0-0.12","","img/pink.png","32","trial","32","true","1,0","3:go_c","",""
"null","","html-keyboard-response","257","780431","0.0-6.0-1.12","","<img src=""img/pink-r.png"" border=""10"">","null","trial","32","","1,0","3:go_c","1",""
"null","","html-keyboard-response","258","781435","0.0-6.0-2.12","","<div style=""font-size:60px;"">+</div>","null","","","","","","",""
"614.2650000110734","","image-keyboard-response","259","782050","0.0-6.0-0.13","","img/orange.png","32","trial","null","false","0,1","4:nogo_d","",""
"null","","html-keyboard-response","260","783055","0.0-6.0-1.13","","<img src=""img/orange-n.png"" border=""10"">","null","trial","null","","0,1","4:nogo_d","0",""
"null","","html-keyboard-response","261","784059","0.0-6.0-2.13","","<div style=""font-size:60px;"">+</div>","null","","","","","","",""
"656.4300000027288","","image-keyboard-response","262","784716","0.0-6.0-0.14","","img/green.png","32","trial","32","true","0.8,0.2","1:go_a","",""
"null","","html-keyboard-response","263","785719","0.0-6.0-1.14","","<img src=""img/green-r.png"" border=""10"">","null","trial","32","","0.8,0.2","1:go_a","1",""
"null","","html-keyboard-response","264","786723","0.0-6.0-2.14","","<div style=""font-size:60px;"">+</div>","null","","","","","","",""
"null","","image-keyboard-response","265","788226","0.0-6.0-0.15","","img/yellow.png","null","trial","null","true","0.2,0.8","2:nogo_b","",""
"null","","html-keyboard-response","266","789230","0.0-6.0-1.15","","<img src=""img/yellow-r.png"">","null","trial","null","","0.2,0.8","2:nogo_b","1",""
"null","","html-keyboard-response","267","790235","0.0-6.0-2.15","","<div style=""font-size:60px;"">+</div>","null","","","","","","",""
"950.5050000152551","","image-keyboard-response","268","791186","0.0-6.0-0.16","","img/orange.png","32","trial","null","false","0,1","4:nogo_d","",""
"null","","html-keyboard-response","269","792191","0.0-6.0-1.16","","<img src=""img/orange-n.png"" border=""10"">","null","trial","null","","0,1","4:nogo_d","0",""
"null","","html-keyboard-response","270","793196","0.0-6.0-2.16","","<div style=""font-size:60px;"">+</div>","null","","","","","","",""
"1045.5500000098255","","image-keyboard-response","271","794242","0.0-6.0-0.17","","img/pink.png","32","trial","32","true","1,0","3:go_c","",""
"null","","html-keyboard-response","272","795244","0.0-6.0-1.17","","<img src=""img/pink-r.png"" border=""10"">","null","trial","32","","1,0","3:go_c","1",""
"null","","html-keyboard-response","273","796248","0.0-6.0-2.17","","<div style=""font-size:60px;"">+</div>","null","","","","","","",""
"null","","image-keyboard-response","274","797752","0.0-6.0-0.18","","img/green.png","null","trial","32","false","0.8,0.2","1:go_a","",""
"null","","html-keyboard-response","275","798756","0.0-6.0-1.18","","<img src=""img/green-n.png"">","null","trial","32","","0.8,0.2","1:go_a","0",""
"null","","html-keyboard-response","276","799760","0.0-6.0-2.18","","<div style=""font-size:60px;"">+</div>","null","","","","","","",""
"null","","image-keyboard-response","277","801264","0.0-6.0-0.19","","img/yellow.png","null","trial","null","true","0.2,0.8","2:nogo_b","",""
"null","","html-keyboard-response","278","802268","0.0-6.0-1.19","","<img src=""img/yellow-r.png"">","null","trial","null","","0.2,0.8","2:nogo_b","1",""
"null","","html-keyboard-response","279","803273","0.0-6.0-2.19","","<div style=""font-size:60px;"">+</div>","null","","","","","","",""
"823.4499999962281","","image-keyboard-response","280","804097","0.0-6.0-0.20","","img/orange.png","32","trial","null","false","0,1","4:nogo_d","",""
"null","","html-keyboard-response","281","805101","0.0-6.0-1.20","","<img src=""img/orange-n.png"" border=""10"">","null","trial","null","","0,1","4:nogo_d","0",""
"null","","html-keyboard-response","282","806106","0.0-6.0-2.20","","<div style=""font-size:60px;"">+</div>","null","","","","","","",""
"846.8400000128895","","image-keyboard-response","283","806953","0.0-6.0-0.21","","img/pink.png","32","trial","32","true","1,0","3:go_c","",""
"null","","html-keyboard-response","284","807957","0.0-6.0-1.21","","<img src=""img/pink-r.png"" border=""10"">","null","trial","32","","1,0","3:go_c","1",""
"null","","html-keyboard-response","285","808962","0.0-6.0-2.21","","<div style=""font-size:60px;"">+</div>","null","","","","","","",""
"null","","image-keyboard-response","286","810465","0.0-6.0-0.22","","img/green.png","null","trial","32","false","0.8,0.2","1:go_a","",""
"null","","html-keyboard-response","287","811469","0.0-6.0-1.22","","<img src=""img/green-n.png"">","null","trial","32","","0.8,0.2","1:go_a","0",""
"null","","html-keyboard-response","288","812474","0.0-6.0-2.22","","<div style=""font-size:60px;"">+</div>","null","","","","","","",""
"239.06999998143874","","image-keyboard-response","289","812713","0.0-6.0-0.23","","img/yellow.png","32","trial","null","false","0.2,0.8","2:nogo_b","",""
"null","","html-keyboard-response","290","813716","0.0-6.0-1.23","","<img src=""img/yellow-r.png"" border=""10"">","null","trial","null","","0.2,0.8","2:nogo_b","1",""
"null","","html-keyboard-response","291","814720","0.0-6.0-2.23","","<div style=""font-size:60px;"">+</div>","null","","","","","","",""
"null","","image-keyboard-response","292","816223","0.0-6.0-0.24","","img/yellow.png","null","trial","null","true","0.2,0.8","2:nogo_b","",""
"null","","html-keyboard-response","293","817228","0.0-6.0-1.24","","<img src=""img/yellow-r.png"">","null","trial","null","","0.2,0.8","2:nogo_b","1",""
"null","","html-keyboard-response","294","818231","0.0-6.0-2.24","","<div style=""font-size:60px;"">+</div>","null","","","","","","",""
"null","","image-keyboard-response","295","819737","0.0-6.0-0.25","","img/green.png","null","trial","32","false","0.8,0.2","1:go_a","",""
"null","","html-keyboard-response","296","820741","0.0-6.0-1.25","","<img src=""img/green-r.png"">","null","trial","32","","0.8,0.2","1:go_a","1",""
"null","","html-keyboard-response","297","821745","0.0-6.0-2.25","","<div style=""font-size:60px;"">+</div>","null","","","","","","",""
"382.76999999652617","","image-keyboard-response","298","822129","0.0-6.0-0.26","","img/orange.png","32","trial","null","false","0,1","4:nogo_d","",""
"null","","html-keyboard-response","299","823131","0.0-6.0-1.26","","<img src=""img/orange-n.png"" border=""10"">","null","trial","null","","0,1","4:nogo_d","0",""
"null","","html-keyboard-response","300","824135","0.0-6.0-2.26","","<div style=""font-size:60px;"">+</div>","null","","","","","","",""
"616.9499999959953","","image-keyboard-response","301","824753","0.0-6.0-0.27","","img/pink.png","32","trial","32","true","1,0","3:go_c","",""
"null","","html-keyboard-response","302","825755","0.0-6.0-1.27","","<img src=""img/pink-r.png"" border=""10"">","null","trial","32","","1,0","3:go_c","1",""
"null","","html-keyboard-response","303","826760","0.0-6.0-2.27","","<div style=""font-size:60px;"">+</div>","null","","","","","","",""
"472.1349999890663","","image-keyboard-response","304","827232","0.0-6.0-0.28","","img/pink.png","32","trial","32","true","1,0","3:go_c","",""
"null","","html-keyboard-response","305","828234","0.0-6.0-1.28","","<img src=""img/pink-r.png"" border=""10"">","null","trial","32","","1,0","3:go_c","1",""
"null","","html-keyboard-response","306","829238","0.0-6.0-2.28","","<div style=""font-size:60px;"">+</div>","null","","","","","","",""
"null","","image-keyboard-response","307","830741","0.0-6.0-0.29","","img/yellow.png","null","trial","null","true","0.2,0.8","2:nogo_b","",""
"null","","html-keyboard-response","308","831746","0.0-6.0-1.29","","<img src=""img/yellow-r.png"">","null","trial","null","","0.2,0.8","2:nogo_b","1",""
"null","","html-keyboard-response","309","832750","0.0-6.0-2.29","","<div style=""font-size:60px;"">+</div>","null","","","","","","",""
"338.4900000237394","","image-keyboard-response","310","833089","0.0-6.0-0.30","","img/green.png","32","trial","32","true","0.8,0.2","1:go_a","",""
"null","","html-keyboard-response","311","834091","0.0-6.0-1.30","","<img src=""img/green-n.png"" border=""10"">","null","trial","32","","0.8,0.2","1:go_a","0",""
"null","","html-keyboard-response","312","835095","0.0-6.0-2.30","","<div style=""font-size:60px;"">+</div>","null","","","","","","",""
"120.80500001320615","","image-keyboard-response","313","835216","0.0-6.0-0.31","","img/orange.png","32","trial","null","false","0,1","4:nogo_d","",""
"null","","html-keyboard-response","314","836221","0.0-6.0-1.31","","<img src=""img/orange-n.png"" border=""10"">","null","trial","null","","0,1","4:nogo_d","0",""
"null","","html-keyboard-response","315","837225","0.0-6.0-2.31","","<div style=""font-size:60px;"">+</div>","null","","","","","","",""
"null","","image-keyboard-response","316","838729","0.0-6.0-0.32","","img/green.png","null","trial","32","false","0.8,0.2","1:go_a","",""
"null","","html-keyboard-response","317","839733","0.0-6.0-1.32","","<img src=""img/green-n.png"">","null","trial","32","","0.8,0.2","1:go_a","0",""
"null","","html-keyboard-response","318","840737","0.0-6.0-2.32","","<div style=""font-size:60px;"">+</div>","null","","","","","","",""
"654.8100000072736","","image-keyboard-response","319","841393","0.0-6.0-0.33","","img/yellow.png","32","trial","null","false","0.2,0.8","2:nogo_b","",""
"null","","html-keyboard-response","320","842397","0.0-6.0-1.33","","<img src=""img/yellow-n.png"" border=""10"">","null","trial","null","","0.2,0.8","2:nogo_b","0",""
"null","","html-keyboard-response","321","843402","0.0-6.0-2.33","","<div style=""font-size:60px;"">+</div>","null","","","","","","",""
"950.5500000086613","","image-keyboard-response","322","844353","0.0-6.0-0.34","","img/orange.png","32","trial","null","false","0,1","4:nogo_d","",""
"null","","html-keyboard-response","323","845358","0.0-6.0-1.34","","<img src=""img/orange-n.png"" border=""10"">","null","trial","null","","0,1","4:nogo_d","0",""
"null","","html-keyboard-response","324","846361","0.0-6.0-2.34","","<div style=""font-size:60px;"">+</div>","null","","","","","","",""
"758.0200000084005","","image-keyboard-response","325","847120","0.0-6.0-0.35","","img/pink.png","32","trial","32","true","1,0","3:go_c","",""
"null","","html-keyboard-response","326","848121","0.0-6.0-1.35","","<img src=""img/pink-r.png"" border=""10"">","null","trial","32","","1,0","3:go_c","1",""
"null","","html-keyboard-response","327","849125","0.0-6.0-2.35","","<div style=""font-size:60px;"">+</div>","null","","","","","","",""
"794.320000015432","","image-keyboard-response","328","849920","0.0-6.0-0.36","","img/pink.png","32","trial","32","true","1,0","3:go_c","",""
"null","","html-keyboard-response","329","850924","0.0-6.0-1.36","","<img src=""img/pink-r.png"" border=""10"">","null","trial","32","","1,0","3:go_c","1",""
"null","","html-keyboard-response","330","851929","0.0-6.0-2.36","","<div style=""font-size:60px;"">+</div>","null","","","","","","",""
"1222.5500000058673","","image-keyboard-response","331","853152","0.0-6.0-0.37","","img/yellow.png","32","trial","null","false","0.2,0.8","2:nogo_b","",""
"null","","html-keyboard-response","332","854153","0.0-6.0-1.37","","<img src=""img/yellow-n.png"" border=""10"">","null","trial","null","","0.2,0.8","2:nogo_b","0",""
"null","","html-keyboard-response","333","855156","0.0-6.0-2.37","","<div style=""font-size:60px;"">+</div>","null","","","","","","",""
"1354.81499999878","","image-keyboard-response","334","856512","0.0-6.0-0.38","","img/green.png","32","trial","32","true","0.8,0.2","1:go_a","",""
"null","","html-keyboard-response","335","857513","0.0-6.0-1.38","","<img src=""img/green-r.png"" border=""10"">","null","trial","32","","0.8,0.2","1:go_a","1",""
"null","","html-keyboard-response","336","858516","0.0-6.0-2.38","","<div style=""font-size:60px;"">+</div>","null","","","","","","",""
"539.6049999981187","","image-keyboard-response","337","859056","0.0-6.0-0.39","","img/orange.png","32","trial","null","false","0,1","4:nogo_d","",""
"null","","html-keyboard-response","338","860061","0.0-6.0-1.39","","<img src=""img/orange-n.png"" border=""10"">","null","trial","null","","0,1","4:nogo_d","0",""
"null","","html-keyboard-response","339","861066","0.0-6.0-2.39","","<div style=""font-size:60px;"">+</div>","null","","","","","","",""
"261.995000008028","","image-keyboard-response","340","861328","0.0-6.0-0.40","","img/pink.png","32","trial","32","true","1,0","3:go_c","",""
"null","","html-keyboard-response","341","862331","0.0-6.0-1.40","","<img src=""img/pink-r.png"" border=""10"">","null","trial","32","","1,0","3:go_c","1",""
"null","","html-keyboard-response","342","863335","0.0-6.0-2.40","","<div style=""font-size:60px;"">+</div>","null","","","","","","",""
"399.48500000173226","","image-keyboard-response","343","863735","0.0-6.0-0.41","","img/orange.png","32","trial","null","false","0,1","4:nogo_d","",""
"null","","html-keyboard-response","344","864740","0.0-6.0-1.41","","<img src=""img/orange-n.png"" border=""10"">","null","trial","null","","0,1","4:nogo_d","0",""
"null","","html-keyboard-response","345","865744","0.0-6.0-2.41","","<div style=""font-size:60px;"">+</div>","null","","","","","","",""
"406.66999999666587","","image-keyboard-response","346","866151","0.0-6.0-0.42","","img/green.png","32","trial","32","true","0.8,0.2","1:go_a","",""
"null","","html-keyboard-response","347","867155","0.0-6.0-1.42","","<img src=""img/green-r.png"" border=""10"">","null","trial","32","","0.8,0.2","1:go_a","1",""
"null","","html-keyboard-response","348","868159","0.0-6.0-2.42","","<div style=""font-size:60px;"">+</div>","null","","","","","","",""
"null","","image-keyboard-response","349","869664","0.0-6.0-0.43","","img/yellow.png","null","trial","null","true","0.2,0.8","2:nogo_b","",""
"null","","html-keyboard-response","350","870667","0.0-6.0-1.43","","<img src=""img/yellow-r.png"">","null","trial","null","","0.2,0.8","2:nogo_b","1",""
"null","","html-keyboard-response","351","871671","0.0-6.0-2.43","","<div style=""font-size:60px;"">+</div>","null","","","","","","",""
"791.6850000037812","","image-keyboard-response","352","872463","0.0-6.0-0.44","","img/pink.png","32","trial","32","true","1,0","3:go_c","",""
"null","","html-keyboard-response","353","873467","0.0-6.0-1.44","","<img src=""img/pink-r.png"" border=""10"">","null","trial","32","","1,0","3:go_c","1",""
"null","","html-keyboard-response","354","874468","0.0-6.0-2.44","","<div style=""font-size:60px;"">+</div>","null","","","","","","",""
"506.6600000136532","","image-keyboard-response","355","874976","0.0-6.0-0.45","","img/orange.png","32","trial","null","false","0,1","4:nogo_d","",""
"null","","html-keyboard-response","356","875978","0.0-6.0-1.45","","<img src=""img/orange-n.png"" border=""10"">","null","trial","null","","0,1","4:nogo_d","0",""
"null","","html-keyboard-response","357","876983","0.0-6.0-2.45","","<div style=""font-size:60px;"">+</div>","null","","","","","","",""
"743.9599999925122","","image-keyboard-response","358","877727","0.0-6.0-0.46","","img/yellow.png","32","trial","null","false","0.2,0.8","2:nogo_b","",""
"null","","html-keyboard-response","359","878729","0.0-6.0-1.46","","<img src=""img/yellow-r.png"" border=""10"">","null","trial","null","","0.2,0.8","2:nogo_b","1",""
"null","","html-keyboard-response","360","879734","0.0-6.0-2.46","","<div style=""font-size:60px;"">+</div>","null","","","","","","",""
"1496.515000006184","","image-keyboard-response","361","881231","0.0-6.0-0.47","","img/green.png","32","trial","32","true","0.8,0.2","1:go_a","",""
"null","","html-keyboard-response","362","882234","0.0-6.0-1.47","","<img src=""img/green-r.png"" border=""10"">","null","trial","32","","0.8,0.2","1:go_a","1",""
"null","","html-keyboard-response","363","883236","0.0-6.0-2.47","","<div style=""font-size:60px;"">+</div>","null","","","","","","",""
"642.1449999907054","","image-keyboard-response","364","883879","0.0-6.0-0.48","","img/green.png","32","trial","32","true","0.8,0.2","1:go_a","",""
"null","","html-keyboard-response","365","884883","0.0-6.0-1.48","","<img src=""img/green-n.png"" border=""10"">","null","trial","32","","0.8,0.2","1:go_a","0",""
"null","","html-keyboard-response","366","885887","0.0-6.0-2.48","","<div style=""font-size:60px;"">+</div>","null","","","","","","",""
"991.3800000213087","","image-keyboard-response","367","886879","0.0-6.0-0.49","","img/pink.png","32","trial","32","true","1,0","3:go_c","",""
"null","","html-keyboard-response","368","887882","0.0-6.0-1.49","","<img src=""img/pink-r.png"" border=""10"">","null","trial","32","","1,0","3:go_c","1",""
"null","","html-keyboard-response","369","888888","0.0-6.0-2.49","","<div style=""font-size:60px;"">+</div>","null","","","","","","",""
"302.2449999989476","","image-keyboard-response","370","889191","0.0-6.0-0.50","","img/orange.png","32","trial","null","false","0,1","4:nogo_d","",""
"null","","html-keyboard-response","371","890194","0.0-6.0-1.50","","<img src=""img/orange-n.png"" border=""10"">","null","trial","null","","0,1","4:nogo_d","0",""
"null","","html-keyboard-response","372","891198","0.0-6.0-2.50","","<div style=""font-size:60px;"">+</div>","null","","","","","","",""
"287.90999998454936","","image-keyboard-response","373","891487","0.0-6.0-0.51","","img/yellow.png","32","trial","null","false","0.2,0.8","2:nogo_b","",""
"null","","html-keyboard-response","374","892491","0.0-6.0-1.51","","<img src=""img/yellow-n.png"" border=""10"">","null","trial","null","","0.2,0.8","2:nogo_b","0",""
"null","","html-keyboard-response","375","893493","0.0-6.0-2.51","","<div style=""font-size:60px;"">+</div>","null","","","","","","",""
"297.10500000510365","","image-keyboard-response","376","893790","0.0-6.0-0.52","","img/green.png","32","trial","32","true","0.8,0.2","1:go_a","",""
"null","","html-keyboard-response","377","894794","0.0-6.0-1.52","","<img src=""img/green-r.png"" border=""10"">","null","trial","32","","0.8,0.2","1:go_a","1",""
"null","","html-keyboard-response","378","895796","0.0-6.0-2.52","","<div style=""font-size:60px;"">+</div>","null","","","","","","",""
"538.9999999897555","","image-keyboard-response","379","896336","0.0-6.0-0.53","","img/pink.png","32","trial","32","true","1,0","3:go_c","",""
"null","","html-keyboard-response","380","897339","0.0-6.0-1.53","","<img src=""img/pink-r.png"" border=""10"">","null","trial","32","","1,0","3:go_c","1",""
"null","","html-keyboard-response","381","898344","0.0-6.0-2.53","","<div style=""font-size:60px;"">+</div>","null","","","","","","",""
"null","","image-keyboard-response","382","899848","0.0-6.0-0.54","","img/yellow.png","null","trial","null","true","0.2,0.8","2:nogo_b","",""
"null","","html-keyboard-response","383","900853","0.0-6.0-1.54","","<img src=""img/yellow-r.png"">","null","trial","null","","0.2,0.8","2:nogo_b","1",""
"null","","html-keyboard-response","384","901856","0.0-6.0-2.54","","<div style=""font-size:60px;"">+</div>","null","","","","","","",""
"437.17499999911524","","image-keyboard-response","385","902294","0.0-6.0-0.55","","img/orange.png","32","trial","null","false","0,1","4:nogo_d","",""
"null","","html-keyboard-response","386","903296","0.0-6.0-1.55","","<img src=""img/orange-n.png"" border=""10"">","null","trial","null","","0,1","4:nogo_d","0",""
"null","","html-keyboard-response","387","904299","0.0-6.0-2.55","","<div style=""font-size:60px;"">+</div>","null","","","","","","",""
"874.8600000108127","","image-keyboard-response","388","905175","0.0-6.0-0.56","","img/green.png","32","trial","32","true","0.8,0.2","1:go_a","",""
"null","","html-keyboard-response","389","906181","0.0-6.0-1.56","","<img src=""img/green-n.png"" border=""10"">","null","trial","32","","0.8,0.2","1:go_a","0",""
"null","","html-keyboard-response","390","907185","0.0-6.0-2.56","","<div style=""font-size:60px;"">+</div>","null","","","","","","",""
"677.2500000079162","","image-keyboard-response","391","907863","0.0-6.0-0.57","","img/yellow.png","32","trial","null","false","0.2,0.8","2:nogo_b","",""
"null","","html-keyboard-response","392","908868","0.0-6.0-1.57","","<img src=""img/yellow-r.png"" border=""10"">","null","trial","null","","0.2,0.8","2:nogo_b","1",""
"null","","html-keyboard-response","393","909873","0.0-6.0-2.57","","<div style=""font-size:60px;"">+</div>","null","","","","","","",""
"564.5999999833293","","image-keyboard-response","394","910438","0.0-6.0-0.58","","img/pink.png","32","trial","32","true","1,0","3:go_c","",""
"null","","html-keyboard-response","395","911440","0.0-6.0-1.58","","<img src=""img/pink-r.png"" border=""10"">","null","trial","32","","1,0","3:go_c","1",""
"null","","html-keyboard-response","396","912443","0.0-6.0-2.58","","<div style=""font-size:60px;"">+</div>","null","","","","","","",""
"642.1250000130385","","image-keyboard-response","397","913086","0.0-6.0-0.59","","img/orange.png","32","trial","null","false","0,1","4:nogo_d","",""
"null","","html-keyboard-response","398","914087","0.0-6.0-1.59","","<img src=""img/orange-n.png"" border=""10"">","null","trial","null","","0,1","4:nogo_d","0",""
"null","","html-keyboard-response","399","915091","0.0-6.0-2.59","","<div style=""font-size:60px;"">+</div>","null","","","","","","",""
"null","","image-keyboard-response","400","916592","0.0-6.0-0.60","","img/yellow.png","null","trial","null","true","0.2,0.8","2:nogo_b","",""
"null","","html-keyboard-response","401","917595","0.0-6.0-1.60","","<img src=""img/yellow-r.png"">","null","trial","null","","0.2,0.8","2:nogo_b","1",""
"null","","html-keyboard-response","402","918597","0.0-6.0-2.60","","<div style=""font-size:60px;"">+</div>","null","","","","","","",""
"null","","image-keyboard-response","403","920101","0.0-6.0-0.61","","img/green.png","null","trial","32","false","0.8,0.2","1:go_a","",""
"null","","html-keyboard-response","404","921105","0.0-6.0-1.61","","<img src=""img/green-r.png"">","null","trial","32","","0.8,0.2","1:go_a","1",""
"null","","html-keyboard-response","405","922109","0.0-6.0-2.61","","<div style=""font-size:60px;"">+</div>","null","","","","","","",""
"272.88999999291264","","image-keyboard-response","406","922382","0.0-6.0-0.62","","img/pink.png","32","trial","32","true","1,0","3:go_c","",""
"null","","html-keyboard-response","407","923386","0.0-6.0-1.62","","<img src=""img/pink-r.png"" border=""10"">","null","trial","32","","1,0","3:go_c","1",""
"null","","html-keyboard-response","408","924391","0.0-6.0-2.62","","<div style=""font-size:60px;"">+</div>","null","","","","","","",""
"350.5200000072364","","image-keyboard-response","409","924742","0.0-6.0-0.63","","img/orange.png","32","trial","null","false","0,1","4:nogo_d","",""
"null","","html-keyboard-response","410","925743","0.0-6.0-1.63","","<img src=""img/orange-n.png"" border=""10"">","null","trial","null","","0,1","4:nogo_d","0",""
"null","","html-keyboard-response","411","926744","0.0-6.0-2.63","","<div style=""font-size:60px;"">+</div>","null","","","","","","",""
"236.97500000707805","","image-keyboard-response","412","926982","0.0-6.0-0.64","","img/yellow.png","32","trial","null","false","0.2,0.8","2:nogo_b","",""
"null","","html-keyboard-response","413","927983","0.0-6.0-1.64","","<img src=""img/yellow-r.png"" border=""10"">","null","trial","null","","0.2,0.8","2:nogo_b","1",""
"null","","html-keyboard-response","414","928988","0.0-6.0-2.64","","<div style=""font-size:60px;"">+</div>","null","","","","","","",""
"null","","image-keyboard-response","415","930491","0.0-6.0-0.65","","img/orange.png","null","trial","null","true","0,1","4:nogo_d","",""
"null","","html-keyboard-response","416","931496","0.0-6.0-1.65","","<img src=""img/orange-r.png"">","null","trial","null","","0,1","4:nogo_d","1",""
"null","","html-keyboard-response","417","932500","0.0-6.0-2.65","","<div style=""font-size:60px;"">+</div>","null","","","","","","",""
"1153.6199999973178","","image-keyboard-response","418","933654","0.0-6.0-0.66","","img/pink.png","32","trial","32","true","1,0","3:go_c","",""
"null","","html-keyboard-response","419","934659","0.0-6.0-1.66","","<img src=""img/pink-r.png"" border=""10"">","null","trial","32","","1,0","3:go_c","1",""
"null","","html-keyboard-response","420","935663","0.0-6.0-2.66","","<div style=""font-size:60px;"">+</div>","null","","","","","","",""
"1004.480000003241","","image-keyboard-response","421","936669","0.0-6.0-0.67","","img/green.png","32","trial","32","true","0.8,0.2","1:go_a","",""
"null","","html-keyboard-response","422","937672","0.0-6.0-1.67","","<img src=""img/green-r.png"" border=""10"">","null","trial","32","","0.8,0.2","1:go_a","1",""
"null","","html-keyboard-response","423","938676","0.0-6.0-2.67","","<div style=""font-size:60px;"">+</div>","null","","","","","","",""
"554.2350000177976","","image-keyboard-response","424","939231","0.0-6.0-0.68","","img/green.png","32","trial","32","true","0.8,0.2","1:go_a","",""
"null","","html-keyboard-response","425","940232","0.0-6.0-1.68","","<img src=""img/green-r.png"" border=""10"">","null","trial","32","","0.8,0.2","1:go_a","1",""
"null","","html-keyboard-response","426","941236","0.0-6.0-2.68","","<div style=""font-size:60px;"">+</div>","null","","","","","","",""
"null","","image-keyboard-response","427","942739","0.0-6.0-0.69","","img/orange.png","null","trial","null","true","0,1","4:nogo_d","",""
"null","","html-keyboard-response","428","943744","0.0-6.0-1.69","","<img src=""img/orange-r.png"">","null","trial","null","","0,1","4:nogo_d","1",""
"null","","html-keyboard-response","429","944749","0.0-6.0-2.69","","<div style=""font-size:60px;"">+</div>","null","","","","","","",""
"null","","image-keyboard-response","430","946251","0.0-6.0-0.70","","img/yellow.png","null","trial","null","true","0.2,0.8","2:nogo_b","",""
"null","","html-keyboard-response","431","947256","0.0-6.0-1.70","","<img src=""img/yellow-r.png"">","null","trial","null","","0.2,0.8","2:nogo_b","1",""
"null","","html-keyboard-response","432","948260","0.0-6.0-2.70","","<div style=""font-size:60px;"">+</div>","null","","","","","","",""
"568.8700000173412","","image-keyboard-response","433","948829","0.0-6.0-0.71","","img/pink.png","32","trial","32","true","1,0","3:go_c","",""
"null","","html-keyboard-response","434","949833","0.0-6.0-1.71","","<img src=""img/pink-r.png"" border=""10"">","null","trial","32","","1,0","3:go_c","1",""
"null","","html-keyboard-response","435","950837","0.0-6.0-2.71","","<div style=""font-size:60px;"">+</div>","null","","","","","","",""
"1303.3399999840185","","image-keyboard-response","436","952141","0.0-6.0-0.72","","img/orange.png","32","trial","null","false","0,1","4:nogo_d","",""
"null","","html-keyboard-response","437","953142","0.0-6.0-1.72","","<img src=""img/orange-n.png"" border=""10"">","null","trial","null","","0,1","4:nogo_d","0",""
"null","","html-keyboard-response","438","954146","0.0-6.0-2.72","","<div style=""font-size:60px;"">+</div>","null","","","","","","",""
"570.3250000078697","","image-keyboard-response","439","954717","0.0-6.0-0.73","","img/pink.png","32","trial","32","true","1,0","3:go_c","",""
"null","","html-keyboard-response","440","955721","0.0-6.0-1.73","","<img src=""img/pink-r.png"" border=""10"">","null","trial","32","","1,0","3:go_c","1",""
"null","","html-keyboard-response","441","956726","0.0-6.0-2.73","","<div style=""font-size:60px;"">+</div>","null","","","","","","",""
"774.2850000213366","","image-keyboard-response","442","957501","0.0-6.0-0.74","","img/green.png","32","trial","32","true","0.8,0.2","1:go_a","",""
"null","","html-keyboard-response","443","958502","0.0-6.0-1.74","","<img src=""img/green-r.png"" border=""10"">","null","trial","32","","0.8,0.2","1:go_a","1",""
"null","","html-keyboard-response","444","959503","0.0-6.0-2.74","","<div style=""font-size:60px;"">+</div>","null","","","","","","",""
"null","","image-keyboard-response","445","961006","0.0-6.0-0.75","","img/yellow.png","null","trial","null","true","0.2,0.8","2:nogo_b","",""
"null","","html-keyboard-response","446","962007","0.0-6.0-1.75","","<img src=""img/yellow-n.png"">","null","trial","null","","0.2,0.8","2:nogo_b","0",""
"null","","html-keyboard-response","447","963010","0.0-6.0-2.75","","<div style=""font-size:60px;"">+</div>","null","","","","","","",""
"826.0100000188686","","image-keyboard-response","448","963836","0.0-6.0-0.76","","img/yellow.png","32","trial","null","false","0.2,0.8","2:nogo_b","",""
"null","","html-keyboard-response","449","964838","0.0-6.0-1.76","","<img src=""img/yellow-r.png"" border=""10"">","null","trial","null","","0.2,0.8","2:nogo_b","1",""
"null","","html-keyboard-response","450","965843","0.0-6.0-2.76","","<div style=""font-size:60px;"">+</div>","null","","","","","","",""
"null","","image-keyboard-response","451","967346","0.0-6.0-0.77","","img/orange.png","null","trial","null","true","0,1","4:nogo_d","",""
"null","","html-keyboard-response","452","968350","0.0-6.0-1.77","","<img src=""img/orange-r.png"">","null","trial","null","","0,1","4:nogo_d","1",""
"null","","html-keyboard-response","453","969355","0.0-6.0-2.77","","<div style=""font-size:60px;"">+</div>","null","","","","","","",""
"697.6700000232086","","image-keyboard-response","454","970053","0.0-6.0-0.78","","img/green.png","32","trial","32","true","0.8,0.2","1:go_a","",""
"null","","html-keyboard-response","455","971055","0.0-6.0-1.78","","<img src=""img/green-r.png"" border=""10"">","null","trial","32","","0.8,0.2","1:go_a","1",""
"null","","html-keyboard-response","456","972060","0.0-6.0-2.78","","<div style=""font-size:60px;"">+</div>","null","","","","","","",""
"720.3199999930803","","image-keyboard-response","457","972780","0.0-6.0-0.79","","img/pink.png","32","trial","32","true","1,0","3:go_c","",""
"null","","html-keyboard-response","458","973783","0.0-6.0-1.79","","<img src=""img/pink-r.png"" border=""10"">","null","trial","32","","1,0","3:go_c","1",""
"null","","html-keyboard-response","459","974788","0.0-6.0-2.79","","<div style=""font-size:60px;"">+</div>","null","","","","","","",""
"null","","image-keyboard-response","460","976292","0.0-6.0-0.80","","img/yellow.png","null","trial","null","true","0.2,0.8","2:nogo_b","",""
"null","","html-keyboard-response","461","977296","0.0-6.0-1.80","","<img src=""img/yellow-r.png"">","null","trial","null","","0.2,0.8","2:nogo_b","1",""
"null","","html-keyboard-response","462","978301","0.0-6.0-2.80","","<div style=""font-size:60px;"">+</div>","null","","","","","","",""
"615.590000001248","","image-keyboard-response","463","978918","0.0-6.0-0.81","","img/orange.png","32","trial","null","false","0,1","4:nogo_d","",""
"null","","html-keyboard-response","464","979921","0.0-6.0-1.81","","<img src=""img/orange-n.png"" border=""10"">","null","trial","null","","0,1","4:nogo_d","0",""
"null","","html-keyboard-response","465","980925","0.0-6.0-2.81","","<div style=""font-size:60px;"">+</div>","null","","","","","","",""
"752.3400000063702","","image-keyboard-response","466","981679","0.0-6.0-0.82","","img/pink.png","32","trial","32","true","1,0","3:go_c","",""
"null","","html-keyboard-response","467","982681","0.0-6.0-1.82","","<img src=""img/pink-r.png"" border=""10"">","null","trial","32","","1,0","3:go_c","1",""
"null","","html-keyboard-response","468","983684","0.0-6.0-2.82","","<div style=""font-size:60px;"">+</div>","null","","","","","","",""
"554.5200000051409","","image-keyboard-response","469","984239","0.0-6.0-0.83","","img/green.png","32","trial","32","true","0.8,0.2","1:go_a","",""
"null","","html-keyboard-response","470","985243","0.0-6.0-1.83","","<img src=""img/green-r.png"" border=""10"">","null","trial","32","","0.8,0.2","1:go_a","1",""
"null","","html-keyboard-response","471","986244","0.0-6.0-2.83","","<div style=""font-size:60px;"">+</div>","null","","","","","","",""
"null","","image-keyboard-response","472","987748","0.0-6.0-0.84","","img/yellow.png","null","trial","null","true","0.2,0.8","2:nogo_b","",""
"null","","html-keyboard-response","473","988752","0.0-6.0-1.84","","<img src=""img/yellow-r.png"">","null","trial","null","","0.2,0.8","2:nogo_b","1",""
"null","","html-keyboard-response","474","989757","0.0-6.0-2.84","","<div style=""font-size:60px;"">+</div>","null","","","","","","",""
"null","","image-keyboard-response","475","991260","0.0-6.0-0.85","","img/orange.png","null","trial","null","true","0,1","4:nogo_d","",""
"null","","html-keyboard-response","476","992265","0.0-6.0-1.85","","<img src=""img/orange-r.png"">","null","trial","null","","0,1","4:nogo_d","1",""
"null","","html-keyboard-response","477","993269","0.0-6.0-2.85","","<div style=""font-size:60px;"">+</div>","null","","","","","","",""
"738.5750000248663","","image-keyboard-response","478","994008","0.0-6.0-0.86","","img/pink.png","32","trial","32","true","1,0","3:go_c","",""
"null","","html-keyboard-response","479","995011","0.0-6.0-1.86","","<img src=""img/pink-r.png"" border=""10"">","null","trial","32","","1,0","3:go_c","1",""
"null","","html-keyboard-response","480","996015","0.0-6.0-2.86","","<div style=""font-size:60px;"">+</div>","null","","","","","","",""
"null","","image-keyboard-response","481","997518","0.0-6.0-0.87","","img/green.png","null","trial","32","false","0.8,0.2","1:go_a","",""
"null","","html-keyboard-response","482","998520","0.0-6.0-1.87","","<img src=""img/green-r.png"">","null","trial","32","","0.8,0.2","1:go_a","1",""
"null","","html-keyboard-response","483","999522","0.0-6.0-2.87","","<div style=""font-size:60px;"">+</div>","null","","","","","","",""
"null","","image-keyboard-response","484","1001025","0.0-6.0-0.88","","img/yellow.png","null","trial","null","true","0.2,0.8","2:nogo_b","",""
"null","","html-keyboard-response","485","1002030","0.0-6.0-1.88","","<img src=""img/yellow-r.png"">","null","trial","null","","0.2,0.8","2:nogo_b","1",""
"null","","html-keyboard-response","486","1003034","0.0-6.0-2.88","","<div style=""font-size:60px;"">+</div>","null","","","","","","",""
"446.46999999531545","","image-keyboard-response","487","1003481","0.0-6.0-0.89","","img/green.png","32","trial","32","true","0.8,0.2","1:go_a","",""
"null","","html-keyboard-response","488","1004485","0.0-6.0-1.89","","<img src=""img/green-r.png"" border=""10"">","null","trial","32","","0.8,0.2","1:go_a","1",""
"null","","html-keyboard-response","489","1005489","0.0-6.0-2.89","","<div style=""font-size:60px;"">+</div>","null","","","","","","",""
"503.3899999980349","","image-keyboard-response","490","1005993","0.0-6.0-0.90","","img/pink.png","32","trial","32","true","1,0","3:go_c","",""
"null","","html-keyboard-response","491","1006998","0.0-6.0-1.90","","<img src=""img/pink-r.png"" border=""10"">","null","trial","32","","1,0","3:go_c","1",""
"null","","html-keyboard-response","492","1008002","0.0-6.0-2.90","","<div style=""font-size:60px;"">+</div>","null","","","","","","",""
"null","","image-keyboard-response","493","1009506","0.0-6.0-0.91","","img/orange.png","null","trial","null","true","0,1","4:nogo_d","",""
"null","","html-keyboard-response","494","1010508","0.0-6.0-1.91","","<img src=""img/orange-r.png"">","null","trial","null","","0,1","4:nogo_d","1",""
"null","","html-keyboard-response","495","1011509","0.0-6.0-2.91","","<div style=""font-size:60px;"">+</div>","null","","","","","","",""
"1387.2299999929965","","image-keyboard-response","496","1012897","0.0-6.0-0.92","","img/orange.png","32","trial","null","false","0,1","4:nogo_d","",""
"null","","html-keyboard-response","497","1013901","0.0-6.0-1.92","","<img src=""img/orange-n.png"" border=""10"">","null","trial","null","","0,1","4:nogo_d","0",""
"null","","html-keyboard-response","498","1014905","0.0-6.0-2.92","","<div style=""font-size:60px;"">+</div>","null","","","","","","",""
"911.6649999923538","","image-keyboard-response","499","1015817","0.0-6.0-0.93","","img/green.png","32","trial","32","true","0.8,0.2","1:go_a","",""
"null","","html-keyboard-response","500","1016821","0.0-6.0-1.93","","<img src=""img/green-r.png"" border=""10"">","null","trial","32","","0.8,0.2","1:go_a","1",""
"null","","html-keyboard-response","501","1017825","0.0-6.0-2.93","","<div style=""font-size:60px;"">+</div>","null","","","","","","",""
"271.70499999192543","","image-keyboard-response","502","1018097","0.0-6.0-0.94","","img/pink.png","32","trial","32","true","1,0","3:go_c","",""
"null","","html-keyboard-response","503","1019102","0.0-6.0-1.94","","<img src=""img/pink-r.png"" border=""10"">","null","trial","32","","1,0","3:go_c","1",""
"null","","html-keyboard-response","504","1020106","0.0-6.0-2.94","","<div style=""font-size:60px;"">+</div>","null","","","","","","",""
"null","","image-keyboard-response","505","1021608","0.0-6.0-0.95","","img/yellow.png","null","trial","null","true","0.2,0.8","2:nogo_b","",""
"null","","html-keyboard-response","506","1022609","0.0-6.0-1.95","","<img src=""img/yellow-r.png"">","null","trial","null","","0.2,0.8","2:nogo_b","1",""
"null","","html-keyboard-response","507","1023613","0.0-6.0-2.95","","<div style=""font-size:60px;"">+</div>","null","","","","","","",""
"908.0799999937881","","image-keyboard-response","508","1024521","0.0-6.0-0.96","","img/yellow.png","32","trial","null","false","0.2,0.8","2:nogo_b","",""
"null","","html-keyboard-response","509","1025522","0.0-6.0-1.96","","<img src=""img/yellow-n.png"" border=""10"">","null","trial","null","","0.2,0.8","2:nogo_b","0",""
"null","","html-keyboard-response","510","1026527","0.0-6.0-2.96","","<div style=""font-size:60px;"">+</div>","null","","","","","","",""
"null","","image-keyboard-response","511","1028030","0.0-6.0-0.97","","img/green.png","null","trial","32","false","0.8,0.2","1:go_a","",""
"null","","html-keyboard-response","512","1029034","0.0-6.0-1.97","","<img src=""img/green-n.png"">","null","trial","32","","0.8,0.2","1:go_a","0",""
"null","","html-keyboard-response","513","1030039","0.0-6.0-2.97","","<div style=""font-size:60px;"">+</div>","null","","","","","","",""
"282.07499999552965","","image-keyboard-response","514","1030321","0.0-6.0-0.98","","img/orange.png","32","trial","null","false","0,1","4:nogo_d","",""
"null","","html-keyboard-response","515","1031325","0.0-6.0-1.98","","<img src=""img/orange-n.png"" border=""10"">","null","trial","null","","0,1","4:nogo_d","0",""
"null","","html-keyboard-response","516","1032328","0.0-6.0-2.98","","<div style=""font-size:60px;"">+</div>","null","","","","","","",""
"519.914999982575","","image-keyboard-response","517","1032849","0.0-6.0-0.99","","img/pink.png","32","trial","32","true","1,0","3:go_c","",""
"null","","html-keyboard-response","518","1033852","0.0-6.0-1.99","","<img src=""img/pink-r.png"" border=""10"">","null","trial","32","","1,0","3:go_c","1",""
"null","","html-keyboard-response","519","1034857","0.0-6.0-2.99","","<div style=""font-size:60px;"">+</div>","null","","","","","","",""
"287.68499998841435","","image-keyboard-response","520","1035145","0.0-6.0-0.100","","img/green.png","32","trial","32","true","0.8,0.2","1:go_a","",""
"null","","html-keyboard-response","521","1036151","0.0-6.0-1.100","","<img src=""img/green-r.png"" border=""10"">","null","trial","32","","0.8,0.2","1:go_a","1",""
"null","","html-keyboard-response","522","1037155","0.0-6.0-2.100","","<div style=""font-size:60px;"">+</div>","null","","","","","","",""
"765.2799999923445","","image-keyboard-response","523","1037921","0.0-6.0-0.101","","img/pink.png","32","trial","32","true","1,0","3:go_c","",""
"null","","html-keyboard-response","524","1038925","0.0-6.0-1.101","","<img src=""img/pink-r.png"" border=""10"">","null","trial","32","","1,0","3:go_c","1",""
"null","","html-keyboard-response","525","1039929","0.0-6.0-2.101","","<div style=""font-size:60px;"">+</div>","null","","","","","","",""
"null","","image-keyboard-response","526","1041434","0.0-6.0-0.102","","img/yellow.png","null","trial","null","true","0.2,0.8","2:nogo_b","",""
"null","","html-keyboard-response","527","1042439","0.0-6.0-1.102","","<img src=""img/yellow-r.png"">","null","trial","null","","0.2,0.8","2:nogo_b","1",""
"null","","html-keyboard-response","528","1043442","0.0-6.0-2.102","","<div style=""font-size:60px;"">+</div>","null","","","","","","",""
"302.575000008801","","image-keyboard-response","529","1043745","0.0-6.0-0.103","","img/orange.png","32","trial","null","false","0,1","4:nogo_d","",""
"null","","html-keyboard-response","530","1044746","0.0-6.0-1.103","","<img src=""img/orange-n.png"" border=""10"">","null","trial","null","","0,1","4:nogo_d","0",""
"null","","html-keyboard-response","531","1045751","0.0-6.0-2.103","","<div style=""font-size:60px;"">+</div>","null","","","","","","",""
"1097.0650000090245","","image-keyboard-response","532","1046849","0.0-6.0-0.104","","img/yellow.png","32","trial","null","false","0.2,0.8","2:nogo_b","",""
"null","","html-keyboard-response","533","1047854","0.0-6.0-1.104","","<img src=""img/yellow-r.png"" border=""10"">","null","trial","null","","0.2,0.8","2:nogo_b","1",""
"null","","html-keyboard-response","534","1048858","0.0-6.0-2.104","","<div style=""font-size:60px;"">+</div>","null","","","","","","",""
"null","","image-keyboard-response","535","1050361","0.0-6.0-0.105","","img/orange.png","null","trial","null","true","0,1","4:nogo_d","",""
"null","","html-keyboard-response","536","1051366","0.0-6.0-1.105","","<img src=""img/orange-r.png"">","null","trial","null","","0,1","4:nogo_d","1",""
"null","","html-keyboard-response","537","1052370","0.0-6.0-2.105","","<div style=""font-size:60px;"">+</div>","null","","","","","","",""
"1165.789999999106","","image-keyboard-response","538","1053536","0.0-6.0-0.106","","img/green.png","32","trial","32","true","0.8,0.2","1:go_a","",""
"null","","html-keyboard-response","539","1054541","0.0-6.0-1.106","","<img src=""img/green-r.png"" border=""10"">","null","trial","32","","0.8,0.2","1:go_a","1",""
"null","","html-keyboard-response","540","1055545","0.0-6.0-2.106","","<div style=""font-size:60px;"">+</div>","null","","","","","","",""
"646.8350000213832","","image-keyboard-response","541","1056193","0.0-6.0-0.107","","img/pink.png","32","trial","32","true","1,0","3:go_c","",""
"null","","html-keyboard-response","542","1057194","0.0-6.0-1.107","","<img src=""img/pink-r.png"" border=""10"">","null","trial","32","","1,0","3:go_c","1",""
"null","","html-keyboard-response","543","1058198","0.0-6.0-2.107","","<div style=""font-size:60px;"">+</div>","null","","","","","","",""
"null","","image-keyboard-response","544","1059701","0.0-6.0-0.108","","img/green.png","null","trial","32","false","0.8,0.2","1:go_a","",""
"null","","html-keyboard-response","545","1060706","0.0-6.0-1.108","","<img src=""img/green-n.png"">","null","trial","32","","0.8,0.2","1:go_a","0",""
"null","","html-keyboard-response","546","1061709","0.0-6.0-2.108","","<div style=""font-size:60px;"">+</div>","null","","","","","","",""
"434.34000000706874","","image-keyboard-response","547","1062144","0.0-6.0-0.109","","img/yellow.png","32","trial","null","false","0.2,0.8","2:nogo_b","",""
"null","","html-keyboard-response","548","1063149","0.0-6.0-1.109","","<img src=""img/yellow-n.png"" border=""10"">","null","trial","null","","0.2,0.8","2:nogo_b","0",""
"null","","html-keyboard-response","549","1064154","0.0-6.0-2.109","","<div style=""font-size:60px;"">+</div>","null","","","","","","",""
"333.96499999798834","","image-keyboard-response","550","1064488","0.0-6.0-0.110","","img/pink.png","32","trial","32","true","1,0","3:go_c","",""
"null","","html-keyboard-response","551","1065490","0.0-6.0-1.110","","<img src=""img/pink-r.png"" border=""10"">","null","trial","32","","1,0","3:go_c","1",""
"null","","html-keyboard-response","552","1066493","0.0-6.0-2.110","","<div style=""font-size:60px;"">+</div>","null","","","","","","",""
"258.8250000262633","","image-keyboard-response","553","1066752","0.0-6.0-0.111","","img/orange.png","32","trial","null","false","0,1","4:nogo_d","",""
"null","","html-keyboard-response","554","1067755","0.0-6.0-1.111","","<img src=""img/orange-n.png"" border=""10"">","null","trial","null","","0,1","4:nogo_d","0",""
"null","","html-keyboard-response","555","1068757","0.0-6.0-2.111","","<div style=""font-size:60px;"">+</div>","null","","","","","","",""
"370.3100000275299","","image-keyboard-response","556","1069128","0.0-6.0-0.112","","img/pink.png","32","trial","32","true","1,0","3:go_c","",""
"null","","html-keyboard-response","557","1070133","0.0-6.0-1.112","","<img src=""img/pink-r.png"" border=""10"">","null","trial","32","","1,0","3:go_c","1",""
"null","","html-keyboard-response","558","1071137","0.0-6.0-2.112","","<div style=""font-size:60px;"">+</div>","null","","","","","","",""
"590.4649999865796","","image-keyboard-response","559","1071728","0.0-6.0-0.113","","img/green.png","32","trial","32","true","0.8,0.2","1:go_a","",""
"null","","html-keyboard-response","560","1072733","0.0-6.0-1.113","","<img src=""img/green-n.png"" border=""10"">","null","trial","32","","0.8,0.2","1:go_a","0",""
"null","","html-keyboard-response","561","1073738","0.0-6.0-2.113","","<div style=""font-size:60px;"">+</div>","null","","","","","","",""
"949.6700000017881","","image-keyboard-response","562","1074688","0.0-6.0-0.114","","img/yellow.png","32","trial","null","false","0.2,0.8","2:nogo_b","",""
"null","","html-keyboard-response","563","1075689","0.0-6.0-1.114","","<img src=""img/yellow-n.png"" border=""10"">","null","trial","null","","0.2,0.8","2:nogo_b","0",""
"null","","html-keyboard-response","564","1076692","0.0-6.0-2.114","","<div style=""font-size:60px;"">+</div>","null","","","","","","",""
"1091.3299999956507","","image-keyboard-response","565","1077784","0.0-6.0-0.115","","img/orange.png","32","trial","null","false","0,1","4:nogo_d","",""
"null","","html-keyboard-response","566","1078788","0.0-6.0-1.115","","<img src=""img/orange-n.png"" border=""10"">","null","trial","null","","0,1","4:nogo_d","0",""
"null","","html-keyboard-response","567","1079791","0.0-6.0-2.115","","<div style=""font-size:60px;"">+</div>","null","","","","","","",""
"744.1600000020117","","image-keyboard-response","568","1080536","0.0-6.0-0.116","","img/yellow.png","32","trial","null","false","0.2,0.8","2:nogo_b","",""
"null","","html-keyboard-response","569","1081539","0.0-6.0-1.116","","<img src=""img/yellow-n.png"" border=""10"">","null","trial","null","","0.2,0.8","2:nogo_b","0",""
"null","","html-keyboard-response","570","1082544","0.0-6.0-2.116","","<div style=""font-size:60px;"">+</div>","null","","","","","","",""
"null","","image-keyboard-response","571","1084047","0.0-6.0-0.117","","img/orange.png","null","trial","null","true","0,1","4:nogo_d","",""
"null","","html-keyboard-response","572","1085051","0.0-6.0-1.117","","<img src=""img/orange-r.png"">","null","trial","null","","0,1","4:nogo_d","1",""
"null","","html-keyboard-response","573","1086055","0.0-6.0-2.117","","<div style=""font-size:60px;"">+</div>","null","","","","","","",""
"407.57000001030974","","image-keyboard-response","574","1086464","0.0-6.0-0.118","","img/pink.png","32","trial","32","true","1,0","3:go_c","",""
"null","","html-keyboard-response","575","1087466","0.0-6.0-1.118","","<img src=""img/pink-r.png"" border=""10"">","null","trial","32","","1,0","3:go_c","1",""
"null","","html-keyboard-response","576","1088469","0.0-6.0-2.118","","<div style=""font-size:60px;"">+</div>","null","","","","","","",""
"null","","image-keyboard-response","577","1089974","0.0-6.0-0.119","","img/green.png","null","trial","32","false","0.8,0.2","1:go_a","",""
"null","","html-keyboard-response","578","1090978","0.0-6.0-1.119","","<img src=""img/green-r.png"">","null","trial","32","","0.8,0.2","1:go_a","1",""
"null","","html-keyboard-response","579","1091982","0.0-6.0-2.119","","<div style=""font-size:60px;"">+</div>","null","","","","","","",""
"76911.9950000022","","instructions","580","1168892","0.0-7.0","[{""page_index"":0,""viewing_time"":76911.85000000405}]","","","","","","","","",""
"null","","image-keyboard-response","581","1170398","0.0-8.0-0.0","","img/yellow.png","null","trial","null","true","0.2,0.8","4:nogo_d","",""
"null","","html-keyboard-response","582","1171404","0.0-8.0-1.0","","<img src=""img/yellow-n.png"">","null","trial","null","","0.2,0.8","4:nogo_d","0",""
"null","","html-keyboard-response","583","1172408","0.0-8.0-2.0","","<div style=""font-size:60px;"">+</div>","null","","","","","","",""
"308.3349999797065","","image-keyboard-response","584","1172717","0.0-8.0-0.1","","img/orange.png","32","trial","null","false","0.2,0.8","2:nogo_b","",""
"null","","html-keyboard-response","585","1173720","0.0-8.0-1.1","","<img src=""img/orange-n.png"" border=""10"">","null","trial","null","","0.2,0.8","2:nogo_b","0",""
"null","","html-keyboard-response","586","1174724","0.0-8.0-2.1","","<div style=""font-size:60px;"">+</div>","null","","","","","","",""
"304.3550000002142","","image-keyboard-response","587","1175029","0.0-8.0-0.2","","img/blue.png","32","trial","32","true","0.8,0.2","3:go_c","",""
"null","","html-keyboard-response","588","1176035","0.0-8.0-1.2","","<img src=""img/blue-r.png"" border=""10"">","null","trial","32","","0.8,0.2","3:go_c","1",""
"null","","html-keyboard-response","589","1177040","0.0-8.0-2.2","","<div style=""font-size:60px;"">+</div>","null","","","","","","",""
"548.3799999929033","","image-keyboard-response","590","1177589","0.0-8.0-0.3","","img/pink.png","32","trial","32","true","0.8,0.2","1:go_a","",""
"null","","html-keyboard-response","591","1178592","0.0-8.0-1.3","","<img src=""img/pink-n.png"" border=""10"">","null","trial","32","","0.8,0.2","1:go_a","0",""
"null","","html-keyboard-response","592","1179594","0.0-8.0-2.3","","<div style=""font-size:60px;"">+</div>","null","","","","","","",""
"null","","image-keyboard-response","593","1181098","0.0-8.0-0.4","","img/yellow.png","null","trial","null","true","0.2,0.8","4:nogo_d","",""
"null","","html-keyboard-response","594","1182102","0.0-8.0-1.4","","<img src=""img/yellow-r.png"">","null","trial","null","","0.2,0.8","4:nogo_d","1",""
"null","","html-keyboard-response","595","1183106","0.0-8.0-2.4","","<div style=""font-size:60px;"">+</div>","null","","","","","","",""
"610.2950000204146","","image-keyboard-response","596","1183717","0.0-8.0-0.5","","img/orange.png","32","trial","null","false","0.2,0.8","2:nogo_b","",""
"null","","html-keyboard-response","597","1184720","0.0-8.0-1.5","","<img src=""img/orange-r.png"" border=""10"">","null","trial","null","","0.2,0.8","2:nogo_b","1",""
"null","","html-keyboard-response","598","1185722","0.0-8.0-2.5","","<div style=""font-size:60px;"">+</div>","null","","","","","","",""
"826.7399999895133","","image-keyboard-response","599","1186549","0.0-8.0-0.6","","img/pink.png","32","trial","32","true","0.8,0.2","1:go_a","",""
"null","","html-keyboard-response","600","1187553","0.0-8.0-1.6","","<img src=""img/pink-n.png"" border=""10"">","null","trial","32","","0.8,0.2","1:go_a","0",""
"null","","html-keyboard-response","601","1188557","0.0-8.0-2.6","","<div style=""font-size:60px;"">+</div>","null","","","","","","",""
"1422.9300000006333","","image-keyboard-response","602","1189981","0.0-8.0-0.7","","img/blue.png","32","trial","32","true","0.8,0.2","3:go_c","",""
"null","","html-keyboard-response","603","1190983","0.0-8.0-1.7","","<img src=""img/blue-r.png"" border=""10"">","null","trial","32","","0.8,0.2","3:go_c","1",""
"null","","html-keyboard-response","604","1191988","0.0-8.0-2.7","","<div style=""font-size:60px;"">+</div>","null","","","","","","",""
"null","","image-keyboard-response","605","1193491","0.0-8.0-0.8","","img/pink.png","null","trial","32","false","0.8,0.2","1:go_a","",""
"null","","html-keyboard-response","606","1194495","0.0-8.0-1.8","","<img src=""img/pink-n.png"">","null","trial","32","","0.8,0.2","1:go_a","0",""
"null","","html-keyboard-response","607","1195500","0.0-8.0-2.8","","<div style=""font-size:60px;"">+</div>","null","","","","","","",""
"504.73000001511537","","image-keyboard-response","608","1196005","0.0-8.0-0.9","","img/blue.png","32","trial","32","true","0.8,0.2","3:go_c","",""
"null","","html-keyboard-response","609","1197008","0.0-8.0-1.9","","<img src=""img/blue-r.png"" border=""10"">","null","trial","32","","0.8,0.2","3:go_c","1",""
"null","","html-keyboard-response","610","1198013","0.0-8.0-2.9","","<div style=""font-size:60px;"">+</div>","null","","","","","","",""
"null","","image-keyboard-response","611","1199516","0.0-8.0-0.10","","img/yellow.png","null","trial","null","true","0.2,0.8","4:nogo_d","",""
"null","","html-keyboard-response","612","1200521","0.0-8.0-1.10","","<img src=""img/yellow-r.png"">","null","trial","null","","0.2,0.8","4:nogo_d","1",""
"null","","html-keyboard-response","613","1201525","0.0-8.0-2.10","","<div style=""font-size:60px;"">+</div>","null","","","","","","",""
"null","","image-keyboard-response","614","1203028","0.0-8.0-0.11","","img/orange.png","null","trial","null","true","0.2,0.8","2:nogo_b","",""
"null","","html-keyboard-response","615","1204031","0.0-8.0-1.11","","<img src=""img/orange-r.png"">","null","trial","null","","0.2,0.8","2:nogo_b","1",""
"null","","html-keyboard-response","616","1205037","0.0-8.0-2.11","","<div style=""font-size:60px;"">+</div>","null","","","","","","",""
"718.8800000003539","","image-keyboard-response","617","1205756","0.0-8.0-0.12","","img/blue.png","32","trial","32","true","0.8,0.2","3:go_c","",""
"null","","html-keyboard-response","618","1206761","0.0-8.0-1.12","","<img src=""img/blue-n.png"" border=""10"">","null","trial","32","","0.8,0.2","3:go_c","0",""
"null","","html-keyboard-response","619","1207765","0.0-8.0-2.12","","<div style=""font-size:60px;"">+</div>","null","","","","","","",""
"null","","image-keyboard-response","620","1209269","0.0-8.0-0.13","","img/orange.png","null","trial","null","true","0.2,0.8","2:nogo_b","",""
"null","","html-keyboard-response","621","1210273","0.0-8.0-1.13","","<img src=""img/orange-r.png"">","null","trial","null","","0.2,0.8","2:nogo_b","1",""
"null","","html-keyboard-response","622","1211276","0.0-8.0-2.13","","<div style=""font-size:60px;"">+</div>","null","","","","","","",""
"null","","image-keyboard-response","623","1212778","0.0-8.0-0.14","","img/yellow.png","null","trial","null","true","0.2,0.8","4:nogo_d","",""
"null","","html-keyboard-response","624","1213779","0.0-8.0-1.14","","<img src=""img/yellow-r.png"">","null","trial","null","","0.2,0.8","4:nogo_d","1",""
"null","","html-keyboard-response","625","1214781","0.0-8.0-2.14","","<div style=""font-size:60px;"">+</div>","null","","","","","","",""
"null","","image-keyboard-response","626","1216284","0.0-8.0-0.15","","img/pink.png","null","trial","32","false","0.8,0.2","1:go_a","",""
"null","","html-keyboard-response","627","1217285","0.0-8.0-1.15","","<img src=""img/pink-n.png"">","null","trial","32","","0.8,0.2","1:go_a","0",""
"null","","html-keyboard-response","628","1218289","0.0-8.0-2.15","","<div style=""font-size:60px;"">+</div>","null","","","","","","",""
"626.8500000005588","","image-keyboard-response","629","1218916","0.0-8.0-0.16","","img/blue.png","32","trial","32","true","0.8,0.2","3:go_c","",""
"null","","html-keyboard-response","630","1219920","0.0-8.0-1.16","","<img src=""img/blue-n.png"" border=""10"">","null","trial","32","","0.8,0.2","3:go_c","0",""
"null","","html-keyboard-response","631","1220924","0.0-8.0-2.16","","<div style=""font-size:60px;"">+</div>","null","","","","","","",""
"850.1399999950081","","image-keyboard-response","632","1221775","0.0-8.0-0.17","","img/pink.png","32","trial","32","true","0.8,0.2","1:go_a","",""
"null","","html-keyboard-response","633","1222780","0.0-8.0-1.17","","<img src=""img/pink-r.png"" border=""10"">","null","trial","32","","0.8,0.2","1:go_a","1",""
"null","","html-keyboard-response","634","1223785","0.0-8.0-2.17","","<div style=""font-size:60px;"">+</div>","null","","","","","","",""
"null","","image-keyboard-response","635","1225289","0.0-8.0-0.18","","img/yellow.png","null","trial","null","true","0.2,0.8","4:nogo_d","",""
"null","","html-keyboard-response","636","1226294","0.0-8.0-1.18","","<img src=""img/yellow-r.png"">","null","trial","null","","0.2,0.8","4:nogo_d","1",""
"null","","html-keyboard-response","637","1227298","0.0-8.0-2.18","","<div style=""font-size:60px;"">+</div>","null","","","","","","",""
"null","","image-keyboard-response","638","1228799","0.0-8.0-0.19","","img/orange.png","null","trial","null","true","0.2,0.8","2:nogo_b","",""
"null","","html-keyboard-response","639","1229800","0.0-8.0-1.19","","<img src=""img/orange-r.png"">","null","trial","null","","0.2,0.8","2:nogo_b","1",""
"null","","html-keyboard-response","640","1230801","0.0-8.0-2.19","","<div style=""font-size:60px;"">+</div>","null","","","","","","",""
"507.1899999747984","","image-keyboard-response","641","1231309","0.0-8.0-0.20","","img/pink.png","32","trial","32","true","0.8,0.2","1:go_a","",""
"null","","html-keyboard-response","642","1232314","0.0-8.0-1.20","","<img src=""img/pink-r.png"" border=""10"">","null","trial","32","","0.8,0.2","1:go_a","1",""
"null","","html-keyboard-response","643","1233318","0.0-8.0-2.20","","<div style=""font-size:60px;"">+</div>","null","","","","","","",""
"null","","image-keyboard-response","644","1234819","0.0-8.0-0.21","","img/yellow.png","null","trial","null","true","0.2,0.8","4:nogo_d","",""
"null","","html-keyboard-response","645","1235821","0.0-8.0-1.21","","<img src=""img/yellow-r.png"">","null","trial","null","","0.2,0.8","4:nogo_d","1",""
"null","","html-keyboard-response","646","1236823","0.0-8.0-2.21","","<div style=""font-size:60px;"">+</div>","null","","","","","","",""
"444.1149999911431","","image-keyboard-response","647","1237267","0.0-8.0-0.22","","img/blue.png","32","trial","32","true","0.8,0.2","3:go_c","",""
"null","","html-keyboard-response","648","1238272","0.0-8.0-1.22","","<img src=""img/blue-r.png"" border=""10"">","null","trial","32","","0.8,0.2","3:go_c","1",""
"null","","html-keyboard-response","649","1239277","0.0-8.0-2.22","","<div style=""font-size:60px;"">+</div>","null","","","","","","",""
"429.21499998192303","","image-keyboard-response","650","1239707","0.0-8.0-0.23","","img/orange.png","32","trial","null","false","0.2,0.8","2:nogo_b","",""
"null","","html-keyboard-response","651","1240713","0.0-8.0-1.23","","<img src=""img/orange-n.png"" border=""10"">","null","trial","null","","0.2,0.8","2:nogo_b","0",""
"null","","html-keyboard-response","652","1241718","0.0-8.0-2.23","","<div style=""font-size:60px;"">+</div>","null","","","","","","",""
"309.26999999792315","","image-keyboard-response","653","1242027","0.0-8.0-0.24","","img/pink.png","32","trial","32","true","0.8,0.2","1:go_a","",""
"null","","html-keyboard-response","654","1243029","0.0-8.0-1.24","","<img src=""img/pink-r.png"" border=""10"">","null","trial","32","","0.8,0.2","1:go_a","1",""
"null","","html-keyboard-response","655","1244034","0.0-8.0-2.24","","<div style=""font-size:60px;"">+</div>","null","","","","","","",""
"448.5350000031758","","image-keyboard-response","656","1244483","0.0-8.0-0.25","","img/yellow.png","32","trial","null","false","0.2,0.8","4:nogo_d","",""
"null","","html-keyboard-response","657","1245485","0.0-8.0-1.25","","<img src=""img/yellow-n.png"" border=""10"">","null","trial","null","","0.2,0.8","4:nogo_d","0",""
"null","","html-keyboard-response","658","1246489","0.0-8.0-2.25","","<div style=""font-size:60px;"">+</div>","null","","","","","","",""
"361.4700000034645","","image-keyboard-response","659","1246851","0.0-8.0-0.26","","img/orange.png","32","trial","null","false","0.2,0.8","2:nogo_b","",""
"null","","html-keyboard-response","660","1247855","0.0-8.0-1.26","","<img src=""img/orange-r.png"" border=""10"">","null","trial","null","","0.2,0.8","2:nogo_b","1",""
"null","","html-keyboard-response","661","1248860","0.0-8.0-2.26","","<div style=""font-size:60px;"">+</div>","null","","","","","","",""
"null","","image-keyboard-response","662","1250365","0.0-8.0-0.27","","img/blue.png","null","trial","32","false","0.8,0.2","3:go_c","",""
"null","","html-keyboard-response","663","1251371","0.0-8.0-1.27","","<img src=""img/blue-n.png"">","null","trial","32","","0.8,0.2","3:go_c","0",""
"null","","html-keyboard-response","664","1252375","0.0-8.0-2.27","","<div style=""font-size:60px;"">+</div>","null","","","","","","",""
"307.51499999314547","","image-keyboard-response","665","1252683","0.0-8.0-0.28","","img/yellow.png","32","trial","null","false","0.2,0.8","4:nogo_d","",""
"null","","html-keyboard-response","666","1253687","0.0-8.0-1.28","","<img src=""img/yellow-r.png"" border=""10"">","null","trial","null","","0.2,0.8","4:nogo_d","1",""
"null","","html-keyboard-response","667","1254691","0.0-8.0-2.28","","<div style=""font-size:60px;"">+</div>","null","","","","","","",""
"null","","image-keyboard-response","668","1256195","0.0-8.0-0.29","","img/orange.png","null","trial","null","true","0.2,0.8","2:nogo_b","",""
"null","","html-keyboard-response","669","1257200","0.0-8.0-1.29","","<img src=""img/orange-r.png"">","null","trial","null","","0.2,0.8","2:nogo_b","1",""
"null","","html-keyboard-response","670","1258203","0.0-8.0-2.29","","<div style=""font-size:60px;"">+</div>","null","","","","","","",""
"606.9549999956507","","image-keyboard-response","671","1258811","0.0-8.0-0.30","","img/pink.png","32","trial","32","true","0.8,0.2","1:go_a","",""
"null","","html-keyboard-response","672","1259817","0.0-8.0-1.30","","<img src=""img/pink-n.png"" border=""10"">","null","trial","32","","0.8,0.2","1:go_a","0",""
"null","","html-keyboard-response","673","1260821","0.0-8.0-2.30","","<div style=""font-size:60px;"">+</div>","null","","","","","","",""
