"rt","url","trial_type","trial_index","time_elapsed","internal_node_id","view_history","stimulus","key_press","test_part","correct_response","correct","use_rew","which_stim","reward","responses"
"13159.699999988079","consent.html","external-html","0","13226","0.0-0.0","","","","","","","","","",""
"102742.40000000596","","instructions","1","115969","0.0-1.0","[{""page_index"":0,""viewing_time"":6437.9000000059605},{""page_index"":1,""viewing_time"":36127.89999997616},{""page_index"":2,""viewing_time"":5967.600000023842},{""page_index"":3,""viewing_time"":20192.399999976158},{""page_index"":4,""viewing_time"":17327.90000000596},{""page_index"":5,""viewing_time"":7167.9000000059605},{""page_index"":6,""viewing_time"":9520.09999999404}]","","","","","","","","",""
"886.7000000178814","","image-keyboard-response","2","116857","0.0-2.0-0.0","","img/test1.PNG","32","practice","32","true","","","",""
"null","","html-keyboard-response","3","117860","0.0-2.0-1.0","","<img src=""img/test1-reward.PNG"" border=""10px; grey"">","null","","","","","","",""
"null","","html-keyboard-response","4","118872","0.0-2.0-2.0","","<div style=""font-size:60px;"">+</div>","null","","","","","","",""
"null","","image-keyboard-response","5","120386","0.0-2.0-0.1","","img/test2.PNG","null","practice","null","true","","","",""
"null","","html-keyboard-response","6","121387","0.0-2.0-1.1","","<img src=""img/test2-reward.PNG"">","null","","","","","","",""
"null","","html-keyboard-response","7","122402","0.0-2.0-2.1","","<div style=""font-size:60px;"">+</div>","null","","","","","","",""
"null","","image-keyboard-response","8","123921","0.0-2.0-0.2","","img/test3.PNG","null","practice","null","true","","","",""
"null","","html-keyboard-response","9","124942","0.0-2.0-1.2","","<img src=""img/test3-reward.PNG"">","null","","","","","","",""
"null","","html-keyboard-response","10","125947","0.0-2.0-2.2","","<div style=""font-size:60px;"">+</div>","null","","","","","","",""
"null","","image-keyboard-response","11","127464","0.0-2.0-0.3","","img/test2.PNG","null","practice","null","true","","","",""
"null","","html-keyboard-response","12","128474","0.0-2.0-1.3","","<img src=""img/test2-reward.PNG"">","null","","","","","","",""
"null","","html-keyboard-response","13","129477","0.0-2.0-2.3","","<div style=""font-size:60px;"">+</div>","null","","","","","","",""
"650.5","","image-keyboard-response","14","130128","0.0-2.0-0.4","","img/test1.PNG","32","practice","32","true","","","",""
"null","","html-keyboard-response","15","131144","0.0-2.0-1.4","","<img src=""img/test1-reward.PNG"" border=""10px; grey"">","null","","","","","","",""
"null","","html-keyboard-response","16","132152","0.0-2.0-2.4","","<div style=""font-size:60px;"">+</div>","null","","","","","","",""
"null","","image-keyboard-response","17","133657","0.0-2.0-0.5","","img/test3.PNG","null","practice","null","true","","","",""
"null","","html-keyboard-response","18","134667","0.0-2.0-1.5","","<img src=""img/test3-reward.PNG"">","null","","","","","","",""
"null","","html-keyboard-response","19","135683","0.0-2.0-2.5","","<div style=""font-size:60px;"">+</div>","null","","","","","","",""
"null","","image-keyboard-response","20","137194","0.0-2.0-0.6","","img/test3.PNG","null","practice","null","true","","","",""
"null","","html-keyboard-response","21","138208","0.0-2.0-1.6","","<img src=""img/test3-reward.PNG"">","null","","","","","","",""
"null","","html-keyboard-response","22","139221","0.0-2.0-2.6","","<div style=""font-size:60px;"">+</div>","null","","","","","","",""
"null","","image-keyboard-response","23","140734","0.0-2.0-0.7","","img/test2.PNG","null","practice","null","true","","","",""
"null","","html-keyboard-response","24","141742","0.0-2.0-1.7","","<img src=""img/test2-reward.PNG"">","null","","","","","","",""
"null","","html-keyboard-response","25","142745","0.0-2.0-2.7","","<div style=""font-size:60px;"">+</div>","null","","","","","","",""
"518.7000000178814","","image-keyboard-response","26","143264","0.0-2.0-0.8","","img/test1.PNG","32","practice","32","true","","","",""
"null","","html-keyboard-response","27","144278","0.0-2.0-1.8","","<img src=""img/test1-reward.PNG"" border=""10px; grey"">","null","","","","","","",""
"null","","html-keyboard-response","28","145295","0.0-2.0-2.8","","<div style=""font-size:60px;"">+</div>","null","","","","","","",""
"null","","image-keyboard-response","29","146810","0.0-2.0-0.9","","img/test2.PNG","null","practice","null","true","","","",""
"null","","html-keyboard-response","30","147827","0.0-2.0-1.9","","<img src=""img/test2-reward.PNG"">","null","","","","","","",""
"null","","html-keyboard-response","31","148836","0.0-2.0-2.9","","<div style=""font-size:60px;"">+</div>","null","","","","","","",""
"939","","image-keyboard-response","32","149776","0.0-2.0-0.10","","img/test1.PNG","32","practice","32","true","","","",""
"null","","html-keyboard-response","33","150782","0.0-2.0-1.10","","<img src=""img/test1-reward.PNG"" border=""10px; grey"">","null","","","","","","",""
"null","","html-keyboard-response","34","151787","0.0-2.0-2.10","","<div style=""font-size:60px;"">+</div>","null","","","","","","",""
"null","","image-keyboard-response","35","153288","0.0-2.0-0.11","","img/test3.PNG","null","practice","null","true","","","",""
"null","","html-keyboard-response","36","154289","0.0-2.0-1.11","","<img src=""img/test3-reward.PNG"">","null","","","","","","",""
"null","","html-keyboard-response","37","155304","0.0-2.0-2.11","","<div style=""font-size:60px;"">+</div>","null","","","","","","",""
"3095.300000011921","","instructions","38","158400","0.0-3.0","[{""page_index"":0,""viewing_time"":3095.0999999940395}]","","","","","","","","",""
"1223","","image-keyboard-response","39","159624","0.0-4.0-0.0","","img/pink.png","32","trial","null","false","0.2,0.8","2:nogo_b","",""
"null","","html-keyboard-response","40","160629","0.0-4.0-1.0","","<img src=""img/pink-n.png"" border=""10"">","null","trial","null","","0.2,0.8","2:nogo_b","0",""
"null","","html-keyboard-response","41","161635","0.0-4.0-2.0","","<div style=""font-size:60px;"">+</div>","null","","","","","","",""
"844.8000000119209","","image-keyboard-response","42","162480","0.0-4.0-0.1","","img/orange.png","32","trial","32","true","0.8,0.2","1:go_a","",""
"null","","html-keyboard-response","43","163493","0.0-4.0-1.1","","<img src=""img/orange-r.png"" border=""10"">","null","trial","32","","0.8,0.2","1:go_a","1",""
"null","","html-keyboard-response","44","164498","0.0-4.0-2.1","","<div style=""font-size:60px;"">+</div>","null","","","","","","",""
"476.5","","image-keyboard-response","45","164976","0.0-4.0-0.2","","img/orange.png","32","trial","32","true","0.8,0.2","1:go_a","",""
"null","","html-keyboard-response","46","165983","0.0-4.0-1.2","","<img src=""img/orange-r.png"" border=""10"">","null","trial","32","","0.8,0.2","1:go_a","1",""
"null","","html-keyboard-response","47","167004","0.0-4.0-2.2","","<div style=""font-size:60px;"">+</div>","null","","","","","","",""
"null","","image-keyboard-response","48","168524","0.0-4.0-0.3","","img/pink.png","null","trial","null","true","0.2,0.8","2:nogo_b","",""
"null","","html-keyboard-response","49","169544","0.0-4.0-1.3","","<img src=""img/pink-r.png"">","null","trial","null","","0.2,0.8","2:nogo_b","1",""
"null","","html-keyboard-response","50","170564","0.0-4.0-2.3","","<div style=""font-size:60px;"">+</div>","null","","","","","","",""
"507.09999999403954","","image-keyboard-response","51","171072","0.0-4.0-0.4","","img/orange.png","32","trial","32","true","0.8,0.2","1:go_a","",""
"null","","html-keyboard-response","52","172081","0.0-4.0-1.4","","<img src=""img/orange-r.png"" border=""10"">","null","trial","32","","0.8,0.2","1:go_a","1",""
"null","","html-keyboard-response","53","173084","0.0-4.0-2.4","","<div style=""font-size:60px;"">+</div>","null","","","","","","",""
"null","","image-keyboard-response","54","174594","0.0-4.0-0.5","","img/pink.png","null","trial","null","true","0.2,0.8","2:nogo_b","",""
"null","","html-keyboard-response","55","175600","0.0-4.0-1.5","","<img src=""img/pink-n.png"">","null","trial","null","","0.2,0.8","2:nogo_b","0",""
"null","","html-keyboard-response","56","176613","0.0-4.0-2.5","","<div style=""font-size:60px;"">+</div>","null","","","","","","",""
"null","","image-keyboard-response","57","178117","0.0-4.0-0.6","","img/pink.png","null","trial","null","true","0.2,0.8","2:nogo_b","",""
"null","","html-keyboard-response","58","179134","0.0-4.0-1.6","","<img src=""img/pink-n.png"">","null","trial","null","","0.2,0.8","2:nogo_b","0",""
"null","","html-keyboard-response","59","180136","0.0-4.0-2.6","","<div style=""font-size:60px;"">+</div>","null","","","","","","",""
"567.5","","image-keyboard-response","60","180704","0.0-4.0-0.7","","img/orange.png","32","trial","32","true","0.8,0.2","1:go_a","",""
"null","","html-keyboard-response","61","181717","0.0-4.0-1.7","","<img src=""img/orange-r.png"" border=""10"">","null","trial","32","","0.8,0.2","1:go_a","1",""
"null","","html-keyboard-response","62","182732","0.0-4.0-2.7","","<div style=""font-size:60px;"">+</div>","null","","","","","","",""
"579.0999999940395","","image-keyboard-response","63","183312","0.0-4.0-0.8","","img/orange.png","32","trial","32","true","0.8,0.2","1:go_a","",""
"null","","html-keyboard-response","64","184317","0.0-4.0-1.8","","<img src=""img/orange-r.png"" border=""10"">","null","trial","32","","0.8,0.2","1:go_a","1",""
"null","","html-keyboard-response","65","185319","0.0-4.0-2.8","","<div style=""font-size:60px;"">+</div>","null","","","","","","",""
"528.4000000059605","","image-keyboard-response","66","185848","0.0-4.0-0.9","","img/pink.png","32","trial","null","false","0.2,0.8","2:nogo_b","",""
"null","","html-keyboard-response","67","186858","0.0-4.0-1.9","","<img src=""img/pink-n.png"" border=""10"">","null","trial","null","","0.2,0.8","2:nogo_b","0",""
"null","","html-keyboard-response","68","187864","0.0-4.0-2.9","","<div style=""font-size:60px;"">+</div>","null","","","","","","",""
"null","","image-keyboard-response","69","189367","0.0-4.0-0.10","","img/pink.png","null","trial","null","true","0.2,0.8","2:nogo_b","",""
"null","","html-keyboard-response","70","190372","0.0-4.0-1.10","","<img src=""img/pink-r.png"">","null","trial","null","","0.2,0.8","2:nogo_b","1",""
"null","","html-keyboard-response","71","191388","0.0-4.0-2.10","","<div style=""font-size:60px;"">+</div>","null","","","","","","",""
"555.8000000119209","","image-keyboard-response","72","191944","0.0-4.0-0.11","","img/orange.png","32","trial","32","true","0.8,0.2","1:go_a","",""
"null","","html-keyboard-response","73","192949","0.0-4.0-1.11","","<img src=""img/orange-n.png"" border=""10"">","null","trial","32","","0.8,0.2","1:go_a","0",""
"null","","html-keyboard-response","74","193954","0.0-4.0-2.11","","<div style=""font-size:60px;"">+</div>","null","","","","","","",""
"1133.800000011921","","image-keyboard-response","75","195088","0.0-4.0-0.12","","img/pink.png","32","trial","null","false","0.2,0.8","2:nogo_b","",""
"null","","html-keyboard-response","76","196101","0.0-4.0-1.12","","<img src=""img/pink-n.png"" border=""10"">","null","trial","null","","0.2,0.8","2:nogo_b","0",""
"null","","html-keyboard-response","77","197109","0.0-4.0-2.12","","<div style=""font-size:60px;"">+</div>","null","","","","","","",""
"666.6000000238419","","image-keyboard-response","78","197776","0.0-4.0-0.13","","img/orange.png","32","trial","32","true","0.8,0.2","1:go_a","",""
"null","","html-keyboard-response","79","198779","0.0-4.0-1.13","","<img src=""img/orange-r.png"" border=""10"">","null","trial","32","","0.8,0.2","1:go_a","1",""
"null","","html-keyboard-response","80","199783","0.0-4.0-2.13","","<div style=""font-size:60px;"">+</div>","null","","","","","","",""
"736.5999999940395","","image-keyboard-response","81","200520","0.0-4.0-0.14","","img/orange.png","32","trial","32","true","0.8,0.2","1:go_a","",""
"null","","html-keyboard-response","82","201536","0.0-4.0-1.14","","<img src=""img/orange-r.png"" border=""10"">","null","trial","32","","0.8,0.2","1:go_a","1",""
"null","","html-keyboard-response","83","202545","0.0-4.0-2.14","","<div style=""font-size:60px;"">+</div>","null","","","","","","",""
"910","","image-keyboard-response","84","203456","0.0-4.0-0.15","","img/pink.png","32","trial","null","false","0.2,0.8","2:nogo_b","",""
"null","","html-keyboard-response","85","204472","0.0-4.0-1.15","","<img src=""img/pink-n.png"" border=""10"">","null","trial","null","","0.2,0.8","2:nogo_b","0",""
"null","","html-keyboard-response","86","205479","0.0-4.0-2.15","","<div style=""font-size:60px;"">+</div>","null","","","","","","",""
"null","","image-keyboard-response","87","206993","0.0-4.0-0.16","","img/pink.png","null","trial","null","true","0.2,0.8","2:nogo_b","",""
"null","","html-keyboard-response","88","208000","0.0-4.0-1.16","","<img src=""img/pink-r.png"">","null","trial","null","","0.2,0.8","2:nogo_b","1",""
"null","","html-keyboard-response","89","209006","0.0-4.0-2.16","","<div style=""font-size:60px;"">+</div>","null","","","","","","",""
"401","","image-keyboard-response","90","209408","0.0-4.0-0.17","","img/orange.png","32","trial","32","true","0.8,0.2","1:go_a","",""
"null","","html-keyboard-response","91","210424","0.0-4.0-1.17","","<img src=""img/orange-n.png"" border=""10"">","null","trial","32","","0.8,0.2","1:go_a","0",""
"null","","html-keyboard-response","92","211435","0.0-4.0-2.17","","<div style=""font-size:60px;"">+</div>","null","","","","","","",""
"948","","image-keyboard-response","93","212384","0.0-4.0-0.18","","img/pink.png","32","trial","null","false","0.2,0.8","2:nogo_b","",""
"null","","html-keyboard-response","94","213393","0.0-4.0-1.18","","<img src=""img/pink-n.png"" border=""10"">","null","trial","null","","0.2,0.8","2:nogo_b","0",""
"null","","html-keyboard-response","95","214398","0.0-4.0-2.18","","<div style=""font-size:60px;"">+</div>","null","","","","","","",""
"920.9000000059605","","image-keyboard-response","96","215320","0.0-4.0-0.19","","img/orange.png","32","trial","32","true","0.8,0.2","1:go_a","",""
"null","","html-keyboard-response","97","216328","0.0-4.0-1.19","","<img src=""img/orange-r.png"" border=""10"">","null","trial","32","","0.8,0.2","1:go_a","1",""
"null","","html-keyboard-response","98","217342","0.0-4.0-2.19","","<div style=""font-size:60px;"">+</div>","null","","","","","","",""
"545.6000000238419","","image-keyboard-response","99","217888","0.0-4.0-0.20","","img/orange.png","32","trial","32","true","0.8,0.2","1:go_a","",""
"null","","html-keyboard-response","100","218894","0.0-4.0-1.20","","<img src=""img/orange-r.png"" border=""10"">","null","trial","32","","0.8,0.2","1:go_a","1",""
"null","","html-keyboard-response","101","219904","0.0-4.0-2.20","","<div style=""font-size:60px;"">+</div>","null","","","","","","",""
"null","","image-keyboard-response","102","221419","0.0-4.0-0.21","","img/pink.png","null","trial","null","true","0.2,0.8","2:nogo_b","",""
"null","","html-keyboard-response","103","222435","0.0-4.0-1.21","","<img src=""img/pink-r.png"">","null","trial","null","","0.2,0.8","2:nogo_b","1",""
"null","","html-keyboard-response","104","223436","0.0-4.0-2.21","","<div style=""font-size:60px;"">+</div>","null","","","","","","",""
"null","","image-keyboard-response","105","224938","0.0-4.0-0.22","","img/pink.png","null","trial","null","true","0.2,0.8","2:nogo_b","",""
"null","","html-keyboard-response","106","225940","0.0-4.0-1.22","","<img src=""img/pink-n.png"">","null","trial","null","","0.2,0.8","2:nogo_b","0",""
"null","","html-keyboard-response","107","226951","0.0-4.0-2.22","","<div style=""font-size:60px;"">+</div>","null","","","","","","",""
"696.3000000119209","","image-keyboard-response","108","227648","0.0-4.0-0.23","","img/orange.png","32","trial","32","true","0.8,0.2","1:go_a","",""
"null","","html-keyboard-response","109","228650","0.0-4.0-1.23","","<img src=""img/orange-n.png"" border=""10"">","null","trial","32","","0.8,0.2","1:go_a","0",""
"null","","html-keyboard-response","110","229656","0.0-4.0-2.23","","<div style=""font-size:60px;"">+</div>","null","","","","","","",""
"575.2999999821186","","image-keyboard-response","111","230232","0.0-4.0-0.24","","img/orange.png","32","trial","32","true","0.8,0.2","1:go_a","",""
"null","","html-keyboard-response","112","231248","0.0-4.0-1.24","","<img src=""img/orange-n.png"" border=""10"">","null","trial","32","","0.8,0.2","1:go_a","0",""
"null","","html-keyboard-response","113","232264","0.0-4.0-2.24","","<div style=""font-size:60px;"">+</div>","null","","","","","","",""
"911.5","","image-keyboard-response","114","233176","0.0-4.0-0.25","","img/pink.png","32","trial","null","false","0.2,0.8","2:nogo_b","",""
"null","","html-keyboard-response","115","234193","0.0-4.0-1.25","","<img src=""img/pink-n.png"" border=""10"">","null","trial","null","","0.2,0.8","2:nogo_b","0",""
"null","","html-keyboard-response","116","235204","0.0-4.0-2.25","","<div style=""font-size:60px;"">+</div>","null","","","","","","",""
"722.6999999880791","","image-keyboard-response","117","235928","0.0-4.0-0.26","","img/orange.png","32","trial","32","true","0.8,0.2","1:go_a","",""
"null","","html-keyboard-response","118","236936","0.0-4.0-1.26","","<img src=""img/orange-r.png"" border=""10"">","null","trial","32","","0.8,0.2","1:go_a","1",""
"null","","html-keyboard-response","119","237941","0.0-4.0-2.26","","<div style=""font-size:60px;"">+</div>","null","","","","","","",""
"null","","image-keyboard-response","120","239446","0.0-4.0-0.27","","img/pink.png","null","trial","null","true","0.2,0.8","2:nogo_b","",""
"null","","html-keyboard-response","121","240455","0.0-4.0-1.27","","<img src=""img/pink-r.png"">","null","trial","null","","0.2,0.8","2:nogo_b","1",""
"null","","html-keyboard-response","122","241458","0.0-4.0-2.27","","<div style=""font-size:60px;"">+</div>","null","","","","","","",""
"null","","image-keyboard-response","123","242962","0.0-4.0-0.28","","img/pink.png","null","trial","null","true","0.2,0.8","2:nogo_b","",""
"null","","html-keyboard-response","124","243966","0.0-4.0-1.28","","<img src=""img/pink-r.png"">","null","trial","null","","0.2,0.8","2:nogo_b","1",""
"null","","html-keyboard-response","125","244982","0.0-4.0-2.28","","<div style=""font-size:60px;"">+</div>","null","","","","","","",""
"897.5","","image-keyboard-response","126","245880","0.0-4.0-0.29","","img/orange.png","32","trial","32","true","0.8,0.2","1:go_a","",""
"null","","html-keyboard-response","127","246897","0.0-4.0-1.29","","<img src=""img/orange-r.png"" border=""10"">","null","trial","32","","0.8,0.2","1:go_a","1",""
"null","","html-keyboard-response","128","247901","0.0-4.0-2.29","","<div style=""font-size:60px;"">+</div>","null","","","","","","",""
"null","","image-keyboard-response","129","249407","0.0-4.0-0.30","","img/pink.png","null","trial","null","true","0.2,0.8","2:nogo_b","",""
"null","","html-keyboard-response","130","250421","0.0-4.0-1.30","","<img src=""img/pink-n.png"">","null","trial","null","","0.2,0.8","2:nogo_b","0",""
"null","","html-keyboard-response","131","251431","0.0-4.0-2.30","","<div style=""font-size:60px;"">+</div>","null","","","","","","",""
"null","","image-keyboard-response","132","252940","0.0-4.0-0.31","","img/orange.png","null","trial","32","false","0.8,0.2","1:go_a","",""
"null","","html-keyboard-response","133","253956","0.0-4.0-1.31","","<img src=""img/orange-n.png"">","null","trial","32","","0.8,0.2","1:go_a","0",""
"null","","html-keyboard-response","134","254970","0.0-4.0-2.31","","<div style=""font-size:60px;"">+</div>","null","","","","","","",""
"null","","image-keyboard-response","135","256482","0.0-4.0-0.32","","img/pink.png","null","trial","null","true","0.2,0.8","2:nogo_b","",""
"null","","html-keyboard-response","136","257487","0.0-4.0-1.32","","<img src=""img/pink-r.png"">","null","trial","null","","0.2,0.8","2:nogo_b","1",""
"null","","html-keyboard-response","137","258498","0.0-4.0-2.32","","<div style=""font-size:60px;"">+</div>","null","","","","","","",""
"838","","image-keyboard-response","138","259337","0.0-4.0-0.33","","img/orange.png","32","trial","32","true","0.8,0.2","1:go_a","",""
"null","","html-keyboard-response","139","260341","0.0-4.0-1.33","","<img src=""img/orange-r.png"" border=""10"">","null","trial","32","","0.8,0.2","1:go_a","1",""
"null","","html-keyboard-response","140","261343","0.0-4.0-2.33","","<div style=""font-size:60px;"">+</div>","null","","","","","","",""
"656.6999999880791","","image-keyboard-response","141","262000","0.0-4.0-0.34","","img/orange.png","32","trial","32","true","0.8,0.2","1:go_a","",""
"null","","html-keyboard-response","142","263013","0.0-4.0-1.34","","<img src=""img/orange-r.png"" border=""10"">","null","trial","32","","0.8,0.2","1:go_a","1",""
"null","","html-keyboard-response","143","264015","0.0-4.0-2.34","","<div style=""font-size:60px;"">+</div>","null","","","","","","",""
"null","","image-keyboard-response","144","265531","0.0-4.0-0.35","","img/pink.png","null","trial","null","true","0.2,0.8","2:nogo_b","",""
"null","","html-keyboard-response","145","266543","0.0-4.0-1.35","","<img src=""img/pink-r.png"">","null","trial","null","","0.2,0.8","2:nogo_b","1",""
"null","","html-keyboard-response","146","267544","0.0-4.0-2.35","","<div style=""font-size:60px;"">+</div>","null","","","","","","",""
"591.3000000119209","","image-keyboard-response","147","268136","0.0-4.0-0.36","","img/orange.png","32","trial","32","true","0.8,0.2","1:go_a","",""
"null","","html-keyboard-response","148","269149","0.0-4.0-1.36","","<img src=""img/orange-r.png"" border=""10"">","null","trial","32","","0.8,0.2","1:go_a","1",""
"null","","html-keyboard-response","149","270164","0.0-4.0-2.36","","<div style=""font-size:60px;"">+</div>","null","","","","","","",""
"1259.699999988079","","image-keyboard-response","150","271424","0.0-4.0-0.37","","img/pink.png","32","trial","null","false","0.2,0.8","2:nogo_b","",""
"null","","html-keyboard-response","151","272433","0.0-4.0-1.37","","<img src=""img/pink-n.png"" border=""10"">","null","trial","null","","0.2,0.8","2:nogo_b","0",""
"null","","html-keyboard-response","152","273446","0.0-4.0-2.37","","<div style=""font-size:60px;"">+</div>","null","","","","","","",""
"null","","image-keyboard-response","153","274952","0.0-4.0-0.38","","img/pink.png","null","trial","null","true","0.2,0.8","2:nogo_b","",""
"null","","html-keyboard-response","154","275962","0.0-4.0-1.38","","<img src=""img/pink-r.png"">","null","trial","null","","0.2,0.8","2:nogo_b","1",""
"null","","html-keyboard-response","155","276979","0.0-4.0-2.38","","<div style=""font-size:60px;"">+</div>","null","","","","","","",""
"692.8000000119209","","image-keyboard-response","156","277672","0.0-4.0-0.39","","img/orange.png","32","trial","32","true","0.8,0.2","1:go_a","",""
"null","","html-keyboard-response","157","278678","0.0-4.0-1.39","","<img src=""img/orange-n.png"" border=""10"">","null","trial","32","","0.8,0.2","1:go_a","0",""
"null","","html-keyboard-response","158","279685","0.0-4.0-2.39","","<div style=""font-size:60px;"">+</div>","null","","","","","","",""
"802.4000000059605","","image-keyboard-response","159","280488","0.0-4.0-0.40","","img/orange.png","32","trial","32","true","0.8,0.2","1:go_a","",""
"null","","html-keyboard-response","160","281495","0.0-4.0-1.40","","<img src=""img/orange-r.png"" border=""10"">","null","trial","32","","0.8,0.2","1:go_a","1",""
"null","","html-keyboard-response","161","282499","0.0-4.0-2.40","","<div style=""font-size:60px;"">+</div>","null","","","","","","",""
"null","","image-keyboard-response","162","284012","0.0-4.0-0.41","","img/pink.png","null","trial","null","true","0.2,0.8","2:nogo_b","",""
"null","","html-keyboard-response","163","285017","0.0-4.0-1.41","","<img src=""img/pink-r.png"">","null","trial","null","","0.2,0.8","2:nogo_b","1",""
"null","","html-keyboard-response","164","286025","0.0-4.0-2.41","","<div style=""font-size:60px;"">+</div>","null","","","","","","",""
"null","","image-keyboard-response","165","287533","0.0-4.0-0.42","","img/orange.png","null","trial","32","false","0.8,0.2","1:go_a","",""
"null","","html-keyboard-response","166","288545","0.0-4.0-1.42","","<img src=""img/orange-n.png"">","null","trial","32","","0.8,0.2","1:go_a","0",""
"null","","html-keyboard-response","167","289555","0.0-4.0-2.42","","<div style=""font-size:60px;"">+</div>","null","","","","","","",""
"1412.199999988079","","image-keyboard-response","168","290968","0.0-4.0-0.43","","img/pink.png","32","trial","null","false","0.2,0.8","2:nogo_b","",""
"null","","html-keyboard-response","169","291976","0.0-4.0-1.43","","<img src=""img/pink-n.png"" border=""10"">","null","trial","null","","0.2,0.8","2:nogo_b","0",""
"null","","html-keyboard-response","170","292989","0.0-4.0-2.43","","<div style=""font-size:60px;"">+</div>","null","","","","","","",""
"null","","image-keyboard-response","171","294498","0.0-4.0-0.44","","img/pink.png","null","trial","null","true","0.2,0.8","2:nogo_b","",""
"null","","html-keyboard-response","172","295510","0.0-4.0-1.44","","<img src=""img/pink-r.png"">","null","trial","null","","0.2,0.8","2:nogo_b","1",""
"null","","html-keyboard-response","173","296513","0.0-4.0-2.44","","<div style=""font-size:60px;"">+</div>","null","","","","","","",""
"502.59999999403954","","image-keyboard-response","174","297016","0.0-4.0-0.45","","img/orange.png","32","trial","32","true","0.8,0.2","1:go_a","",""
"null","","html-keyboard-response","175","298025","0.0-4.0-1.45","","<img src=""img/orange-r.png"" border=""10"">","null","trial","32","","0.8,0.2","1:go_a","1",""
"null","","html-keyboard-response","176","299029","0.0-4.0-2.45","","<div style=""font-size:60px;"">+</div>","null","","","","","","",""
"938.4000000059605","","image-keyboard-response","177","299968","0.0-4.0-0.46","","img/pink.png","32","trial","null","false","0.2,0.8","2:nogo_b","",""
"null","","html-keyboard-response","178","300973","0.0-4.0-1.46","","<img src=""img/pink-n.png"" border=""10"">","null","trial","null","","0.2,0.8","2:nogo_b","0",""
"null","","html-keyboard-response","179","301985","0.0-4.0-2.46","","<div style=""font-size:60px;"">+</div>","null","","","","","","",""
"null","","image-keyboard-response","180","303489","0.0-4.0-0.47","","img/orange.png","null","trial","32","false","0.8,0.2","1:go_a","",""
"null","","html-keyboard-response","181","304491","0.0-4.0-1.47","","<img src=""img/orange-n.png"">","null","trial","32","","0.8,0.2","1:go_a","0",""
"null","","html-keyboard-response","182","305503","0.0-4.0-2.47","","<div style=""font-size:60px;"">+</div>","null","","","","","","",""
"null","","image-keyboard-response","183","307018","0.0-4.0-0.48","","img/pink.png","null","trial","null","true","0.2,0.8","2:nogo_b","",""
"null","","html-keyboard-response","184","308027","0.0-4.0-1.48","","<img src=""img/pink-r.png"">","null","trial","null","","0.2,0.8","2:nogo_b","1",""
"null","","html-keyboard-response","185","309042","0.0-4.0-2.48","","<div style=""font-size:60px;"">+</div>","null","","","","","","",""
"461.30000001192093","","image-keyboard-response","186","309504","0.0-4.0-0.49","","img/orange.png","32","trial","32","true","0.8,0.2","1:go_a","",""
"null","","html-keyboard-response","187","310509","0.0-4.0-1.49","","<img src=""img/orange-r.png"" border=""10"">","null","trial","32","","0.8,0.2","1:go_a","1",""
"null","","html-keyboard-response","188","311514","0.0-4.0-2.49","","<div style=""font-size:60px;"">+</div>","null","","","","","","",""
"685.9000000059605","","image-keyboard-response","189","312200","0.0-4.0-0.50","","img/orange.png","32","trial","32","true","0.8,0.2","1:go_a","",""
"null","","html-keyboard-response","190","313207","0.0-4.0-1.50","","<img src=""img/orange-r.png"" border=""10"">","null","trial","32","","0.8,0.2","1:go_a","1",""
"null","","html-keyboard-response","191","314211","0.0-4.0-2.50","","<div style=""font-size:60px;"">+</div>","null","","","","","","",""
"null","","image-keyboard-response","192","315724","0.0-4.0-0.51","","img/pink.png","null","trial","null","true","0.2,0.8","2:nogo_b","",""
"null","","html-keyboard-response","193","316740","0.0-4.0-1.51","","<img src=""img/pink-n.png"">","null","trial","null","","0.2,0.8","2:nogo_b","0",""
"null","","html-keyboard-response","194","317748","0.0-4.0-2.51","","<div style=""font-size:60px;"">+</div>","null","","","","","","",""
"null","","image-keyboard-response","195","319258","0.0-4.0-0.52","","img/pink.png","null","trial","null","true","0.2,0.8","2:nogo_b","",""
"null","","html-keyboard-response","196","320269","0.0-4.0-1.52","","<img src=""img/pink-r.png"">","null","trial","null","","0.2,0.8","2:nogo_b","1",""
"null","","html-keyboard-response","197","321277","0.0-4.0-2.52","","<div style=""font-size:60px;"">+</div>","null","","","","","","",""
"null","","image-keyboard-response","198","322778","0.0-4.0-0.53","","img/orange.png","null","trial","32","false","0.8,0.2","1:go_a","",""
"null","","html-keyboard-response","199","323780","0.0-4.0-1.53","","<img src=""img/orange-r.png"">","null","trial","32","","0.8,0.2","1:go_a","1",""
"null","","html-keyboard-response","200","324790","0.0-4.0-2.53","","<div style=""font-size:60px;"">+</div>","null","","","","","","",""
"1249.5999999940395","","image-keyboard-response","201","326040","0.0-4.0-0.54","","img/pink.png","32","trial","null","false","0.2,0.8","2:nogo_b","",""
"null","","html-keyboard-response","202","327049","0.0-4.0-1.54","","<img src=""img/pink-n.png"" border=""10"">","null","trial","null","","0.2,0.8","2:nogo_b","0",""
"null","","html-keyboard-response","203","328057","0.0-4.0-2.54","","<div style=""font-size:60px;"">+</div>","null","","","","","","",""
"1142.5","","image-keyboard-response","204","329200","0.0-4.0-0.55","","img/orange.png","32","trial","32","true","0.8,0.2","1:go_a","",""
"null","","html-keyboard-response","205","330212","0.0-4.0-1.55","","<img src=""img/orange-r.png"" border=""10"">","null","trial","32","","0.8,0.2","1:go_a","1",""
"null","","html-keyboard-response","206","331223","0.0-4.0-2.55","","<div style=""font-size:60px;"">+</div>","null","","","","","","",""
"null","","image-keyboard-response","207","332739","0.0-4.0-0.56","","img/pink.png","null","trial","null","true","0.2,0.8","2:nogo_b","",""
"null","","html-keyboard-response","208","333748","0.0-4.0-1.56","","<img src=""img/pink-r.png"">","null","trial","null","","0.2,0.8","2:nogo_b","1",""
"null","","html-keyboard-response","209","334753","0.0-4.0-2.56","","<div style=""font-size:60px;"">+</div>","null","","","","","","",""
"1198","","image-keyboard-response","210","335952","0.0-4.0-0.57","","img/orange.png","32","trial","32","true","0.8,0.2","1:go_a","",""
"null","","html-keyboard-response","211","336963","0.0-4.0-1.57","","<img src=""img/orange-r.png"" border=""10"">","null","trial","32","","0.8,0.2","1:go_a","1",""
"null","","html-keyboard-response","212","337973","0.0-4.0-2.57","","<div style=""font-size:60px;"">+</div>","null","","","","","","",""
"481.90000000596046","","image-keyboard-response","213","338456","0.0-4.0-0.58","","img/orange.png","32","trial","32","true","0.8,0.2","1:go_a","",""
"null","","html-keyboard-response","214","339468","0.0-4.0-1.58","","<img src=""img/orange-r.png"" border=""10"">","null","trial","32","","0.8,0.2","1:go_a","1",""
"null","","html-keyboard-response","215","340476","0.0-4.0-2.58","","<div style=""font-size:60px;"">+</div>","null","","","","","","",""
"null","","image-keyboard-response","216","341984","0.0-4.0-0.59","","img/pink.png","null","trial","null","true","0.2,0.8","2:nogo_b","",""
"null","","html-keyboard-response","217","342988","0.0-4.0-1.59","","<img src=""img/pink-n.png"">","null","trial","null","","0.2,0.8","2:nogo_b","0",""
"null","","html-keyboard-response","218","343999","0.0-4.0-2.59","","<div style=""font-size:60px;"">+</div>","null","","","","","","",""
"4649","","instructions","219","348648","0.0-5.0","[{""page_index"":0,""viewing_time"":4648.800000011921}]","","","","","","","","",""
"1278.8999999761581","","image-keyboard-response","220","349928","0.0-6.0-0.0","","img/pink.png","32","trial","32","true","1,0","3:go_c","",""
"null","","html-keyboard-response","221","350933","0.0-6.0-1.0","","<img src=""img/pink-r.png"" border=""10"">","null","trial","32","","1,0","3:go_c","1",""
"null","","html-keyboard-response","222","351936","0.0-6.0-2.0","","<div style=""font-size:60px;"">+</div>","null","","","","","","",""
"982.9000000059605","","image-keyboard-response","223","352920","0.0-6.0-0.1","","img/yellow.png","32","trial","null","false","0,1","4:nogo_d","",""
"null","","html-keyboard-response","224","353926","0.0-6.0-1.1","","<img src=""img/yellow-n.png"" border=""10"">","null","trial","null","","0,1","4:nogo_d","0",""
"null","","html-keyboard-response","225","354943","0.0-6.0-2.1","","<div style=""font-size:60px;"">+</div>","null","","","","","","",""
"null","","image-keyboard-response","226","356455","0.0-6.0-0.2","","img/purple.png","null","trial","32","false","0.8,0.2","1:go_a","",""
"null","","html-keyboard-response","227","357456","0.0-6.0-1.2","","<img src=""img/purple-n.png"">","null","trial","32","","0.8,0.2","1:go_a","0",""
"null","","html-keyboard-response","228","358476","0.0-6.0-2.2","","<div style=""font-size:60px;"">+</div>","null","","","","","","",""
"null","","image-keyboard-response","229","359986","0.0-6.0-0.3","","img/green.png","null","trial","null","true","0.2,0.8","2:nogo_b","",""
"null","","html-keyboard-response","230","361001","0.0-6.0-1.3","","<img src=""img/green-r.png"">","null","trial","null","","0.2,0.8","2:nogo_b","1",""
"null","","html-keyboard-response","231","362010","0.0-6.0-2.3","","<div style=""font-size:60px;"">+</div>","null","","","","","","",""
"null","","image-keyboard-response","232","363518","0.0-6.0-0.4","","img/yellow.png","null","trial","null","true","0,1","4:nogo_d","",""
"null","","html-keyboard-response","233","364523","0.0-6.0-1.4","","<img src=""img/yellow-r.png"">","null","trial","null","","0,1","4:nogo_d","1",""
"null","","html-keyboard-response","234","365536","0.0-6.0-2.4","","<div style=""font-size:60px;"">+</div>","null","","","","","","",""
"415","","image-keyboard-response","235","365952","0.0-6.0-0.5","","img/pink.png","32","trial","32","true","1,0","3:go_c","",""
"null","","html-keyboard-response","236","366954","0.0-6.0-1.5","","<img src=""img/pink-r.png"" border=""10"">","null","trial","32","","1,0","3:go_c","1",""
"null","","html-keyboard-response","237","367968","0.0-6.0-2.5","","<div style=""font-size:60px;"">+</div>","null","","","","","","",""
"527.4000000059605","","image-keyboard-response","238","368496","0.0-6.0-0.6","","img/purple.png","32","trial","32","true","0.8,0.2","1:go_a","",""
"null","","html-keyboard-response","239","369498","0.0-6.0-1.6","","<img src=""img/purple-r.png"" border=""10"">","null","trial","32","","0.8,0.2","1:go_a","1",""
"null","","html-keyboard-response","240","370504","0.0-6.0-2.6","","<div style=""font-size:60px;"">+</div>","null","","","","","","",""
"null","","image-keyboard-response","241","372005","0.0-6.0-0.7","","img/green.png","null","trial","null","true","0.2,0.8","2:nogo_b","",""
"null","","html-keyboard-response","242","373021","0.0-6.0-1.7","","<img src=""img/green-r.png"">","null","trial","null","","0.2,0.8","2:nogo_b","1",""
"null","","html-keyboard-response","243","374027","0.0-6.0-2.7","","<div style=""font-size:60px;"">+</div>","null","","","","","","",""
"null","","image-keyboard-response","244","375541","0.0-6.0-0.8","","img/green.png","null","trial","null","true","0.2,0.8","2:nogo_b","",""
"null","","html-keyboard-response","245","376546","0.0-6.0-1.8","","<img src=""img/green-r.png"">","null","trial","null","","0.2,0.8","2:nogo_b","1",""
"null","","html-keyboard-response","246","377559","0.0-6.0-2.8","","<div style=""font-size:60px;"">+</div>","null","","","","","","",""
"null","","image-keyboard-response","247","379060","0.0-6.0-0.9","","img/yellow.png","null","trial","null","true","0,1","4:nogo_d","",""
"null","","html-keyboard-response","248","380064","0.0-6.0-1.9","","<img src=""img/yellow-r.png"">","null","trial","null","","0,1","4:nogo_d","1",""
"null","","html-keyboard-response","249","381067","0.0-6.0-2.9","","<div style=""font-size:60px;"">+</div>","null","","","","","","",""
"436.69999998807907","","image-keyboard-response","250","381504","0.0-6.0-0.10","","img/pink.png","32","trial","32","true","1,0","3:go_c","",""
"null","","html-keyboard-response","251","382517","0.0-6.0-1.10","","<img src=""img/pink-r.png"" border=""10"">","null","trial","32","","1,0","3:go_c","1",""
"null","","html-keyboard-response","252","383524","0.0-6.0-2.10","","<div style=""font-size:60px;"">+</div>","null","","","","","","",""
"458.80000001192093","","image-keyboard-response","253","383984","0.0-6.0-0.11","","img/purple.png","32","trial","32","true","0.8,0.2","1:go_a","",""
"null","","html-keyboard-response","254","384985","0.0-6.0-1.11","","<img src=""img/purple-r.png"" border=""10"">","null","trial","32","","0.8,0.2","1:go_a","1",""
"null","","html-keyboard-response","255","385998","0.0-6.0-2.11","","<div style=""font-size:60px;"">+</div>","null","","","","","","",""
"1217.3999999761581","","image-keyboard-response","256","387216","0.0-6.0-0.12","","img/pink.png","32","trial","32","true","1,0","3:go_c","",""
"null","","html-keyboard-response","257","388225","0.0-6.0-1.12","","<img src=""img/pink-r.png"" border=""10"">","null","trial","32","","1,0","3:go_c","1",""
"null","","html-keyboard-response","258","389238","0.0-6.0-2.12","","<div style=""font-size:60px;"">+</div>","null","","","","","","",""
"null","","image-keyboard-response","259","390755","0.0-6.0-0.13","","img/yellow.png","null","trial","null","true","0,1","4:nogo_d","",""
"null","","html-keyboard-response","260","391765","0.0-6.0-1.13","","<img src=""img/yellow-r.png"">","null","trial","null","","0,1","4:nogo_d","1",""
"null","","html-keyboard-response","261","392776","0.0-6.0-2.13","","<div style=""font-size:60px;"">+</div>","null","","","","","","",""
"null","","image-keyboard-response","262","394285","0.0-6.0-0.14","","img/green.png","null","trial","null","true","0.2,0.8","2:nogo_b","",""
"null","","html-keyboard-response","263","395305","0.0-6.0-1.14","","<img src=""img/green-r.png"">","null","trial","null","","0.2,0.8","2:nogo_b","1",""
"null","","html-keyboard-response","264","396315","0.0-6.0-2.14","","<div style=""font-size:60px;"">+</div>","null","","","","","","",""
"700.2000000178814","","image-keyboard-response","265","397016","0.0-6.0-0.15","","img/purple.png","32","trial","32","true","0.8,0.2","1:go_a","",""
"null","","html-keyboard-response","266","398027","0.0-6.0-1.15","","<img src=""img/purple-r.png"" border=""10"">","null","trial","32","","0.8,0.2","1:go_a","1",""
"null","","html-keyboard-response","267","399033","0.0-6.0-2.15","","<div style=""font-size:60px;"">+</div>","null","","","","","","",""
"null","","image-keyboard-response","268","400554","0.0-6.0-0.16","","img/yellow.png","null","trial","null","true","0,1","4:nogo_d","",""
"null","","html-keyboard-response","269","401557","0.0-6.0-1.16","","<img src=""img/yellow-r.png"">","null","trial","null","","0,1","4:nogo_d","1",""
"null","","html-keyboard-response","270","402569","0.0-6.0-2.16","","<div style=""font-size:60px;"">+</div>","null","","","","","","",""
"526.8999999761581","","image-keyboard-response","271","403096","0.0-6.0-0.17","","img/pink.png","32","trial","32","true","1,0","3:go_c","",""
"null","","html-keyboard-response","272","404102","0.0-6.0-1.17","","<img src=""img/pink-r.png"" border=""10"">","null","trial","32","","1,0","3:go_c","1",""
"null","","html-keyboard-response","273","405116","0.0-6.0-2.17","","<div style=""font-size:60px;"">+</div>","null","","","","","","",""
"451.19999998807907","","image-keyboard-response","274","405568","0.0-6.0-0.18","","img/purple.png","32","trial","32","true","0.8,0.2","1:go_a","",""
"null","","html-keyboard-response","275","406571","0.0-6.0-1.18","","<img src=""img/purple-r.png"" border=""10"">","null","trial","32","","0.8,0.2","1:go_a","1",""
"null","","html-keyboard-response","276","407576","0.0-6.0-2.18","","<div style=""font-size:60px;"">+</div>","null","","","","","","",""
"null","","image-keyboard-response","277","409086","0.0-6.0-0.19","","img/green.png","null","trial","null","true","0.2,0.8","2:nogo_b","",""
"null","","html-keyboard-response","278","410096","0.0-6.0-1.19","","<img src=""img/green-r.png"">","null","trial","null","","0.2,0.8","2:nogo_b","1",""
"null","","html-keyboard-response","279","411104","0.0-6.0-2.19","","<div style=""font-size:60px;"">+</div>","null","","","","","","",""
"null","","image-keyboard-response","280","412618","0.0-6.0-0.20","","img/green.png","null","trial","null","true","0.2,0.8","2:nogo_b","",""
"null","","html-keyboard-response","281","413622","0.0-6.0-1.20","","<img src=""img/green-r.png"">","null","trial","null","","0.2,0.8","2:nogo_b","1",""
"null","","html-keyboard-response","282","414639","0.0-6.0-2.20","","<div style=""font-size:60px;"">+</div>","null","","","","","","",""
"null","","image-keyboard-response","283","416148","0.0-6.0-0.21","","img/yellow.png","null","trial","null","true","0,1","4:nogo_d","",""
"null","","html-keyboard-response","284","417154","0.0-6.0-1.21","","<img src=""img/yellow-r.png"">","null","trial","null","","0,1","4:nogo_d","1",""
"null","","html-keyboard-response","285","418163","0.0-6.0-2.21","","<div style=""font-size:60px;"">+</div>","null","","","","","","",""
"684.1000000238419","","image-keyboard-response","286","418848","0.0-6.0-0.22","","img/pink.png","32","trial","32","true","1,0","3:go_c","",""
"null","","html-keyboard-response","287","419853","0.0-6.0-1.22","","<img src=""img/pink-r.png"" border=""10"">","null","trial","32","","1,0","3:go_c","1",""
"null","","html-keyboard-response","288","420856","0.0-6.0-2.22","","<div style=""font-size:60px;"">+</div>","null","","","","","","",""
"559.1999999880791","","image-keyboard-response","289","421416","0.0-6.0-0.23","","img/purple.png","32","trial","32","true","0.8,0.2","1:go_a","",""
"null","","html-keyboard-response","290","422424","0.0-6.0-1.23","","<img src=""img/purple-n.png"" border=""10"">","null","trial","32","","0.8,0.2","1:go_a","0",""
"null","","html-keyboard-response","291","423435","0.0-6.0-2.23","","<div style=""font-size:60px;"">+</div>","null","","","","","","",""
"676.5","","image-keyboard-response","292","424112","0.0-6.0-0.24","","img/purple.png","32","trial","32","true","0.8,0.2","1:go_a","",""
"null","","html-keyboard-response","293","425121","0.0-6.0-1.24","","<img src=""img/purple-r.png"" border=""10"">","null","trial","32","","0.8,0.2","1:go_a","1",""
"null","","html-keyboard-response","294","426132","0.0-6.0-2.24","","<div style=""font-size:60px;"">+</div>","null","","","","","","",""
"651.5","","image-keyboard-response","295","426784","0.0-6.0-0.25","","img/pink.png","32","trial","32","true","1,0","3:go_c","",""
"null","","html-keyboard-response","296","427802","0.0-6.0-1.25","","<img src=""img/pink-r.png"" border=""10"">","null","trial","32","","1,0","3:go_c","1",""
"null","","html-keyboard-response","297","428812","0.0-6.0-2.25","","<div style=""font-size:60px;"">+</div>","null","","","","","","",""
"null","","image-keyboard-response","298","430332","0.0-6.0-0.26","","img/yellow.png","null","trial","null","true","0,1","4:nogo_d","",""
"null","","html-keyboard-response","299","431352","0.0-6.0-1.26","","<img src=""img/yellow-r.png"">","null","trial","null","","0,1","4:nogo_d","1",""
"null","","html-keyboard-response","300","432356","0.0-6.0-2.26","","<div style=""font-size:60px;"">+</div>","null","","","","","","",""
"null","","image-keyboard-response","301","433861","0.0-6.0-0.27","","img/green.png","null","trial","null","true","0.2,0.8","2:nogo_b","",""
"null","","html-keyboard-response","302","434864","0.0-6.0-1.27","","<img src=""img/green-r.png"">","null","trial","null","","0.2,0.8","2:nogo_b","1",""
"null","","html-keyboard-response","303","435879","0.0-6.0-2.27","","<div style=""font-size:60px;"">+</div>","null","","","","","","",""
"null","","image-keyboard-response","304","437386","0.0-6.0-0.28","","img/green.png","null","trial","null","true","0.2,0.8","2:nogo_b","",""
"null","","html-keyboard-response","305","438394","0.0-6.0-1.28","","<img src=""img/green-r.png"">","null","trial","null","","0.2,0.8","2:nogo_b","1",""
"null","","html-keyboard-response","306","439402","0.0-6.0-2.28","","<div style=""font-size:60px;"">+</div>","null","","","","","","",""
"572.9000000059605","","image-keyboard-response","307","439976","0.0-6.0-0.29","","img/purple.png","32","trial","32","true","0.8,0.2","1:go_a","",""
"null","","html-keyboard-response","308","440989","0.0-6.0-1.29","","<img src=""img/purple-r.png"" border=""10"">","null","trial","32","","0.8,0.2","1:go_a","1",""
"null","","html-keyboard-response","309","442000","0.0-6.0-2.29","","<div style=""font-size:60px;"">+</div>","null","","","","","","",""
"null","","image-keyboard-response","310","443504","0.0-6.0-0.30","","img/yellow.png","null","trial","null","true","0,1","4:nogo_d","",""
"null","","html-keyboard-response","311","444515","0.0-6.0-1.30","","<img src=""img/yellow-r.png"">","null","trial","null","","0,1","4:nogo_d","1",""
"null","","html-keyboard-response","312","445528","0.0-6.0-2.30","","<div style=""font-size:60px;"">+</div>","null","","","","","","",""
"414.90000000596046","","image-keyboard-response","313","445944","0.0-6.0-0.31","","img/pink.png","32","trial","32","true","1,0","3:go_c","",""
"null","","html-keyboard-response","314","446945","0.0-6.0-1.31","","<img src=""img/pink-r.png"" border=""10"">","null","trial","32","","1,0","3:go_c","1",""
"null","","html-keyboard-response","315","447961","0.0-6.0-2.31","","<div style=""font-size:60px;"">+</div>","null","","","","","","",""
"502.09999999403954","","image-keyboard-response","316","448464","0.0-6.0-0.32","","img/purple.png","32","trial","32","true","0.8,0.2","1:go_a","",""
"null","","html-keyboard-response","317","449466","0.0-6.0-1.32","","<img src=""img/purple-r.png"" border=""10"">","null","trial","32","","0.8,0.2","1:go_a","1",""
"null","","html-keyboard-response","318","450474","0.0-6.0-2.32","","<div style=""font-size:60px;"">+</div>","null","","","","","","",""
"null","","image-keyboard-response","319","451980","0.0-6.0-0.33","","img/yellow.png","null","trial","null","true","0,1","4:nogo_d","",""
"null","","html-keyboard-response","320","452990","0.0-6.0-1.33","","<img src=""img/yellow-r.png"">","null","trial","null","","0,1","4:nogo_d","1",""
"null","","html-keyboard-response","321","453994","0.0-6.0-2.33","","<div style=""font-size:60px;"">+</div>","null","","","","","","",""
"845.7999999821186","","image-keyboard-response","322","454840","0.0-6.0-0.34","","img/pink.png","32","trial","32","true","1,0","3:go_c","",""
"null","","html-keyboard-response","323","455845","0.0-6.0-1.34","","<img src=""img/pink-r.png"" border=""10"">","null","trial","32","","1,0","3:go_c","1",""
"null","","html-keyboard-response","324","456853","0.0-6.0-2.34","","<div style=""font-size:60px;"">+</div>","null","","","","","","",""
"null","","image-keyboard-response","325","458357","0.0-6.0-0.35","","img/green.png","null","trial","null","true","0.2,0.8","2:nogo_b","",""
"null","","html-keyboard-response","326","459373","0.0-6.0-1.35","","<img src=""img/green-r.png"">","null","trial","null","","0.2,0.8","2:nogo_b","1",""
"null","","html-keyboard-response","327","460389","0.0-6.0-2.35","","<div style=""font-size:60px;"">+</div>","null","","","","","","",""
"562.5999999940395","","image-keyboard-response","328","460952","0.0-6.0-0.36","","img/purple.png","32","trial","32","true","0.8,0.2","1:go_a","",""
"null","","html-keyboard-response","329","461962","0.0-6.0-1.36","","<img src=""img/purple-r.png"" border=""10"">","null","trial","32","","0.8,0.2","1:go_a","1",""
"null","","html-keyboard-response","330","462963","0.0-6.0-2.36","","<div style=""font-size:60px;"">+</div>","null","","","","","","",""
"835.7999999821186","","image-keyboard-response","331","463800","0.0-6.0-0.37","","img/pink.png","32","trial","32","true","1,0","3:go_c","",""
"null","","html-keyboard-response","332","464813","0.0-6.0-1.37","","<img src=""img/pink-r.png"" border=""10"">","null","trial","32","","1,0","3:go_c","1",""
"null","","html-keyboard-response","333","465830","0.0-6.0-2.37","","<div style=""font-size:60px;"">+</div>","null","","","","","","",""
"null","","image-keyboard-response","334","467332","0.0-6.0-0.38","","img/green.png","null","trial","null","true","0.2,0.8","2:nogo_b","",""
"null","","html-keyboard-response","335","468336","0.0-6.0-1.38","","<img src=""img/green-n.png"">","null","trial","null","","0.2,0.8","2:nogo_b","0",""
"null","","html-keyboard-response","336","469348","0.0-6.0-2.38","","<div style=""font-size:60px;"">+</div>","null","","","","","","",""
"null","","image-keyboard-response","337","470854","0.0-6.0-0.39","","img/yellow.png","null","trial","null","true","0,1","4:nogo_d","",""
"null","","html-keyboard-response","338","471870","0.0-6.0-1.39","","<img src=""img/yellow-r.png"">","null","trial","null","","0,1","4:nogo_d","1",""
"null","","html-keyboard-response","339","472886","0.0-6.0-2.39","","<div style=""font-size:60px;"">+</div>","null","","","","","","",""
"513.2999999821186","","image-keyboard-response","340","473400","0.0-6.0-0.40","","img/pink.png","32","trial","32","true","1,0","3:go_c","",""
"null","","html-keyboard-response","341","474408","0.0-6.0-1.40","","<img src=""img/pink-r.png"" border=""10"">","null","trial","32","","1,0","3:go_c","1",""
"null","","html-keyboard-response","342","475411","0.0-6.0-2.40","","<div style=""font-size:60px;"">+</div>","null","","","","","","",""
"null","","image-keyboard-response","343","476916","0.0-6.0-0.41","","img/green.png","null","trial","null","true","0.2,0.8","2:nogo_b","",""
"null","","html-keyboard-response","344","477930","0.0-6.0-1.41","","<img src=""img/green-n.png"">","null","trial","null","","0.2,0.8","2:nogo_b","0",""
"null","","html-keyboard-response","345","478931","0.0-6.0-2.41","","<div style=""font-size:60px;"">+</div>","null","","","","","","",""
"444.7000000178814","","image-keyboard-response","346","479376","0.0-6.0-0.42","","img/purple.png","32","trial","32","true","0.8,0.2","1:go_a","",""
"null","","html-keyboard-response","347","480380","0.0-6.0-1.42","","<img src=""img/purple-r.png"" border=""10"">","null","trial","32","","0.8,0.2","1:go_a","1",""
"null","","html-keyboard-response","348","481395","0.0-6.0-2.42","","<div style=""font-size:60px;"">+</div>","null","","","","","","",""
"null","","image-keyboard-response","349","482900","0.0-6.0-0.43","","img/yellow.png","null","trial","null","true","0,1","4:nogo_d","",""
"null","","html-keyboard-response","350","483905","0.0-6.0-1.43","","<img src=""img/yellow-r.png"">","null","trial","null","","0,1","4:nogo_d","1",""
"null","","html-keyboard-response","351","484911","0.0-6.0-2.43","","<div style=""font-size:60px;"">+</div>","null","","","","","","",""
"null","","image-keyboard-response","352","486423","0.0-6.0-0.44","","img/green.png","null","trial","null","true","0.2,0.8","2:nogo_b","",""
"null","","html-keyboard-response","353","487436","0.0-6.0-1.44","","<img src=""img/green-r.png"">","null","trial","null","","0.2,0.8","2:nogo_b","1",""
"null","","html-keyboard-response","354","488442","0.0-6.0-2.44","","<div style=""font-size:60px;"">+</div>","null","","","","","","",""
"509.2000000178814","","image-keyboard-response","355","488952","0.0-6.0-0.45","","img/purple.png","32","trial","32","true","0.8,0.2","1:go_a","",""
"null","","html-keyboard-response","356","489954","0.0-6.0-1.45","","<img src=""img/purple-r.png"" border=""10"">","null","trial","32","","0.8,0.2","1:go_a","1",""
"null","","html-keyboard-response","357","490970","0.0-6.0-2.45","","<div style=""font-size:60px;"">+</div>","null","","","","","","",""
"null","","image-keyboard-response","358","492474","0.0-6.0-0.46","","img/yellow.png","null","trial","null","true","0,1","4:nogo_d","",""
"null","","html-keyboard-response","359","493476","0.0-6.0-1.46","","<img src=""img/yellow-r.png"">","null","trial","null","","0,1","4:nogo_d","1",""
"null","","html-keyboard-response","360","494481","0.0-6.0-2.46","","<div style=""font-size:60px;"">+</div>","null","","","","","","",""
"510.59999999403954","","image-keyboard-response","361","494992","0.0-6.0-0.47","","img/pink.png","32","trial","32","true","1,0","3:go_c","",""
"null","","html-keyboard-response","362","495994","0.0-6.0-1.47","","<img src=""img/pink-r.png"" border=""10"">","null","trial","32","","1,0","3:go_c","1",""
"null","","html-keyboard-response","363","496996","0.0-6.0-2.47","","<div style=""font-size:60px;"">+</div>","null","","","","","","",""
"555.5999999940395","","image-keyboard-response","364","497552","0.0-6.0-0.48","","img/purple.png","32","trial","32","true","0.8,0.2","1:go_a","",""
"null","","html-keyboard-response","365","498568","0.0-6.0-1.48","","<img src=""img/purple-r.png"" border=""10"">","null","trial","32","","0.8,0.2","1:go_a","1",""
"null","","html-keyboard-response","366","499576","0.0-6.0-2.48","","<div style=""font-size:60px;"">+</div>","null","","","","","","",""
"null","","image-keyboard-response","367","501078","0.0-6.0-0.49","","img/green.png","null","trial","null","true","0.2,0.8","2:nogo_b","",""
"null","","html-keyboard-response","368","502087","0.0-6.0-1.49","","<img src=""img/green-r.png"">","null","trial","null","","0.2,0.8","2:nogo_b","1",""
"null","","html-keyboard-response","369","503088","0.0-6.0-2.49","","<div style=""font-size:60px;"">+</div>","null","","","","","","",""
"null","","image-keyboard-response","370","504593","0.0-6.0-0.50","","img/yellow.png","null","trial","null","true","0,1","4:nogo_d","",""
"null","","html-keyboard-response","371","505608","0.0-6.0-1.50","","<img src=""img/yellow-r.png"">","null","trial","null","","0,1","4:nogo_d","1",""
"null","","html-keyboard-response","372","506616","0.0-6.0-2.50","","<div style=""font-size:60px;"">+</div>","null","","","","","","",""
"528","","image-keyboard-response","373","507144","0.0-6.0-0.51","","img/pink.png","32","trial","32","true","1,0","3:go_c","",""
"null","","html-keyboard-response","374","508153","0.0-6.0-1.51","","<img src=""img/pink-r.png"" border=""10"">","null","trial","32","","1,0","3:go_c","1",""
"null","","html-keyboard-response","375","509170","0.0-6.0-2.51","","<div style=""font-size:60px;"">+</div>","null","","","","","","",""
"797.3000000119209","","image-keyboard-response","376","509968","0.0-6.0-0.52","","img/pink.png","32","trial","32","true","1,0","3:go_c","",""
"null","","html-keyboard-response","377","510980","0.0-6.0-1.52","","<img src=""img/pink-r.png"" border=""10"">","null","trial","32","","1,0","3:go_c","1",""
"null","","html-keyboard-response","378","511984","0.0-6.0-2.52","","<div style=""font-size:60px;"">+</div>","null","","","","","","",""
"542.9000000059605","","image-keyboard-response","379","512528","0.0-6.0-0.53","","img/green.png","32","trial","null","false","0.2,0.8","2:nogo_b","",""
"null","","html-keyboard-response","380","513529","0.0-6.0-1.53","","<img src=""img/green-n.png"" border=""10"">","null","trial","null","","0.2,0.8","2:nogo_b","0",""
"null","","html-keyboard-response","381","514531","0.0-6.0-2.53","","<div style=""font-size:60px;"">+</div>","null","","","","","","",""
"null","","image-keyboard-response","382","516037","0.0-6.0-0.54","","img/yellow.png","null","trial","null","true","0,1","4:nogo_d","",""
"null","","html-keyboard-response","383","517038","0.0-6.0-1.54","","<img src=""img/yellow-r.png"">","null","trial","null","","0,1","4:nogo_d","1",""
"null","","html-keyboard-response","384","518050","0.0-6.0-2.54","","<div style=""font-size:60px;"">+</div>","null","","","","","","",""
"692.7999999821186","","image-keyboard-response","385","518744","0.0-6.0-0.55","","img/purple.png","32","trial","32","true","0.8,0.2","1:go_a","",""
"null","","html-keyboard-response","386","519755","0.0-6.0-1.55","","<img src=""img/purple-r.png"" border=""10"">","null","trial","32","","0.8,0.2","1:go_a","1",""
"null","","html-keyboard-response","387","520762","0.0-6.0-2.55","","<div style=""font-size:60px;"">+</div>","null","","","","","","",""
"null","","image-keyboard-response","388","522270","0.0-6.0-0.56","","img/yellow.png","null","trial","null","true","0,1","4:nogo_d","",""
"null","","html-keyboard-response","389","523272","0.0-6.0-1.56","","<img src=""img/yellow-r.png"">","null","trial","null","","0,1","4:nogo_d","1",""
"null","","html-keyboard-response","390","524274","0.0-6.0-2.56","","<div style=""font-size:60px;"">+</div>","null","","","","","","",""
"645","","image-keyboard-response","391","524920","0.0-6.0-0.57","","img/pink.png","32","trial","32","true","1,0","3:go_c","",""
"null","","html-keyboard-response","392","525925","0.0-6.0-1.57","","<img src=""img/pink-r.png"" border=""10"">","null","trial","32","","1,0","3:go_c","1",""
"null","","html-keyboard-response","393","526932","0.0-6.0-2.57","","<div style=""font-size:60px;"">+</div>","null","","","","","","",""
"411.89999997615814","","image-keyboard-response","394","527344","0.0-6.0-0.58","","img/green.png","32","trial","null","false","0.2,0.8","2:nogo_b","",""
"null","","html-keyboard-response","395","528349","0.0-6.0-1.58","","<img src=""img/green-n.png"" border=""10"">","null","trial","null","","0.2,0.8","2:nogo_b","0",""
"null","","html-keyboard-response","396","529364","0.0-6.0-2.58","","<div style=""font-size:60px;"">+</div>","null","","","","","","",""
"731.6999999880791","","image-keyboard-response","397","530096","0.0-6.0-0.59","","img/purple.png","32","trial","32","true","0.8,0.2","1:go_a","",""
"null","","html-keyboard-response","398","531110","0.0-6.0-1.59","","<img src=""img/purple-r.png"" border=""10"">","null","trial","32","","0.8,0.2","1:go_a","1",""
"null","","html-keyboard-response","399","532122","0.0-6.0-2.59","","<div style=""font-size:60px;"">+</div>","null","","","","","","",""
"null","","image-keyboard-response","400","533626","0.0-6.0-0.60","","img/green.png","null","trial","null","true","0.2,0.8","2:nogo_b","",""
"null","","html-keyboard-response","401","534628","0.0-6.0-1.60","","<img src=""img/green-r.png"">","null","trial","null","","0.2,0.8","2:nogo_b","1",""
"null","","html-keyboard-response","402","535636","0.0-6.0-2.60","","<div style=""font-size:60px;"">+</div>","null","","","","","","",""
"null","","image-keyboard-response","403","537140","0.0-6.0-0.61","","img/purple.png","null","trial","32","false","0.8,0.2","1:go_a","",""
"null","","html-keyboard-response","404","538151","0.0-6.0-1.61","","<img src=""img/purple-n.png"">","null","trial","32","","0.8,0.2","1:go_a","0",""
"null","","html-keyboard-response","405","539160","0.0-6.0-2.61","","<div style=""font-size:60px;"">+</div>","null","","","","","","",""
"566.5999999940395","","image-keyboard-response","406","539728","0.0-6.0-0.62","","img/pink.png","32","trial","32","true","1,0","3:go_c","",""
"null","","html-keyboard-response","407","540731","0.0-6.0-1.62","","<img src=""img/pink-r.png"" border=""10"">","null","trial","32","","1,0","3:go_c","1",""
"null","","html-keyboard-response","408","541739","0.0-6.0-2.62","","<div style=""font-size:60px;"">+</div>","null","","","","","","",""
"null","","image-keyboard-response","409","543260","0.0-6.0-0.63","","img/yellow.png","null","trial","null","true","0,1","4:nogo_d","",""
"null","","html-keyboard-response","410","544263","0.0-6.0-1.63","","<img src=""img/yellow-r.png"">","null","trial","null","","0,1","4:nogo_d","1",""
"null","","html-keyboard-response","411","545267","0.0-6.0-2.63","","<div style=""font-size:60px;"">+</div>","null","","","","","","",""
"772.4000000059605","","image-keyboard-response","412","546040","0.0-6.0-0.64","","img/pink.png","32","trial","32","true","1,0","3:go_c","",""
"null","","html-keyboard-response","413","547050","0.0-6.0-1.64","","<img src=""img/pink-r.png"" border=""10"">","null","trial","32","","1,0","3:go_c","1",""
"null","","html-keyboard-response","414","548053","0.0-6.0-2.64","","<div style=""font-size:60px;"">+</div>","null","","","","","","",""
"null","","image-keyboard-response","415","549555","0.0-6.0-0.65","","img/green.png","null","trial","null","true","0.2,0.8","2:nogo_b","",""
"null","","html-keyboard-response","416","550557","0.0-6.0-1.65","","<img src=""img/green-r.png"">","null","trial","null","","0.2,0.8","2:nogo_b","1",""
"null","","html-keyboard-response","417","551568","0.0-6.0-2.65","","<div style=""font-size:60px;"">+</div>","null","","","","","","",""
"null","","image-keyboard-response","418","553081","0.0-6.0-0.66","","img/yellow.png","null","trial","null","true","0,1","4:nogo_d","",""
"null","","html-keyboard-response","419","554088","0.0-6.0-1.66","","<img src=""img/yellow-r.png"">","null","trial","null","","0,1","4:nogo_d","1",""
"null","","html-keyboard-response","420","555100","0.0-6.0-2.66","","<div style=""font-size:60px;"">+</div>","null","","","","","","",""
"530.6999999880791","","image-keyboard-response","421","555632","0.0-6.0-0.67","","img/purple.png","32","trial","32","true","0.8,0.2","1:go_a","",""
"null","","html-keyboard-response","422","556646","0.0-6.0-1.67","","<img src=""img/purple-r.png"" border=""10"">","null","trial","32","","0.8,0.2","1:go_a","1",""
"null","","html-keyboard-response","423","557648","0.0-6.0-2.67","","<div style=""font-size:60px;"">+</div>","null","","","","","","",""
"null","","image-keyboard-response","424","559164","0.0-6.0-0.68","","img/yellow.png","null","trial","null","true","0,1","4:nogo_d","",""
"null","","html-keyboard-response","425","560173","0.0-6.0-1.68","","<img src=""img/yellow-r.png"">","null","trial","null","","0,1","4:nogo_d","1",""
"null","","html-keyboard-response","426","561177","0.0-6.0-2.68","","<div style=""font-size:60px;"">+</div>","null","","","","","","",""
"518.0999999940395","","image-keyboard-response","427","561696","0.0-6.0-0.69","","img/pink.png","32","trial","32","true","1,0","3:go_c","",""
"null","","html-keyboard-response","428","562706","0.0-6.0-1.69","","<img src=""img/pink-r.png"" border=""10"">","null","trial","32","","1,0","3:go_c","1",""
"null","","html-keyboard-response","429","563716","0.0-6.0-2.69","","<div style=""font-size:60px;"">+</div>","null","","","","","","",""
"491.30000001192093","","image-keyboard-response","430","564208","0.0-6.0-0.70","","img/purple.png","32","trial","32","true","0.8,0.2","1:go_a","",""
"null","","html-keyboard-response","431","565215","0.0-6.0-1.70","","<img src=""img/purple-n.png"" border=""10"">","null","trial","32","","0.8,0.2","1:go_a","0",""
"null","","html-keyboard-response","432","566217","0.0-6.0-2.70","","<div style=""font-size:60px;"">+</div>","null","","","","","","",""
"null","","image-keyboard-response","433","567734","0.0-6.0-0.71","","img/green.png","null","trial","null","true","0.2,0.8","2:nogo_b","",""
"null","","html-keyboard-response","434","568748","0.0-6.0-1.71","","<img src=""img/green-n.png"">","null","trial","null","","0.2,0.8","2:nogo_b","0",""
"null","","html-keyboard-response","435","569753","0.0-6.0-2.71","","<div style=""font-size:60px;"">+</div>","null","","","","","","",""
"597.7000000178814","","image-keyboard-response","436","570352","0.0-6.0-0.72","","img/purple.png","32","trial","32","true","0.8,0.2","1:go_a","",""
"null","","html-keyboard-response","437","571358","0.0-6.0-1.72","","<img src=""img/purple-n.png"" border=""10"">","null","trial","32","","0.8,0.2","1:go_a","0",""
"null","","html-keyboard-response","438","572374","0.0-6.0-2.72","","<div style=""font-size:60px;"">+</div>","null","","","","","","",""
"417.90000000596046","","image-keyboard-response","439","572792","0.0-6.0-0.73","","img/pink.png","32","trial","32","true","1,0","3:go_c","",""
"null","","html-keyboard-response","440","573798","0.0-6.0-1.73","","<img src=""img/pink-r.png"" border=""10"">","null","trial","32","","1,0","3:go_c","1",""
"null","","html-keyboard-response","441","574808","0.0-6.0-2.73","","<div style=""font-size:60px;"">+</div>","null","","","","","","",""
"null","","image-keyboard-response","442","576318","0.0-6.0-0.74","","img/yellow.png","null","trial","null","true","0,1","4:nogo_d","",""
"null","","html-keyboard-response","443","577328","0.0-6.0-1.74","","<img src=""img/yellow-r.png"">","null","trial","null","","0,1","4:nogo_d","1",""
"null","","html-keyboard-response","444","578341","0.0-6.0-2.74","","<div style=""font-size:60px;"">+</div>","null","","","","","","",""
"null","","image-keyboard-response","445","579848","0.0-6.0-0.75","","img/green.png","null","trial","null","true","0.2,0.8","2:nogo_b","",""
"null","","html-keyboard-response","446","580868","0.0-6.0-1.75","","<img src=""img/green-r.png"">","null","trial","null","","0.2,0.8","2:nogo_b","1",""
"null","","html-keyboard-response","447","581888","0.0-6.0-2.75","","<div style=""font-size:60px;"">+</div>","null","","","","","","",""
"null","","image-keyboard-response","448","583399","0.0-6.0-0.76","","img/green.png","null","trial","null","true","0.2,0.8","2:nogo_b","",""
"null","","html-keyboard-response","449","584409","0.0-6.0-1.76","","<img src=""img/green-r.png"">","null","trial","null","","0.2,0.8","2:nogo_b","1",""
"null","","html-keyboard-response","450","585412","0.0-6.0-2.76","","<div style=""font-size:60px;"">+</div>","null","","","","","","",""
"587.5","","image-keyboard-response","451","586000","0.0-6.0-0.77","","img/pink.png","32","trial","32","true","1,0","3:go_c","",""
"null","","html-keyboard-response","452","587014","0.0-6.0-1.77","","<img src=""img/pink-r.png"" border=""10"">","null","trial","32","","1,0","3:go_c","1",""
"null","","html-keyboard-response","453","588017","0.0-6.0-2.77","","<div style=""font-size:60px;"">+</div>","null","","","","","","",""
"382","","image-keyboard-response","454","588400","0.0-6.0-0.78","","img/purple.png","32","trial","32","true","0.8,0.2","1:go_a","",""
"null","","html-keyboard-response","455","589422","0.0-6.0-1.78","","<img src=""img/purple-r.png"" border=""10"">","null","trial","32","","0.8,0.2","1:go_a","1",""
"null","","html-keyboard-response","456","590425","0.0-6.0-2.78","","<div style=""font-size:60px;"">+</div>","null","","","","","","",""
"null","","image-keyboard-response","457","591942","0.0-6.0-0.79","","img/yellow.png","null","trial","null","true","0,1","4:nogo_d","",""
"null","","html-keyboard-response","458","592946","0.0-6.0-1.79","","<img src=""img/yellow-r.png"">","null","trial","null","","0,1","4:nogo_d","1",""
"null","","html-keyboard-response","459","593960","0.0-6.0-2.79","","<div style=""font-size:60px;"">+</div>","null","","","","","","",""
"679.5999999940395","","image-keyboard-response","460","594640","0.0-6.0-0.80","","img/purple.png","32","trial","32","true","0.8,0.2","1:go_a","",""
"null","","html-keyboard-response","461","595652","0.0-6.0-1.80","","<img src=""img/purple-n.png"" border=""10"">","null","trial","32","","0.8,0.2","1:go_a","0",""
"null","","html-keyboard-response","462","596657","0.0-6.0-2.80","","<div style=""font-size:60px;"">+</div>","null","","","","","","",""
"null","","image-keyboard-response","463","598173","0.0-6.0-0.81","","img/green.png","null","trial","null","true","0.2,0.8","2:nogo_b","",""
"null","","html-keyboard-response","464","599183","0.0-6.0-1.81","","<img src=""img/green-r.png"">","null","trial","null","","0.2,0.8","2:nogo_b","1",""
"null","","html-keyboard-response","465","600200","0.0-6.0-2.81","","<div style=""font-size:60px;"">+</div>","null","","","","","","",""
"null","","image-keyboard-response","466","601703","0.0-6.0-0.82","","img/yellow.png","null","trial","null","true","0,1","4:nogo_d","",""
"null","","html-keyboard-response","467","602716","0.0-6.0-1.82","","<img src=""img/yellow-r.png"">","null","trial","null","","0,1","4:nogo_d","1",""
"null","","html-keyboard-response","468","603721","0.0-6.0-2.82","","<div style=""font-size:60px;"">+</div>","null","","","","","","",""
"605.9000000059605","","image-keyboard-response","469","604328","0.0-6.0-0.83","","img/pink.png","32","trial","32","true","1,0","3:go_c","",""
"null","","html-keyboard-response","470","605337","0.0-6.0-1.83","","<img src=""img/pink-r.png"" border=""10"">","null","trial","32","","1,0","3:go_c","1",""
"null","","html-keyboard-response","471","606339","0.0-6.0-2.83","","<div style=""font-size:60px;"">+</div>","null","","","","","","",""
"524.0999999940395","","image-keyboard-response","472","606864","0.0-6.0-0.84","","img/purple.png","32","trial","32","true","0.8,0.2","1:go_a","",""
"null","","html-keyboard-response","473","607868","0.0-6.0-1.84","","<img src=""img/purple-r.png"" border=""10"">","null","trial","32","","0.8,0.2","1:go_a","1",""
"null","","html-keyboard-response","474","608874","0.0-6.0-2.84","","<div style=""font-size:60px;"">+</div>","null","","","","","","",""
"null","","image-keyboard-response","475","610389","0.0-6.0-0.85","","img/green.png","null","trial","null","true","0.2,0.8","2:nogo_b","",""
"null","","html-keyboard-response","476","611405","0.0-6.0-1.85","","<img src=""img/green-r.png"">","null","trial","null","","0.2,0.8","2:nogo_b","1",""
"null","","html-keyboard-response","477","612420","0.0-6.0-2.85","","<div style=""font-size:60px;"">+</div>","null","","","","","","",""
"714.9000000059605","","image-keyboard-response","478","613136","0.0-6.0-0.86","","img/pink.png","32","trial","32","true","1,0","3:go_c","",""
"null","","html-keyboard-response","479","614138","0.0-6.0-1.86","","<img src=""img/pink-r.png"" border=""10"">","null","trial","32","","1,0","3:go_c","1",""
"null","","html-keyboard-response","480","615142","0.0-6.0-2.86","","<div style=""font-size:60px;"">+</div>","null","","","","","","",""
"null","","image-keyboard-response","481","616656","0.0-6.0-0.87","","img/yellow.png","null","trial","null","true","0,1","4:nogo_d","",""
"null","","html-keyboard-response","482","617669","0.0-6.0-1.87","","<img src=""img/yellow-r.png"">","null","trial","null","","0,1","4:nogo_d","1",""
"null","","html-keyboard-response","483","618685","0.0-6.0-2.87","","<div style=""font-size:60px;"">+</div>","null","","","","","","",""
"698.1999999880791","","image-keyboard-response","484","619384","0.0-6.0-0.88","","img/pink.png","32","trial","32","true","1,0","3:go_c","",""
"null","","html-keyboard-response","485","620386","0.0-6.0-1.88","","<img src=""img/pink-r.png"" border=""10"">","null","trial","32","","1,0","3:go_c","1",""
"null","","html-keyboard-response","486","621396","0.0-6.0-2.88","","<div style=""font-size:60px;"">+</div>","null","","","","","","",""
"null","","image-keyboard-response","487","622904","0.0-6.0-0.89","","img/green.png","null","trial","null","true","0.2,0.8","2:nogo_b","",""
"null","","html-keyboard-response","488","623919","0.0-6.0-1.89","","<img src=""img/green-n.png"">","null","trial","null","","0.2,0.8","2:nogo_b","0",""
"null","","html-keyboard-response","489","624924","0.0-6.0-2.89","","<div style=""font-size:60px;"">+</div>","null","","","","","","",""
"818.6000000238419","","image-keyboard-response","490","625744","0.0-6.0-0.90","","img/purple.png","32","trial","32","true","0.8,0.2","1:go_a","",""
"null","","html-keyboard-response","491","626758","0.0-6.0-1.90","","<img src=""img/purple-r.png"" border=""10"">","null","trial","32","","0.8,0.2","1:go_a","1",""
"null","","html-keyboard-response","492","627773","0.0-6.0-2.90","","<div style=""font-size:60px;"">+</div>","null","","","","","","",""
"null","","image-keyboard-response","493","629281","0.0-6.0-0.91","","img/yellow.png","null","trial","null","true","0,1","4:nogo_d","",""
"null","","html-keyboard-response","494","630295","0.0-6.0-1.91","","<img src=""img/yellow-r.png"">","null","trial","null","","0,1","4:nogo_d","1",""
"null","","html-keyboard-response","495","631306","0.0-6.0-2.91","","<div style=""font-size:60px;"">+</div>","null","","","","","","",""
"null","","image-keyboard-response","496","632811","0.0-6.0-0.92","","img/purple.png","null","trial","32","false","0.8,0.2","1:go_a","",""
"null","","html-keyboard-response","497","633820","0.0-6.0-1.92","","<img src=""img/purple-n.png"">","null","trial","32","","0.8,0.2","1:go_a","0",""
"null","","html-keyboard-response","498","634833","0.0-6.0-2.92","","<div style=""font-size:60px;"">+</div>","null","","","","","","",""
"null","","image-keyboard-response","499","636337","0.0-6.0-0.93","","img/green.png","null","trial","null","true","0.2,0.8","2:nogo_b","",""
"null","","html-keyboard-response","500","637345","0.0-6.0-1.93","","<img src=""img/green-n.png"">","null","trial","null","","0.2,0.8","2:nogo_b","0",""
"null","","html-keyboard-response","501","638352","0.0-6.0-2.93","","<div style=""font-size:60px;"">+</div>","null","","","","","","",""
"null","","image-keyboard-response","502","639860","0.0-6.0-0.94","","img/yellow.png","null","trial","null","true","0,1","4:nogo_d","",""
"null","","html-keyboard-response","503","640865","0.0-6.0-1.94","","<img src=""img/yellow-r.png"">","null","trial","null","","0,1","4:nogo_d","1",""
"null","","html-keyboard-response","504","641877","0.0-6.0-2.94","","<div style=""font-size:60px;"">+</div>","null","","","","","","",""
"418.09999999403954","","image-keyboard-response","505","642296","0.0-6.0-0.95","","img/pink.png","32","trial","32","true","1,0","3:go_c","",""
"null","","html-keyboard-response","506","643299","0.0-6.0-1.95","","<img src=""img/pink-r.png"" border=""10"">","null","trial","32","","1,0","3:go_c","1",""
"null","","html-keyboard-response","507","644308","0.0-6.0-2.95","","<div style=""font-size:60px;"">+</div>","null","","","","","","",""
"null","","image-keyboard-response","508","645811","0.0-6.0-0.96","","img/green.png","null","trial","null","true","0.2,0.8","2:nogo_b","",""
"null","","html-keyboard-response","509","646825","0.0-6.0-1.96","","<img src=""img/green-r.png"">","null","trial","null","","0.2,0.8","2:nogo_b","1",""
"null","","html-keyboard-response","510","647841","0.0-6.0-2.96","","<div style=""font-size:60px;"">+</div>","null","","","","","","",""
"510.69999998807907","","image-keyboard-response","511","648352","0.0-6.0-0.97","","img/purple.png","32","trial","32","true","0.8,0.2","1:go_a","",""
"null","","html-keyboard-response","512","649358","0.0-6.0-1.97","","<img src=""img/purple-n.png"" border=""10"">","null","trial","32","","0.8,0.2","1:go_a","0",""
"null","","html-keyboard-response","513","650366","0.0-6.0-2.97","","<div style=""font-size:60px;"">+</div>","null","","","","","","",""
"728.6999999880791","","image-keyboard-response","514","651096","0.0-6.0-0.98","","img/pink.png","32","trial","32","true","1,0","3:go_c","",""
"null","","html-keyboard-response","515","652112","0.0-6.0-1.98","","<img src=""img/pink-r.png"" border=""10"">","null","trial","32","","1,0","3:go_c","1",""
"null","","html-keyboard-response","516","653112","0.0-6.0-2.98","","<div style=""font-size:60px;"">+</div>","null","","","","","","",""
"null","","image-keyboard-response","517","654623","0.0-6.0-0.99","","img/yellow.png","null","trial","null","true","0,1","4:nogo_d","",""
"null","","html-keyboard-response","518","655625","0.0-6.0-1.99","","<img src=""img/yellow-r.png"">","null","trial","null","","0,1","4:nogo_d","1",""
"null","","html-keyboard-response","519","656640","0.0-6.0-2.99","","<div style=""font-size:60px;"">+</div>","null","","","","","","",""
"503.5","","image-keyboard-response","520","657144","0.0-6.0-0.100","","img/purple.png","32","trial","32","true","0.8,0.2","1:go_a","",""
"null","","html-keyboard-response","521","658147","0.0-6.0-1.100","","<img src=""img/purple-r.png"" border=""10"">","null","trial","32","","0.8,0.2","1:go_a","1",""
"null","","html-keyboard-response","522","659150","0.0-6.0-2.100","","<div style=""font-size:60px;"">+</div>","null","","","","","","",""
"912.9000000059605","","image-keyboard-response","523","660064","0.0-6.0-0.101","","img/pink.png","32","trial","32","true","1,0","3:go_c","",""
"null","","html-keyboard-response","524","661073","0.0-6.0-1.101","","<img src=""img/pink-r.png"" border=""10"">","null","trial","32","","1,0","3:go_c","1",""
"null","","html-keyboard-response","525","662082","0.0-6.0-2.101","","<div style=""font-size:60px;"">+</div>","null","","","","","","",""
"null","","image-keyboard-response","526","663584","0.0-6.0-0.102","","img/yellow.png","null","trial","null","true","0,1","4:nogo_d","",""
"null","","html-keyboard-response","527","664590","0.0-6.0-1.102","","<img src=""img/yellow-r.png"">","null","trial","null","","0,1","4:nogo_d","1",""
"null","","html-keyboard-response","528","665592","0.0-6.0-2.102","","<div style=""font-size:60px;"">+</div>","null","","","","","","",""
"null","","image-keyboard-response","529","667102","0.0-6.0-0.103","","img/green.png","null","trial","null","true","0.2,0.8","2:nogo_b","",""
"null","","html-keyboard-response","530","668105","0.0-6.0-1.103","","<img src=""img/green-r.png"">","null","trial","null","","0.2,0.8","2:nogo_b","1",""
"null","","html-keyboard-response","531","669114","0.0-6.0-2.103","","<div style=""font-size:60px;"">+</div>","null","","","","","","",""
"null","","image-keyboard-response","532","670629","0.0-6.0-0.104","","img/green.png","null","trial","null","true","0.2,0.8","2:nogo_b","",""
"null","","html-keyboard-response","533","671643","0.0-6.0-1.104","","<img src=""img/green-r.png"">","null","trial","null","","0.2,0.8","2:nogo_b","1",""
"null","","html-keyboard-response","534","672651","0.0-6.0-2.104","","<div style=""font-size:60px;"">+</div>","null","","","","","","",""
"null","","image-keyboard-response","535","674164","0.0-6.0-0.105","","img/yellow.png","null","trial","null","true","0,1","4:nogo_d","",""
"null","","html-keyboard-response","536","675173","0.0-6.0-1.105","","<img src=""img/yellow-r.png"">","null","trial","null","","0,1","4:nogo_d","1",""
"null","","html-keyboard-response","537","676175","0.0-6.0-2.105","","<div style=""font-size:60px;"">+</div>","null","","","","","","",""
"720.2999999821186","","image-keyboard-response","538","676896","0.0-6.0-0.106","","img/pink.png","32","trial","32","true","1,0","3:go_c","",""
"null","","html-keyboard-response","539","677908","0.0-6.0-1.106","","<img src=""img/pink-r.png"" border=""10"">","null","trial","32","","1,0","3:go_c","1",""
"null","","html-keyboard-response","540","678914","0.0-6.0-2.106","","<div style=""font-size:60px;"">+</div>","null","","","","","","",""
"644.2000000178814","","image-keyboard-response","541","679559","0.0-6.0-0.107","","img/purple.png","32","trial","32","true","0.8,0.2","1:go_a","",""
"null","","html-keyboard-response","542","680566","0.0-6.0-1.107","","<img src=""img/purple-r.png"" border=""10"">","null","trial","32","","0.8,0.2","1:go_a","1",""
"null","","html-keyboard-response","543","681580","0.0-6.0-2.107","","<div style=""font-size:60px;"">+</div>","null","","","","","","",""
"499.30000001192093","","image-keyboard-response","544","682080","0.0-6.0-0.108","","img/purple.png","32","trial","32","true","0.8,0.2","1:go_a","",""
"null","","html-keyboard-response","545","683092","0.0-6.0-1.108","","<img src=""img/purple-r.png"" border=""10"">","null","trial","32","","0.8,0.2","1:go_a","1",""
"null","","html-keyboard-response","546","684108","0.0-6.0-2.108","","<div style=""font-size:60px;"">+</div>","null","","","","","","",""
"null","","image-keyboard-response","547","685610","0.0-6.0-0.109","","img/green.png","null","trial","null","true","0.2,0.8","2:nogo_b","",""
"null","","html-keyboard-response","548","686617","0.0-6.0-1.109","","<img src=""img/green-r.png"">","null","trial","null","","0.2,0.8","2:nogo_b","1",""
"null","","html-keyboard-response","549","687629","0.0-6.0-2.109","","<div style=""font-size:60px;"">+</div>","null","","","","","","",""
"null","","image-keyboard-response","550","689144","0.0-6.0-0.110","","img/yellow.png","null","trial","null","true","0,1","4:nogo_d","",""
"null","","html-keyboard-response","551","690149","0.0-6.0-1.110","","<img src=""img/yellow-r.png"">","null","trial","null","","0,1","4:nogo_d","1",""
"null","","html-keyboard-response","552","691165","0.0-6.0-2.110","","<div style=""font-size:60px;"">+</div>","null","","","","","","",""
"698.5","","image-keyboard-response","553","691864","0.0-6.0-0.111","","img/pink.png","32","trial","32","true","1,0","3:go_c","",""
"null","","html-keyboard-response","554","692873","0.0-6.0-1.111","","<img src=""img/pink-r.png"" border=""10"">","null","trial","32","","1,0","3:go_c","1",""
"null","","html-keyboard-response","555","693885","0.0-6.0-2.111","","<div style=""font-size:60px;"">+</div>","null","","","","","","",""
"570.0999999940395","","image-keyboard-response","556","694456","0.0-6.0-0.112","","img/purple.png","32","trial","32","true","0.8,0.2","1:go_a","",""
"null","","html-keyboard-response","557","695461","0.0-6.0-1.112","","<img src=""img/purple-r.png"" border=""10"">","null","trial","32","","0.8,0.2","1:go_a","1",""
"null","","html-keyboard-response","558","696473","0.0-6.0-2.112","","<div style=""font-size:60px;"">+</div>","null","","","","","","",""
"null","","image-keyboard-response","559","697979","0.0-6.0-0.113","","img/green.png","null","trial","null","true","0.2,0.8","2:nogo_b","",""
"null","","html-keyboard-response","560","698985","0.0-6.0-1.113","","<img src=""img/green-r.png"">","null","trial","null","","0.2,0.8","2:nogo_b","1",""
"null","","html-keyboard-response","561","700001","0.0-6.0-2.113","","<div style=""font-size:60px;"">+</div>","null","","","","","","",""
"638.5999999940395","","image-keyboard-response","562","700640","0.0-6.0-0.114","","img/pink.png","32","trial","32","true","1,0","3:go_c","",""
"null","","html-keyboard-response","563","701650","0.0-6.0-1.114","","<img src=""img/pink-r.png"" border=""10"">","null","trial","32","","1,0","3:go_c","1",""
"null","","html-keyboard-response","564","702654","0.0-6.0-2.114","","<div style=""font-size:60px;"">+</div>","null","","","","","","",""
"null","","image-keyboard-response","565","704162","0.0-6.0-0.115","","img/yellow.png","null","trial","null","true","0,1","4:nogo_d","",""
"null","","html-keyboard-response","566","705173","0.0-6.0-1.115","","<img src=""img/yellow-r.png"">","null","trial","null","","0,1","4:nogo_d","1",""
"null","","html-keyboard-response","567","706175","0.0-6.0-2.115","","<div style=""font-size:60px;"">+</div>","null","","","","","","",""
"null","","image-keyboard-response","568","707690","0.0-6.0-0.116","","img/yellow.png","null","trial","null","true","0,1","4:nogo_d","",""
"null","","html-keyboard-response","569","708701","0.0-6.0-1.116","","<img src=""img/yellow-r.png"">","null","trial","null","","0,1","4:nogo_d","1",""
"null","","html-keyboard-response","570","709713","0.0-6.0-2.116","","<div style=""font-size:60px;"">+</div>","null","","","","","","",""
"null","","image-keyboard-response","571","711224","0.0-6.0-0.117","","img/green.png","null","trial","null","true","0.2,0.8","2:nogo_b","",""
"null","","html-keyboard-response","572","712226","0.0-6.0-1.117","","<img src=""img/green-n.png"">","null","trial","null","","0.2,0.8","2:nogo_b","0",""
"null","","html-keyboard-response","573","713239","0.0-6.0-2.117","","<div style=""font-size:60px;"">+</div>","null","","","","","","",""
"863.9000000059605","","image-keyboard-response","574","714104","0.0-6.0-0.118","","img/purple.png","32","trial","32","true","0.8,0.2","1:go_a","",""
"null","","html-keyboard-response","575","715113","0.0-6.0-1.118","","<img src=""img/purple-r.png"" border=""10"">","null","trial","32","","0.8,0.2","1:go_a","1",""
"null","","html-keyboard-response","576","716116","0.0-6.0-2.118","","<div style=""font-size:60px;"">+</div>","null","","","","","","",""
"418.69999998807907","","image-keyboard-response","577","716536","0.0-6.0-0.119","","img/pink.png","32","trial","32","true","1,0","3:go_c","",""
"null","","html-keyboard-response","578","717543","0.0-6.0-1.119","","<img src=""img/pink-r.png"" border=""10"">","null","trial","32","","1,0","3:go_c","1",""
"null","","html-keyboard-response","579","718559","0.0-6.0-2.119","","<div style=""font-size:60px;"">+</div>","null","","","","","","",""
"12808.59999999404","","instructions","580","731368","0.0-7.0","[{""page_index"":0,""viewing_time"":12808.300000011921}]","","","","","","","","",""
"1182.699999988079","","image-keyboard-response","581","732552","0.0-8.0-0.0","","img/pink.png","32","trial","32","true","0.6,0.4","1:go_a","",""
"null","","html-keyboard-response","582","733556","0.0-8.0-1.0","","<img src=""img/pink-r.png"" border=""10"">","null","trial","32","","0.6,0.4","1:go_a","1",""
"null","","html-keyboard-response","583","734562","0.0-8.0-2.0","","<div style=""font-size:60px;"">+</div>","null","","","","","","",""
"637","","image-keyboard-response","584","735199","0.0-8.0-0.1","","img/grey.png","32","trial","32","true","0.6,0.4","3:go_c","",""
"null","","html-keyboard-response","585","736213","0.0-8.0-1.1","","<img src=""img/grey-r.png"" border=""10"">","null","trial","32","","0.6,0.4","3:go_c","1",""
"null","","html-keyboard-response","586","737216","0.0-8.0-2.1","","<div style=""font-size:60px;"">+</div>","null","","","","","","",""
"471.5","","image-keyboard-response","587","737688","0.0-8.0-0.2","","img/green.png","32","trial","null","false","0.4,0.6","2:nogo_b","",""
"null","","html-keyboard-response","588","738691","0.0-8.0-1.2","","<img src=""img/green-n.png"" border=""10"">","null","trial","null","","0.4,0.6","2:nogo_b","0",""
"null","","html-keyboard-response","589","739708","0.0-8.0-2.2","","<div style=""font-size:60px;"">+</div>","null","","","","","","",""
"395.5","","image-keyboard-response","590","740104","0.0-8.0-0.3","","img/red.png","32","trial","null","false","0.4,0.6","4:nogo_d","",""
"null","","html-keyboard-response","591","741105","0.0-8.0-1.3","","<img src=""img/red-r.png"" border=""10"">","null","trial","null","","0.4,0.6","4:nogo_d","1",""
"null","","html-keyboard-response","592","742106","0.0-8.0-2.3","","<div style=""font-size:60px;"">+</div>","null","","","","","","",""
"444.90000000596046","","image-keyboard-response","593","742552","0.0-8.0-0.4","","img/red.png","32","trial","null","false","0.4,0.6","4:nogo_d","",""
"null","","html-keyboard-response","594","743558","0.0-8.0-1.4","","<img src=""img/red-n.png"" border=""10"">","null","trial","null","","0.4,0.6","4:nogo_d","0",""
"null","","html-keyboard-response","595","744565","0.0-8.0-2.4","","<div style=""font-size:60px;"">+</div>","null","","","","","","",""
"617.8999999761581","","image-keyboard-response","596","745184","0.0-8.0-0.5","","img/grey.png","32","trial","32","true","0.6,0.4","3:go_c","",""
"null","","html-keyboard-response","597","746186","0.0-8.0-1.5","","<img src=""img/grey-r.png"" border=""10"">","null","trial","32","","0.6,0.4","3:go_c","1",""
"null","","html-keyboard-response","598","747196","0.0-8.0-2.5","","<div style=""font-size:60px;"">+</div>","null","","","","","","",""
"null","","image-keyboard-response","599","748702","0.0-8.0-0.6","","img/green.png","null","trial","null","true","0.4,0.6","2:nogo_b","",""
"null","","html-keyboard-response","600","749719","0.0-8.0-1.6","","<img src=""img/green-r.png"">","null","trial","null","","0.4,0.6","2:nogo_b","1",""
"null","","html-keyboard-response","601","750734","0.0-8.0-2.6","","<div style=""font-size:60px;"">+</div>","null","","","","","","",""
"416.7999999821186","","image-keyboard-response","602","751152","0.0-8.0-0.7","","img/pink.png","32","trial","32","true","0.6,0.4","1:go_a","",""
"null","","html-keyboard-response","603","752167","0.0-8.0-1.7","","<img src=""img/pink-r.png"" border=""10"">","null","trial","32","","0.6,0.4","1:go_a","1",""
"null","","html-keyboard-response","604","753177","0.0-8.0-2.7","","<div style=""font-size:60px;"">+</div>","null","","","","","","",""
"518.1999999880791","","image-keyboard-response","605","753696","0.0-8.0-0.8","","img/pink.png","32","trial","32","true","0.6,0.4","1:go_a","",""
"null","","html-keyboard-response","606","754705","0.0-8.0-1.8","","<img src=""img/pink-n.png"" border=""10"">","null","trial","32","","0.6,0.4","1:go_a","0",""
"null","","html-keyboard-response","607","755707","0.0-8.0-2.8","","<div style=""font-size:60px;"">+</div>","null","","","","","","",""
"null","","image-keyboard-response","608","757224","0.0-8.0-0.9","","img/red.png","null","trial","null","true","0.4,0.6","4:nogo_d","",""
"null","","html-keyboard-response","609","758241","0.0-8.0-1.9","","<img src=""img/red-r.png"">","null","trial","null","","0.4,0.6","4:nogo_d","1",""
"null","","html-keyboard-response","610","759242","0.0-8.0-2.9","","<div style=""font-size:60px;"">+</div>","null","","","","","","",""
"null","","image-keyboard-response","611","760747","0.0-8.0-0.10","","img/green.png","null","trial","null","true","0.4,0.6","2:nogo_b","",""
"null","","html-keyboard-response","612","761761","0.0-8.0-1.10","","<img src=""img/green-n.png"">","null","trial","null","","0.4,0.6","2:nogo_b","0",""
"null","","html-keyboard-response","613","762777","0.0-8.0-2.10","","<div style=""font-size:60px;"">+</div>","null","","","","","","",""
"597.8000000119209","","image-keyboard-response","614","763376","0.0-8.0-0.11","","img/grey.png","32","trial","32","true","0.6,0.4","3:go_c","",""
"null","","html-keyboard-response","615","764382","0.0-8.0-1.11","","<img src=""img/grey-r.png"" border=""10"">","null","trial","32","","0.6,0.4","3:go_c","1",""
"null","","html-keyboard-response","616","765389","0.0-8.0-2.11","","<div style=""font-size:60px;"">+</div>","null","","","","","","",""
"null","","image-keyboard-response","617","766906","0.0-8.0-0.12","","img/grey.png","null","trial","32","false","0.6,0.4","3:go_c","",""
"null","","html-keyboard-response","618","767914","0.0-8.0-1.12","","<img src=""img/grey-n.png"">","null","trial","32","","0.6,0.4","3:go_c","0",""
"null","","html-keyboard-response","619","768916","0.0-8.0-2.12","","<div style=""font-size:60px;"">+</div>","null","","","","","","",""
"546.6000000238419","","image-keyboard-response","620","769464","0.0-8.0-0.13","","img/pink.png","32","trial","32","true","0.6,0.4","1:go_a","",""
"null","","html-keyboard-response","621","770473","0.0-8.0-1.13","","<img src=""img/pink-r.png"" border=""10"">","null","trial","32","","0.6,0.4","1:go_a","1",""
"null","","html-keyboard-response","622","771482","0.0-8.0-2.13","","<div style=""font-size:60px;"">+</div>","null","","","","","","",""
"null","","image-keyboard-response","623","772992","0.0-8.0-0.14","","img/red.png","null","trial","null","true","0.4,0.6","4:nogo_d","",""
"null","","html-keyboard-response","624","774006","0.0-8.0-1.14","","<img src=""img/red-n.png"">","null","trial","null","","0.4,0.6","4:nogo_d","0",""
"null","","html-keyboard-response","625","775021","0.0-8.0-2.14","","<div style=""font-size:60px;"">+</div>","null","","","","","","",""
"null","","image-keyboard-response","626","776530","0.0-8.0-0.15","","img/green.png","null","trial","null","true","0.4,0.6","2:nogo_b","",""
"null","","html-keyboard-response","627","777546","0.0-8.0-1.15","","<img src=""img/green-r.png"">","null","trial","null","","0.4,0.6","2:nogo_b","1",""
"null","","html-keyboard-response","628","778560","0.0-8.0-2.15","","<div style=""font-size:60px;"">+</div>","null","","","","","","",""
"454.19999998807907","","image-keyboard-response","629","779015","0.0-8.0-0.16","","img/grey.png","32","trial","32","true","0.6,0.4","3:go_c","",""
"null","","html-keyboard-response","630","780030","0.0-8.0-1.16","","<img src=""img/grey-n.png"" border=""10"">","null","trial","32","","0.6,0.4","3:go_c","0",""
"null","","html-keyboard-response","631","781045","0.0-8.0-2.16","","<div style=""font-size:60px;"">+</div>","null","","","","","","",""
"null","","image-keyboard-response","632","782554","0.0-8.0-0.17","","img/red.png","null","trial","null","true","0.4,0.6","4:nogo_d","",""
"null","","html-keyboard-response","633","783568","0.0-8.0-1.17","","<img src=""img/red-r.png"">","null","trial","null","","0.4,0.6","4:nogo_d","1",""
"null","","html-keyboard-response","634","784577","0.0-8.0-2.17","","<div style=""font-size:60px;"">+</div>","null","","","","","","",""
"null","","image-keyboard-response","635","786079","0.0-8.0-0.18","","img/green.png","null","trial","null","true","0.4,0.6","2:nogo_b","",""
"null","","html-keyboard-response","636","787084","0.0-8.0-1.18","","<img src=""img/green-r.png"">","null","trial","null","","0.4,0.6","2:nogo_b","1",""
"null","","html-keyboard-response","637","788097","0.0-8.0-2.18","","<div style=""font-size:60px;"">+</div>","null","","","","","","",""
"493.7999999821186","","image-keyboard-response","638","788592","0.0-8.0-0.19","","img/pink.png","32","trial","32","true","0.6,0.4","1:go_a","",""
"null","","html-keyboard-response","639","789598","0.0-8.0-1.19","","<img src=""img/pink-n.png"" border=""10"">","null","trial","32","","0.6,0.4","1:go_a","0",""
"null","","html-keyboard-response","640","790606","0.0-8.0-2.19","","<div style=""font-size:60px;"">+</div>","null","","","","","","",""
"null","","image-keyboard-response","641","792114","0.0-8.0-0.20","","img/red.png","null","trial","null","true","0.4,0.6","4:nogo_d","",""
"null","","html-keyboard-response","642","793134","0.0-8.0-1.20","","<img src=""img/red-n.png"">","null","trial","null","","0.4,0.6","4:nogo_d","0",""
"null","","html-keyboard-response","643","794151","0.0-8.0-2.20","","<div style=""font-size:60px;"">+</div>","null","","","","","","",""
"855.9000000059605","","image-keyboard-response","644","795008","0.0-8.0-0.21","","img/grey.png","32","trial","32","true","0.6,0.4","3:go_c","",""
"null","","html-keyboard-response","645","796014","0.0-8.0-1.21","","<img src=""img/grey-r.png"" border=""10"">","null","trial","32","","0.6,0.4","3:go_c","1",""
"null","","html-keyboard-response","646","797035","0.0-8.0-2.21","","<div style=""font-size:60px;"">+</div>","null","","","","","","",""
"828.5","","image-keyboard-response","647","797864","0.0-8.0-0.22","","img/pink.png","32","trial","32","true","0.6,0.4","1:go_a","",""
"null","","html-keyboard-response","648","798884","0.0-8.0-1.22","","<img src=""img/pink-n.png"" border=""10"">","null","trial","32","","0.6,0.4","1:go_a","0",""
"null","","html-keyboard-response","649","799894","0.0-8.0-2.22","","<div style=""font-size:60px;"">+</div>","null","","","","","","",""
"null","","image-keyboard-response","650","801407","0.0-8.0-0.23","","img/green.png","null","trial","null","true","0.4,0.6","2:nogo_b","",""
"null","","html-keyboard-response","651","802434","0.0-8.0-1.23","","<img src=""img/green-r.png"">","null","trial","null","","0.4,0.6","2:nogo_b","1",""
"null","","html-keyboard-response","652","803448","0.0-8.0-2.23","","<div style=""font-size:60px;"">+</div>","null","","","","","","",""
"735.2999999821186","","image-keyboard-response","653","804184","0.0-8.0-0.24","","img/pink.png","32","trial","32","true","0.6,0.4","1:go_a","",""
"null","","html-keyboard-response","654","805188","0.0-8.0-1.24","","<img src=""img/pink-r.png"" border=""10"">","null","trial","32","","0.6,0.4","1:go_a","1",""
"null","","html-keyboard-response","655","806200","0.0-8.0-2.24","","<div style=""font-size:60px;"">+</div>","null","","","","","","",""
"639.4000000059605","","image-keyboard-response","656","806840","0.0-8.0-0.25","","img/grey.png","32","trial","32","true","0.6,0.4","3:go_c","",""
"null","","html-keyboard-response","657","807850","0.0-8.0-1.25","","<img src=""img/grey-r.png"" border=""10"">","null","trial","32","","0.6,0.4","3:go_c","1",""
"null","","html-keyboard-response","658","808852","0.0-8.0-2.25","","<div style=""font-size:60px;"">+</div>","null","","","","","","",""
"null","","image-keyboard-response","659","810357","0.0-8.0-0.26","","img/red.png","null","trial","null","true","0.4,0.6","4:nogo_d","",""
"null","","html-keyboard-response","660","811358","0.0-8.0-1.26","","<img src=""img/red-n.png"">","null","trial","null","","0.4,0.6","4:nogo_d","0",""
"null","","html-keyboard-response","661","812368","0.0-8.0-2.26","","<div style=""font-size:60px;"">+</div>","null","","","","","","",""
"null","","image-keyboard-response","662","813878","0.0-8.0-0.27","","img/green.png","null","trial","null","true","0.4,0.6","2:nogo_b","",""
"null","","html-keyboard-response","663","814895","0.0-8.0-1.27","","<img src=""img/green-r.png"">","null","trial","null","","0.4,0.6","2:nogo_b","1",""
"null","","html-keyboard-response","664","815901","0.0-8.0-2.27","","<div style=""font-size:60px;"">+</div>","null","","","","","","",""
"666","","image-keyboard-response","665","816568","0.0-8.0-0.28","","img/grey.png","32","trial","32","true","0.6,0.4","3:go_c","",""
"null","","html-keyboard-response","666","817571","0.0-8.0-1.28","","<img src=""img/grey-r.png"" border=""10"">","null","trial","32","","0.6,0.4","3:go_c","1",""
"null","","html-keyboard-response","667","818582","0.0-8.0-2.28","","<div style=""font-size:60px;"">+</div>","null","","","","","","",""
"569.7000000178814","","image-keyboard-response","668","819152","0.0-8.0-0.29","","img/green.png","32","trial","null","false","0.4,0.6","2:nogo_b","",""
"null","","html-keyboard-response","669","820159","0.0-8.0-1.29","","<img src=""img/green-r.png"" border=""10"">","null","trial","null","","0.4,0.6","2:nogo_b","1",""
"null","","html-keyboard-response","670","821162","0.0-8.0-2.29","","<div style=""font-size:60px;"">+</div>","null","","","","","","",""
"909.2999999821186","","image-keyboard-response","671","822072","0.0-8.0-0.30","","img/pink.png","32","trial","32","true","0.6,0.4","1:go_a","",""
"null","","html-keyboard-response","672","823078","0.0-8.0-1.30","","<img src=""img/pink-r.png"" border=""10"">","null","trial","32","","0.6,0.4","1:go_a","1",""
"null","","html-keyboard-response","673","824092","0.0-8.0-2.30","","<div style=""font-size:60px;"">+</div>","null","","","","","","",""
"null","","image-keyboard-response","674","825605","0.0-8.0-0.31","","img/red.png","null","trial","null","true","0.4,0.6","4:nogo_d","",""
"null","","html-keyboard-response","675","826615","0.0-8.0-1.31","","<img src=""img/red-n.png"">","null","trial","null","","0.4,0.6","4:nogo_d","0",""
"null","","html-keyboard-response","676","827623","0.0-8.0-2.31","","<div style=""font-size:60px;"">+</div>","null","","","","","","",""
"null","","image-keyboard-response","677","829126","0.0-8.0-0.32","","img/red.png","null","trial","null","true","0.4,0.6","4:nogo_d","",""
"null","","html-keyboard-response","678","830131","0.0-8.0-1.32","","<img src=""img/red-n.png"">","null","trial","null","","0.4,0.6","4:nogo_d","0",""
"null","","html-keyboard-response","679","831141","0.0-8.0-2.32","","<div style=""font-size:60px;"">+</div>","null","","","","","","",""
"873.4000000059605","","image-keyboard-response","680","832015","0.0-8.0-0.33","","img/grey.png","32","trial","32","true","0.6,0.4","3:go_c","",""
"null","","html-keyboard-response","681","833029","0.0-8.0-1.33","","<img src=""img/grey-n.png"" border=""10"">","null","trial","32","","0.6,0.4","3:go_c","0",""
"null","","html-keyboard-response","682","834032","0.0-8.0-2.33","","<div style=""font-size:60px;"">+</div>","null","","","","","","",""
"430.80000001192093","","image-keyboard-response","683","834464","0.0-8.0-0.34","","img/green.png","32","trial","null","false","0.4,0.6","2:nogo_b","",""
"null","","html-keyboard-response","684","835470","0.0-8.0-1.34","","<img src=""img/green-r.png"" border=""10"">","null","trial","null","","0.4,0.6","2:nogo_b","1",""
"null","","html-keyboard-response","685","836480","0.0-8.0-2.34","","<div style=""font-size:60px;"">+</div>","null","","","","","","",""
