"rt","url","trial_type","trial_index","time_elapsed","internal_node_id","view_history","stimulus","key_press","test_part","correct_response","correct","use_rew","which_stim","reward","responses"
"3785","consent.html","external-html","0","3958","0.0-0.0","","","","","","","","","",""
"46048","","instructions","1","50008","0.0-1.0","[{""page_index"":0,""viewing_time"":3936},{""page_index"":1,""viewing_time"":17268},{""page_index"":2,""viewing_time"":8201},{""page_index"":3,""viewing_time"":4486},{""page_index"":4,""viewing_time"":1797},{""page_index"":5,""viewing_time"":5032},{""page_index"":6,""viewing_time"":5328}]","","","","","","","","",""
"626","","image-keyboard-response","2","50637","0.0-2.0-0.0","","img/test1.PNG","32","practice","32","true","","","",""
"null","","html-keyboard-response","3","51652","0.0-2.0-1.0","","<img src=""img/test1-reward.PNG"" border=""10px; grey"">","null","","","","","","",""
"null","","html-keyboard-response","4","52663","0.0-2.0-2.0","","<div style=""font-size:60px;"">+</div>","null","","","","","","",""
"null","","image-keyboard-response","5","54179","0.0-2.0-0.1","","img/test2.PNG","null","practice","null","true","","","",""
"null","","html-keyboard-response","6","55195","0.0-2.0-1.1","","<img src=""img/test2-reward.PNG"">","null","","","","","","",""
"null","","html-keyboard-response","7","56199","0.0-2.0-2.1","","<div style=""font-size:60px;"">+</div>","null","","","","","","",""
"null","","image-keyboard-response","8","57714","0.0-2.0-0.2","","img/test3.PNG","null","practice","null","true","","","",""
"null","","html-keyboard-response","9","58731","0.0-2.0-1.2","","<img src=""img/test3-reward.PNG"">","null","","","","","","",""
"null","","html-keyboard-response","10","59746","0.0-2.0-2.2","","<div style=""font-size:60px;"">+</div>","null","","","","","","",""
"517","","image-keyboard-response","11","60266","0.0-2.0-0.3","","img/test2.PNG","32","practice","null","false","","","",""
"null","","html-keyboard-response","12","61277","0.0-2.0-1.3","","<img src=""img/test2-neutral.PNG"" border=""10px; grey"">","null","","","","","","",""
"null","","html-keyboard-response","13","62293","0.0-2.0-2.3","","<div style=""font-size:60px;"">+</div>","null","","","","","","",""
"null","","image-keyboard-response","14","63793","0.0-2.0-0.4","","img/test3.PNG","null","practice","null","true","","","",""
"null","","html-keyboard-response","15","64809","0.0-2.0-1.4","","<img src=""img/test3-reward.PNG"">","null","","","","","","",""
"null","","html-keyboard-response","16","65825","0.0-2.0-2.4","","<div style=""font-size:60px;"">+</div>","null","","","","","","",""
"396","","image-keyboard-response","17","66222","0.0-2.0-0.5","","img/test1.PNG","32","practice","32","true","","","",""
"null","","html-keyboard-response","18","67232","0.0-2.0-1.5","","<img src=""img/test1-reward.PNG"" border=""10px; grey"">","null","","","","","","",""
"null","","html-keyboard-response","19","68233","0.0-2.0-2.5","","<div style=""font-size:60px;"">+</div>","null","","","","","","",""
"487","","image-keyboard-response","20","68721","0.0-2.0-0.6","","img/test1.PNG","32","practice","32","true","","","",""
"null","","html-keyboard-response","21","69734","0.0-2.0-1.6","","<img src=""img/test1-reward.PNG"" border=""10px; grey"">","null","","","","","","",""
"null","","html-keyboard-response","22","70749","0.0-2.0-2.6","","<div style=""font-size:60px;"">+</div>","null","","","","","","",""
"434","","image-keyboard-response","23","71183","0.0-2.0-0.7","","img/test3.PNG","32","practice","null","false","","","",""
"null","","html-keyboard-response","24","72187","0.0-2.0-1.7","","<img src=""img/test3-neutral.PNG"" border=""10px; grey"">","null","","","","","","",""
"null","","html-keyboard-response","25","73202","0.0-2.0-2.7","","<div style=""font-size:60px;"">+</div>","null","","","","","","",""
"null","","image-keyboard-response","26","74719","0.0-2.0-0.8","","img/test2.PNG","null","practice","null","true","","","",""
"null","","html-keyboard-response","27","75735","0.0-2.0-1.8","","<img src=""img/test2-reward.PNG"">","null","","","","","","",""
"null","","html-keyboard-response","28","76749","0.0-2.0-2.8","","<div style=""font-size:60px;"">+</div>","null","","","","","","",""
"null","","image-keyboard-response","29","78254","0.0-2.0-0.9","","img/test2.PNG","null","practice","null","true","","","",""
"null","","html-keyboard-response","30","79269","0.0-2.0-1.9","","<img src=""img/test2-reward.PNG"">","null","","","","","","",""
"null","","html-keyboard-response","31","80285","0.0-2.0-2.9","","<div style=""font-size:60px;"">+</div>","null","","","","","","",""
"584","","image-keyboard-response","32","80870","0.0-2.0-0.10","","img/test1.PNG","32","practice","32","true","","","",""
"null","","html-keyboard-response","33","81879","0.0-2.0-1.10","","<img src=""img/test1-reward.PNG"" border=""10px; grey"">","null","","","","","","",""
"null","","html-keyboard-response","34","82895","0.0-2.0-2.10","","<div style=""font-size:60px;"">+</div>","null","","","","","","",""
"null","","image-keyboard-response","35","84417","0.0-2.0-0.11","","img/test3.PNG","null","practice","null","true","","","",""
"null","","html-keyboard-response","36","85431","0.0-2.0-1.11","","<img src=""img/test3-reward.PNG"">","null","","","","","","",""
"null","","html-keyboard-response","37","86447","0.0-2.0-2.11","","<div style=""font-size:60px;"">+</div>","null","","","","","","",""
"1402","","instructions","38","87848","0.0-3.0","[{""page_index"":0,""viewing_time"":1401}]","","","","","","","","",""
"1374","","image-keyboard-response","39","89223","0.0-4.0-0.0","","img/orange.png","32","trial","null","false","0.2,0.8","2:nogo_b","",""
"null","","html-keyboard-response","40","90238","0.0-4.0-1.0","","<img src=""img/orange-n.png"" border=""10"">","null","trial","null","","0.2,0.8","2:nogo_b","0",""
"null","","html-keyboard-response","41","91253","0.0-4.0-2.0","","<div style=""font-size:60px;"">+</div>","null","","","","","","",""
"378","","image-keyboard-response","42","91634","0.0-4.0-0.1","","img/yellow.png","32","trial","32","true","0.8,0.2","1:go_a","",""
"null","","html-keyboard-response","43","92645","0.0-4.0-1.1","","<img src=""img/yellow-r.png"" border=""10"">","null","trial","32","","0.8,0.2","1:go_a","1",""
"null","","html-keyboard-response","44","93645","0.0-4.0-2.1","","<div style=""font-size:60px;"">+</div>","null","","","","","","",""
"null","","image-keyboard-response","45","95152","0.0-4.0-0.2","","img/orange.png","null","trial","null","true","0.2,0.8","2:nogo_b","",""
"null","","html-keyboard-response","46","96168","0.0-4.0-1.2","","<img src=""img/orange-r.png"">","null","trial","null","","0.2,0.8","2:nogo_b","1",""
"null","","html-keyboard-response","47","97183","0.0-4.0-2.2","","<div style=""font-size:60px;"">+</div>","null","","","","","","",""
"530","","image-keyboard-response","48","97715","0.0-4.0-0.3","","img/yellow.png","32","trial","32","true","0.8,0.2","1:go_a","",""
"null","","html-keyboard-response","49","98731","0.0-4.0-1.3","","<img src=""img/yellow-r.png"" border=""10"">","null","trial","32","","0.8,0.2","1:go_a","1",""
"null","","html-keyboard-response","50","99746","0.0-4.0-2.3","","<div style=""font-size:60px;"">+</div>","null","","","","","","",""
"565","","image-keyboard-response","51","100313","0.0-4.0-0.4","","img/yellow.png","32","trial","32","true","0.8,0.2","1:go_a","",""
"null","","html-keyboard-response","52","101325","0.0-4.0-1.4","","<img src=""img/yellow-r.png"" border=""10"">","null","trial","32","","0.8,0.2","1:go_a","1",""
"null","","html-keyboard-response","53","102340","0.0-4.0-2.4","","<div style=""font-size:60px;"">+</div>","null","","","","","","",""
"null","","image-keyboard-response","54","103857","0.0-4.0-0.5","","img/orange.png","null","trial","null","true","0.2,0.8","2:nogo_b","",""
"null","","html-keyboard-response","55","104872","0.0-4.0-1.5","","<img src=""img/orange-n.png"">","null","trial","null","","0.2,0.8","2:nogo_b","0",""
"null","","html-keyboard-response","56","105873","0.0-4.0-2.5","","<div style=""font-size:60px;"">+</div>","null","","","","","","",""
"481","","image-keyboard-response","57","106354","0.0-4.0-0.6","","img/yellow.png","32","trial","32","true","0.8,0.2","1:go_a","",""
"null","","html-keyboard-response","58","107358","0.0-4.0-1.6","","<img src=""img/yellow-r.png"" border=""10"">","null","trial","32","","0.8,0.2","1:go_a","1",""
"null","","html-keyboard-response","59","108373","0.0-4.0-2.6","","<div style=""font-size:60px;"">+</div>","null","","","","","","",""
"null","","image-keyboard-response","60","109888","0.0-4.0-0.7","","img/orange.png","null","trial","null","true","0.2,0.8","2:nogo_b","",""
"null","","html-keyboard-response","61","110904","0.0-4.0-1.7","","<img src=""img/orange-n.png"">","null","trial","null","","0.2,0.8","2:nogo_b","0",""
"null","","html-keyboard-response","62","111906","0.0-4.0-2.7","","<div style=""font-size:60px;"">+</div>","null","","","","","","",""
"411","","image-keyboard-response","63","112316","0.0-4.0-0.8","","img/yellow.png","32","trial","32","true","0.8,0.2","1:go_a","",""
"null","","html-keyboard-response","64","113328","0.0-4.0-1.8","","<img src=""img/yellow-r.png"" border=""10"">","null","trial","32","","0.8,0.2","1:go_a","1",""
"null","","html-keyboard-response","65","114328","0.0-4.0-2.8","","<div style=""font-size:60px;"">+</div>","null","","","","","","",""
"null","","image-keyboard-response","66","115843","0.0-4.0-0.9","","img/orange.png","null","trial","null","true","0.2,0.8","2:nogo_b","",""
"null","","html-keyboard-response","67","116860","0.0-4.0-1.9","","<img src=""img/orange-r.png"">","null","trial","null","","0.2,0.8","2:nogo_b","1",""
"null","","html-keyboard-response","68","117860","0.0-4.0-2.9","","<div style=""font-size:60px;"">+</div>","null","","","","","","",""
"400","","image-keyboard-response","69","118260","0.0-4.0-0.10","","img/yellow.png","32","trial","32","true","0.8,0.2","1:go_a","",""
"null","","html-keyboard-response","70","119268","0.0-4.0-1.10","","<img src=""img/yellow-n.png"" border=""10"">","null","trial","32","","0.8,0.2","1:go_a","0",""
"null","","html-keyboard-response","71","120270","0.0-4.0-2.10","","<div style=""font-size:60px;"">+</div>","null","","","","","","",""
"1030","","image-keyboard-response","72","121301","0.0-4.0-0.11","","img/orange.png","32","trial","null","false","0.2,0.8","2:nogo_b","",""
"null","","html-keyboard-response","73","122301","0.0-4.0-1.11","","<img src=""img/orange-n.png"" border=""10"">","null","trial","null","","0.2,0.8","2:nogo_b","0",""
"null","","html-keyboard-response","74","123317","0.0-4.0-2.11","","<div style=""font-size:60px;"">+</div>","null","","","","","","",""
"405","","image-keyboard-response","75","123722","0.0-4.0-0.12","","img/yellow.png","32","trial","32","true","0.8,0.2","1:go_a","",""
"null","","html-keyboard-response","76","124723","0.0-4.0-1.12","","<img src=""img/yellow-r.png"" border=""10"">","null","trial","32","","0.8,0.2","1:go_a","1",""
"null","","html-keyboard-response","77","125739","0.0-4.0-2.12","","<div style=""font-size:60px;"">+</div>","null","","","","","","",""
"null","","image-keyboard-response","78","127255","0.0-4.0-0.13","","img/orange.png","null","trial","null","true","0.2,0.8","2:nogo_b","",""
"null","","html-keyboard-response","79","128270","0.0-4.0-1.13","","<img src=""img/orange-n.png"">","null","trial","null","","0.2,0.8","2:nogo_b","0",""
"null","","html-keyboard-response","80","129271","0.0-4.0-2.13","","<div style=""font-size:60px;"">+</div>","null","","","","","","",""
"null","","image-keyboard-response","81","130774","0.0-4.0-0.14","","img/orange.png","null","trial","null","true","0.2,0.8","2:nogo_b","",""
"null","","html-keyboard-response","82","131790","0.0-4.0-1.14","","<img src=""img/orange-n.png"">","null","trial","null","","0.2,0.8","2:nogo_b","0",""
"null","","html-keyboard-response","83","132805","0.0-4.0-2.14","","<div style=""font-size:60px;"">+</div>","null","","","","","","",""
"397","","image-keyboard-response","84","133203","0.0-4.0-0.15","","img/yellow.png","32","trial","32","true","0.8,0.2","1:go_a","",""
"null","","html-keyboard-response","85","134212","0.0-4.0-1.15","","<img src=""img/yellow-r.png"" border=""10"">","null","trial","32","","0.8,0.2","1:go_a","1",""
"null","","html-keyboard-response","86","135228","0.0-4.0-2.15","","<div style=""font-size:60px;"">+</div>","null","","","","","","",""
"null","","image-keyboard-response","87","136744","0.0-4.0-0.16","","img/orange.png","null","trial","null","true","0.2,0.8","2:nogo_b","",""
"null","","html-keyboard-response","88","137759","0.0-4.0-1.16","","<img src=""img/orange-r.png"">","null","trial","null","","0.2,0.8","2:nogo_b","1",""
"null","","html-keyboard-response","89","138759","0.0-4.0-2.16","","<div style=""font-size:60px;"">+</div>","null","","","","","","",""
"471","","image-keyboard-response","90","139230","0.0-4.0-0.17","","img/yellow.png","32","trial","32","true","0.8,0.2","1:go_a","",""
"null","","html-keyboard-response","91","140247","0.0-4.0-1.17","","<img src=""img/yellow-r.png"" border=""10"">","null","trial","32","","0.8,0.2","1:go_a","1",""
"null","","html-keyboard-response","92","141262","0.0-4.0-2.17","","<div style=""font-size:60px;"">+</div>","null","","","","","","",""
"null","","image-keyboard-response","93","142779","0.0-4.0-0.18","","img/orange.png","null","trial","null","true","0.2,0.8","2:nogo_b","",""
"null","","html-keyboard-response","94","143794","0.0-4.0-1.18","","<img src=""img/orange-r.png"">","null","trial","null","","0.2,0.8","2:nogo_b","1",""
"null","","html-keyboard-response","95","144794","0.0-4.0-2.18","","<div style=""font-size:60px;"">+</div>","null","","","","","","",""
"359","","image-keyboard-response","96","145154","0.0-4.0-0.19","","img/yellow.png","32","trial","32","true","0.8,0.2","1:go_a","",""
"null","","html-keyboard-response","97","146169","0.0-4.0-1.19","","<img src=""img/yellow-r.png"" border=""10"">","null","trial","32","","0.8,0.2","1:go_a","1",""
"null","","html-keyboard-response","98","147186","0.0-4.0-2.19","","<div style=""font-size:60px;"">+</div>","null","","","","","","",""
"400","","image-keyboard-response","99","147585","0.0-4.0-0.20","","img/yellow.png","32","trial","32","true","0.8,0.2","1:go_a","",""
"null","","html-keyboard-response","100","148593","0.0-4.0-1.20","","<img src=""img/yellow-r.png"" border=""10"">","null","trial","32","","0.8,0.2","1:go_a","1",""
"null","","html-keyboard-response","101","149608","0.0-4.0-2.20","","<div style=""font-size:60px;"">+</div>","null","","","","","","",""
"null","","image-keyboard-response","102","151108","0.0-4.0-0.21","","img/orange.png","null","trial","null","true","0.2,0.8","2:nogo_b","",""
"null","","html-keyboard-response","103","152124","0.0-4.0-1.21","","<img src=""img/orange-r.png"">","null","trial","null","","0.2,0.8","2:nogo_b","1",""
"null","","html-keyboard-response","104","153124","0.0-4.0-2.21","","<div style=""font-size:60px;"">+</div>","null","","","","","","",""
"null","","image-keyboard-response","105","154639","0.0-4.0-0.22","","img/orange.png","null","trial","null","true","0.2,0.8","2:nogo_b","",""
"null","","html-keyboard-response","106","155655","0.0-4.0-1.22","","<img src=""img/orange-r.png"">","null","trial","null","","0.2,0.8","2:nogo_b","1",""
"null","","html-keyboard-response","107","156671","0.0-4.0-2.22","","<div style=""font-size:60px;"">+</div>","null","","","","","","",""
"743","","image-keyboard-response","108","157416","0.0-4.0-0.23","","img/yellow.png","32","trial","32","true","0.8,0.2","1:go_a","",""
"null","","html-keyboard-response","109","158421","0.0-4.0-1.23","","<img src=""img/yellow-n.png"" border=""10"">","null","trial","32","","0.8,0.2","1:go_a","0",""
"null","","html-keyboard-response","110","159437","0.0-4.0-2.23","","<div style=""font-size:60px;"">+</div>","null","","","","","","",""
"1014","","image-keyboard-response","111","160453","0.0-4.0-0.24","","img/yellow.png","32","trial","32","true","0.8,0.2","1:go_a","",""
"null","","html-keyboard-response","112","161468","0.0-4.0-1.24","","<img src=""img/yellow-r.png"" border=""10"">","null","trial","32","","0.8,0.2","1:go_a","1",""
"null","","html-keyboard-response","113","162484","0.0-4.0-2.24","","<div style=""font-size:60px;"">+</div>","null","","","","","","",""
"null","","image-keyboard-response","114","163986","0.0-4.0-0.25","","img/orange.png","null","trial","null","true","0.2,0.8","2:nogo_b","",""
"null","","html-keyboard-response","115","165002","0.0-4.0-1.25","","<img src=""img/orange-r.png"">","null","trial","null","","0.2,0.8","2:nogo_b","1",""
"null","","html-keyboard-response","116","166017","0.0-4.0-2.25","","<div style=""font-size:60px;"">+</div>","null","","","","","","",""
"803","","image-keyboard-response","117","166821","0.0-4.0-0.26","","img/yellow.png","32","trial","32","true","0.8,0.2","1:go_a","",""
"null","","html-keyboard-response","118","167830","0.0-4.0-1.26","","<img src=""img/yellow-r.png"" border=""10"">","null","trial","32","","0.8,0.2","1:go_a","1",""
"null","","html-keyboard-response","119","168831","0.0-4.0-2.26","","<div style=""font-size:60px;"">+</div>","null","","","","","","",""
"null","","image-keyboard-response","120","170346","0.0-4.0-0.27","","img/orange.png","null","trial","null","true","0.2,0.8","2:nogo_b","",""
"null","","html-keyboard-response","121","171361","0.0-4.0-1.27","","<img src=""img/orange-r.png"">","null","trial","null","","0.2,0.8","2:nogo_b","1",""
"null","","html-keyboard-response","122","172378","0.0-4.0-2.27","","<div style=""font-size:60px;"">+</div>","null","","","","","","",""
"708","","image-keyboard-response","123","173086","0.0-4.0-0.28","","img/yellow.png","32","trial","32","true","0.8,0.2","1:go_a","",""
"null","","html-keyboard-response","124","174096","0.0-4.0-1.28","","<img src=""img/yellow-r.png"" border=""10"">","null","trial","32","","0.8,0.2","1:go_a","1",""
"null","","html-keyboard-response","125","175097","0.0-4.0-2.28","","<div style=""font-size:60px;"">+</div>","null","","","","","","",""
"null","","image-keyboard-response","126","176612","0.0-4.0-0.29","","img/orange.png","null","trial","null","true","0.2,0.8","2:nogo_b","",""
"null","","html-keyboard-response","127","177628","0.0-4.0-1.29","","<img src=""img/orange-r.png"">","null","trial","null","","0.2,0.8","2:nogo_b","1",""
"null","","html-keyboard-response","128","178644","0.0-4.0-2.29","","<div style=""font-size:60px;"">+</div>","null","","","","","","",""
"null","","image-keyboard-response","129","180160","0.0-4.0-0.30","","img/orange.png","null","trial","null","true","0.2,0.8","2:nogo_b","",""
"null","","html-keyboard-response","130","181176","0.0-4.0-1.30","","<img src=""img/orange-r.png"">","null","trial","null","","0.2,0.8","2:nogo_b","1",""
"null","","html-keyboard-response","131","182191","0.0-4.0-2.30","","<div style=""font-size:60px;"">+</div>","null","","","","","","",""
"375","","image-keyboard-response","132","182567","0.0-4.0-0.31","","img/yellow.png","32","trial","32","true","0.8,0.2","1:go_a","",""
"null","","html-keyboard-response","133","183582","0.0-4.0-1.31","","<img src=""img/yellow-r.png"" border=""10"">","null","trial","32","","0.8,0.2","1:go_a","1",""
"null","","html-keyboard-response","134","184598","0.0-4.0-2.31","","<div style=""font-size:60px;"">+</div>","null","","","","","","",""
"482","","image-keyboard-response","135","185080","0.0-4.0-0.32","","img/yellow.png","32","trial","32","true","0.8,0.2","1:go_a","",""
"null","","html-keyboard-response","136","186085","0.0-4.0-1.32","","<img src=""img/yellow-r.png"" border=""10"">","null","trial","32","","0.8,0.2","1:go_a","1",""
"null","","html-keyboard-response","137","187098","0.0-4.0-2.32","","<div style=""font-size:60px;"">+</div>","null","","","","","","",""
"null","","image-keyboard-response","138","188599","0.0-4.0-0.33","","img/orange.png","null","trial","null","true","0.2,0.8","2:nogo_b","",""
"null","","html-keyboard-response","139","189614","0.0-4.0-1.33","","<img src=""img/orange-r.png"">","null","trial","null","","0.2,0.8","2:nogo_b","1",""
"null","","html-keyboard-response","140","190632","0.0-4.0-2.33","","<div style=""font-size:60px;"">+</div>","null","","","","","","",""
"409","","image-keyboard-response","141","191042","0.0-4.0-0.34","","img/orange.png","32","trial","null","false","0.2,0.8","2:nogo_b","",""
"null","","html-keyboard-response","142","192052","0.0-4.0-1.34","","<img src=""img/orange-n.png"" border=""10"">","null","trial","null","","0.2,0.8","2:nogo_b","0",""
"null","","html-keyboard-response","143","193068","0.0-4.0-2.34","","<div style=""font-size:60px;"">+</div>","null","","","","","","",""
"458","","image-keyboard-response","144","193526","0.0-4.0-0.35","","img/yellow.png","32","trial","32","true","0.8,0.2","1:go_a","",""
"null","","html-keyboard-response","145","194537","0.0-4.0-1.35","","<img src=""img/yellow-n.png"" border=""10"">","null","trial","32","","0.8,0.2","1:go_a","0",""
"null","","html-keyboard-response","146","195552","0.0-4.0-2.35","","<div style=""font-size:60px;"">+</div>","null","","","","","","",""
"722","","image-keyboard-response","147","196275","0.0-4.0-0.36","","img/yellow.png","32","trial","32","true","0.8,0.2","1:go_a","",""
"null","","html-keyboard-response","148","197287","0.0-4.0-1.36","","<img src=""img/yellow-r.png"" border=""10"">","null","trial","32","","0.8,0.2","1:go_a","1",""
"null","","html-keyboard-response","149","198287","0.0-4.0-2.36","","<div style=""font-size:60px;"">+</div>","null","","","","","","",""
"null","","image-keyboard-response","150","199789","0.0-4.0-0.37","","img/orange.png","null","trial","null","true","0.2,0.8","2:nogo_b","",""
"null","","html-keyboard-response","151","200804","0.0-4.0-1.37","","<img src=""img/orange-r.png"">","null","trial","null","","0.2,0.8","2:nogo_b","1",""
"null","","html-keyboard-response","152","201808","0.0-4.0-2.37","","<div style=""font-size:60px;"">+</div>","null","","","","","","",""
"497","","image-keyboard-response","153","202305","0.0-4.0-0.38","","img/yellow.png","32","trial","32","true","0.8,0.2","1:go_a","",""
"null","","html-keyboard-response","154","203308","0.0-4.0-1.38","","<img src=""img/yellow-r.png"" border=""10"">","null","trial","32","","0.8,0.2","1:go_a","1",""
"null","","html-keyboard-response","155","204324","0.0-4.0-2.38","","<div style=""font-size:60px;"">+</div>","null","","","","","","",""
"415","","image-keyboard-response","156","204741","0.0-4.0-0.39","","img/orange.png","32","trial","null","false","0.2,0.8","2:nogo_b","",""
"null","","html-keyboard-response","157","205746","0.0-4.0-1.39","","<img src=""img/orange-r.png"" border=""10"">","null","trial","null","","0.2,0.8","2:nogo_b","1",""
"null","","html-keyboard-response","158","206746","0.0-4.0-2.39","","<div style=""font-size:60px;"">+</div>","null","","","","","","",""
"374","","image-keyboard-response","159","207122","0.0-4.0-0.40","","img/yellow.png","32","trial","32","true","0.8,0.2","1:go_a","",""
"null","","html-keyboard-response","160","208137","0.0-4.0-1.40","","<img src=""img/yellow-n.png"" border=""10"">","null","trial","32","","0.8,0.2","1:go_a","0",""
"null","","html-keyboard-response","161","209138","0.0-4.0-2.40","","<div style=""font-size:60px;"">+</div>","null","","","","","","",""
"null","","image-keyboard-response","162","210654","0.0-4.0-0.41","","img/orange.png","null","trial","null","true","0.2,0.8","2:nogo_b","",""
"null","","html-keyboard-response","163","211669","0.0-4.0-1.41","","<img src=""img/orange-r.png"">","null","trial","null","","0.2,0.8","2:nogo_b","1",""
"null","","html-keyboard-response","164","212686","0.0-4.0-2.41","","<div style=""font-size:60px;"">+</div>","null","","","","","","",""
"null","","image-keyboard-response","165","214201","0.0-4.0-0.42","","img/orange.png","null","trial","null","true","0.2,0.8","2:nogo_b","",""
"null","","html-keyboard-response","166","215217","0.0-4.0-1.42","","<img src=""img/orange-r.png"">","null","trial","null","","0.2,0.8","2:nogo_b","1",""
"null","","html-keyboard-response","167","216218","0.0-4.0-2.42","","<div style=""font-size:60px;"">+</div>","null","","","","","","",""
"413","","image-keyboard-response","168","216630","0.0-4.0-0.43","","img/yellow.png","32","trial","32","true","0.8,0.2","1:go_a","",""
"null","","html-keyboard-response","169","217641","0.0-4.0-1.43","","<img src=""img/yellow-r.png"" border=""10"">","null","trial","32","","0.8,0.2","1:go_a","1",""
"null","","html-keyboard-response","170","218656","0.0-4.0-2.43","","<div style=""font-size:60px;"">+</div>","null","","","","","","",""
"655","","image-keyboard-response","171","219313","0.0-4.0-0.44","","img/yellow.png","32","trial","32","true","0.8,0.2","1:go_a","",""
"null","","html-keyboard-response","172","220329","0.0-4.0-1.44","","<img src=""img/yellow-n.png"" border=""10"">","null","trial","32","","0.8,0.2","1:go_a","0",""
"null","","html-keyboard-response","173","221345","0.0-4.0-2.44","","<div style=""font-size:60px;"">+</div>","null","","","","","","",""
"null","","image-keyboard-response","174","222860","0.0-4.0-0.45","","img/orange.png","null","trial","null","true","0.2,0.8","2:nogo_b","",""
"null","","html-keyboard-response","175","223876","0.0-4.0-1.45","","<img src=""img/orange-r.png"">","null","trial","null","","0.2,0.8","2:nogo_b","1",""
"null","","html-keyboard-response","176","224892","0.0-4.0-2.45","","<div style=""font-size:60px;"">+</div>","null","","","","","","",""
"null","","image-keyboard-response","177","226408","0.0-4.0-0.46","","img/orange.png","null","trial","null","true","0.2,0.8","2:nogo_b","",""
"null","","html-keyboard-response","178","227423","0.0-4.0-1.46","","<img src=""img/orange-r.png"">","null","trial","null","","0.2,0.8","2:nogo_b","1",""
"null","","html-keyboard-response","179","228439","0.0-4.0-2.46","","<div style=""font-size:60px;"">+</div>","null","","","","","","",""
"602","","image-keyboard-response","180","229042","0.0-4.0-0.47","","img/yellow.png","32","trial","32","true","0.8,0.2","1:go_a","",""
"null","","html-keyboard-response","181","230049","0.0-4.0-1.47","","<img src=""img/yellow-r.png"" border=""10"">","null","trial","32","","0.8,0.2","1:go_a","1",""
"null","","html-keyboard-response","182","231065","0.0-4.0-2.47","","<div style=""font-size:60px;"">+</div>","null","","","","","","",""
"539","","image-keyboard-response","183","231604","0.0-4.0-0.48","","img/yellow.png","32","trial","32","true","0.8,0.2","1:go_a","",""
"null","","html-keyboard-response","184","232612","0.0-4.0-1.48","","<img src=""img/yellow-r.png"" border=""10"">","null","trial","32","","0.8,0.2","1:go_a","1",""
"null","","html-keyboard-response","185","233629","0.0-4.0-2.48","","<div style=""font-size:60px;"">+</div>","null","","","","","","",""
"null","","image-keyboard-response","186","235145","0.0-4.0-0.49","","img/orange.png","null","trial","null","true","0.2,0.8","2:nogo_b","",""
"null","","html-keyboard-response","187","236160","0.0-4.0-1.49","","<img src=""img/orange-r.png"">","null","trial","null","","0.2,0.8","2:nogo_b","1",""
"null","","html-keyboard-response","188","237175","0.0-4.0-2.49","","<div style=""font-size:60px;"">+</div>","null","","","","","","",""
"444","","image-keyboard-response","189","237622","0.0-4.0-0.50","","img/yellow.png","32","trial","32","true","0.8,0.2","1:go_a","",""
"null","","html-keyboard-response","190","238629","0.0-4.0-1.50","","<img src=""img/yellow-n.png"" border=""10"">","null","trial","32","","0.8,0.2","1:go_a","0",""
"null","","html-keyboard-response","191","239630","0.0-4.0-2.50","","<div style=""font-size:60px;"">+</div>","null","","","","","","",""
"755","","image-keyboard-response","192","240386","0.0-4.0-0.51","","img/orange.png","32","trial","null","false","0.2,0.8","2:nogo_b","",""
"null","","html-keyboard-response","193","241396","0.0-4.0-1.51","","<img src=""img/orange-n.png"" border=""10"">","null","trial","null","","0.2,0.8","2:nogo_b","0",""
"null","","html-keyboard-response","194","242411","0.0-4.0-2.51","","<div style=""font-size:60px;"">+</div>","null","","","","","","",""
"573","","image-keyboard-response","195","242987","0.0-4.0-0.52","","img/yellow.png","32","trial","32","true","0.8,0.2","1:go_a","",""
"null","","html-keyboard-response","196","243991","0.0-4.0-1.52","","<img src=""img/yellow-r.png"" border=""10"">","null","trial","32","","0.8,0.2","1:go_a","1",""
"null","","html-keyboard-response","197","245006","0.0-4.0-2.52","","<div style=""font-size:60px;"">+</div>","null","","","","","","",""
"399","","image-keyboard-response","198","245406","0.0-4.0-0.53","","img/orange.png","32","trial","null","false","0.2,0.8","2:nogo_b","",""
"null","","html-keyboard-response","199","246413","0.0-4.0-1.53","","<img src=""img/orange-n.png"" border=""10"">","null","trial","null","","0.2,0.8","2:nogo_b","0",""
"null","","html-keyboard-response","200","247428","0.0-4.0-2.53","","<div style=""font-size:60px;"">+</div>","null","","","","","","",""
"null","","image-keyboard-response","201","248929","0.0-4.0-0.54","","img/orange.png","null","trial","null","true","0.2,0.8","2:nogo_b","",""
"null","","html-keyboard-response","202","249945","0.0-4.0-1.54","","<img src=""img/orange-r.png"">","null","trial","null","","0.2,0.8","2:nogo_b","1",""
"null","","html-keyboard-response","203","250944","0.0-4.0-2.54","","<div style=""font-size:60px;"">+</div>","null","","","","","","",""
"771","","image-keyboard-response","204","251716","0.0-4.0-0.55","","img/yellow.png","32","trial","32","true","0.8,0.2","1:go_a","",""
"null","","html-keyboard-response","205","252726","0.0-4.0-1.55","","<img src=""img/yellow-r.png"" border=""10"">","null","trial","32","","0.8,0.2","1:go_a","1",""
"null","","html-keyboard-response","206","253727","0.0-4.0-2.55","","<div style=""font-size:60px;"">+</div>","null","","","","","","",""
"501","","image-keyboard-response","207","254229","0.0-4.0-0.56","","img/yellow.png","32","trial","32","true","0.8,0.2","1:go_a","",""
"null","","html-keyboard-response","208","255242","0.0-4.0-1.56","","<img src=""img/yellow-r.png"" border=""10"">","null","trial","32","","0.8,0.2","1:go_a","1",""
"null","","html-keyboard-response","209","256244","0.0-4.0-2.56","","<div style=""font-size:60px;"">+</div>","null","","","","","","",""
"null","","image-keyboard-response","210","257761","0.0-4.0-0.57","","img/orange.png","null","trial","null","true","0.2,0.8","2:nogo_b","",""
"null","","html-keyboard-response","211","258776","0.0-4.0-1.57","","<img src=""img/orange-r.png"">","null","trial","null","","0.2,0.8","2:nogo_b","1",""
"null","","html-keyboard-response","212","259792","0.0-4.0-2.57","","<div style=""font-size:60px;"">+</div>","null","","","","","","",""
"427","","image-keyboard-response","213","260219","0.0-4.0-0.58","","img/yellow.png","32","trial","32","true","0.8,0.2","1:go_a","",""
"null","","html-keyboard-response","214","261230","0.0-4.0-1.58","","<img src=""img/yellow-r.png"" border=""10"">","null","trial","32","","0.8,0.2","1:go_a","1",""
"null","","html-keyboard-response","215","262246","0.0-4.0-2.58","","<div style=""font-size:60px;"">+</div>","null","","","","","","",""
"null","","image-keyboard-response","216","263761","0.0-4.0-0.59","","img/orange.png","null","trial","null","true","0.2,0.8","2:nogo_b","",""
"null","","html-keyboard-response","217","264777","0.0-4.0-1.59","","<img src=""img/orange-r.png"">","null","trial","null","","0.2,0.8","2:nogo_b","1",""
"null","","html-keyboard-response","218","265792","0.0-4.0-2.59","","<div style=""font-size:60px;"">+</div>","null","","","","","","",""
"1632","","instructions","219","267424","0.0-5.0","[{""page_index"":0,""viewing_time"":1632}]","","","","","","","","",""
"606","","image-keyboard-response","220","268032","0.0-6.0-0.0","","img/yellow.png","32","trial","32","true","0.6,0.4","3:go_c","",""
"null","","html-keyboard-response","221","269048","0.0-6.0-1.0","","<img src=""img/yellow-n.png"" border=""10"">","null","trial","32","","0.6,0.4","3:go_c","0",""
"null","","html-keyboard-response","222","270064","0.0-6.0-2.0","","<div style=""font-size:60px;"">+</div>","null","","","","","","",""
"471","","image-keyboard-response","223","270536","0.0-6.0-0.1","","img/blue.png","32","trial","32","true","0.6,0.4","1:go_a","",""
"null","","html-keyboard-response","224","271549","0.0-6.0-1.1","","<img src=""img/blue-r.png"" border=""10"">","null","trial","32","","0.6,0.4","1:go_a","1",""
"null","","html-keyboard-response","225","272564","0.0-6.0-2.1","","<div style=""font-size:60px;"">+</div>","null","","","","","","",""
"663","","image-keyboard-response","226","273228","0.0-6.0-0.2","","img/green.png","32","trial","null","false","0.4,0.6","2:nogo_b","",""
"null","","html-keyboard-response","227","274229","0.0-6.0-1.2","","<img src=""img/green-n.png"" border=""10"">","null","trial","null","","0.4,0.6","2:nogo_b","0",""
"null","","html-keyboard-response","228","275245","0.0-6.0-2.2","","<div style=""font-size:60px;"">+</div>","null","","","","","","",""
"578","","image-keyboard-response","229","275824","0.0-6.0-0.3","","img/red.png","32","trial","null","false","0.4,0.6","4:nogo_d","",""
"null","","html-keyboard-response","230","276826","0.0-6.0-1.3","","<img src=""img/red-n.png"" border=""10"">","null","trial","null","","0.4,0.6","4:nogo_d","0",""
"null","","html-keyboard-response","231","277842","0.0-6.0-2.3","","<div style=""font-size:60px;"">+</div>","null","","","","","","",""
"451","","image-keyboard-response","232","278295","0.0-6.0-0.4","","img/blue.png","32","trial","32","true","0.6,0.4","1:go_a","",""
"null","","html-keyboard-response","233","279311","0.0-6.0-1.4","","<img src=""img/blue-r.png"" border=""10"">","null","trial","32","","0.6,0.4","1:go_a","1",""
"null","","html-keyboard-response","234","280327","0.0-6.0-2.4","","<div style=""font-size:60px;"">+</div>","null","","","","","","",""
"null","","image-keyboard-response","235","281843","0.0-6.0-0.5","","img/red.png","null","trial","null","true","0.4,0.6","4:nogo_d","",""
"null","","html-keyboard-response","236","282844","0.0-6.0-1.5","","<img src=""img/red-r.png"">","null","trial","null","","0.4,0.6","4:nogo_d","1",""
"null","","html-keyboard-response","237","283859","0.0-6.0-2.5","","<div style=""font-size:60px;"">+</div>","null","","","","","","",""
"null","","image-keyboard-response","238","285361","0.0-6.0-0.6","","img/green.png","null","trial","null","true","0.4,0.6","2:nogo_b","",""
"null","","html-keyboard-response","239","286377","0.0-6.0-1.6","","<img src=""img/green-r.png"">","null","trial","null","","0.4,0.6","2:nogo_b","1",""
"null","","html-keyboard-response","240","287393","0.0-6.0-2.6","","<div style=""font-size:60px;"">+</div>","null","","","","","","",""
"null","","image-keyboard-response","241","288909","0.0-6.0-0.7","","img/yellow.png","null","trial","32","false","0.6,0.4","3:go_c","",""
"null","","html-keyboard-response","242","289924","0.0-6.0-1.7","","<img src=""img/yellow-r.png"">","null","trial","32","","0.6,0.4","3:go_c","1",""
"null","","html-keyboard-response","243","290941","0.0-6.0-2.7","","<div style=""font-size:60px;"">+</div>","null","","","","","","",""
"395","","image-keyboard-response","244","291335","0.0-6.0-0.8","","img/blue.png","32","trial","32","true","0.6,0.4","1:go_a","",""
"null","","html-keyboard-response","245","292347","0.0-6.0-1.8","","<img src=""img/blue-r.png"" border=""10"">","null","trial","32","","0.6,0.4","1:go_a","1",""
"null","","html-keyboard-response","246","293363","0.0-6.0-2.8","","<div style=""font-size:60px;"">+</div>","null","","","","","","",""
"null","","image-keyboard-response","247","294878","0.0-6.0-0.9","","img/green.png","null","trial","null","true","0.4,0.6","2:nogo_b","",""
"null","","html-keyboard-response","248","295895","0.0-6.0-1.9","","<img src=""img/green-n.png"">","null","trial","null","","0.4,0.6","2:nogo_b","0",""
"null","","html-keyboard-response","249","296911","0.0-6.0-2.9","","<div style=""font-size:60px;"">+</div>","null","","","","","","",""
"null","","image-keyboard-response","250","298411","0.0-6.0-0.10","","img/yellow.png","null","trial","32","false","0.6,0.4","3:go_c","",""
"null","","html-keyboard-response","251","299427","0.0-6.0-1.10","","<img src=""img/yellow-r.png"">","null","trial","32","","0.6,0.4","3:go_c","1",""
"null","","html-keyboard-response","252","300442","0.0-6.0-2.10","","<div style=""font-size:60px;"">+</div>","null","","","","","","",""
"null","","image-keyboard-response","253","301959","0.0-6.0-0.11","","img/red.png","null","trial","null","true","0.4,0.6","4:nogo_d","",""
"null","","html-keyboard-response","254","302974","0.0-6.0-1.11","","<img src=""img/red-r.png"">","null","trial","null","","0.4,0.6","4:nogo_d","1",""
"null","","html-keyboard-response","255","303990","0.0-6.0-2.11","","<div style=""font-size:60px;"">+</div>","null","","","","","","",""
"850","","image-keyboard-response","256","304841","0.0-6.0-0.12","","img/yellow.png","32","trial","32","true","0.6,0.4","3:go_c","",""
"null","","html-keyboard-response","257","305849","0.0-6.0-1.12","","<img src=""img/yellow-r.png"" border=""10"">","null","trial","32","","0.6,0.4","3:go_c","1",""
"null","","html-keyboard-response","258","306865","0.0-6.0-2.12","","<div style=""font-size:60px;"">+</div>","null","","","","","","",""
"457","","image-keyboard-response","259","307324","0.0-6.0-0.13","","img/red.png","32","trial","null","false","0.4,0.6","4:nogo_d","",""
"null","","html-keyboard-response","260","308334","0.0-6.0-1.13","","<img src=""img/red-r.png"" border=""10"">","null","trial","null","","0.4,0.6","4:nogo_d","1",""
"null","","html-keyboard-response","261","309350","0.0-6.0-2.13","","<div style=""font-size:60px;"">+</div>","null","","","","","","",""
"null","","image-keyboard-response","262","310866","0.0-6.0-0.14","","img/green.png","null","trial","null","true","0.4,0.6","2:nogo_b","",""
"null","","html-keyboard-response","263","311884","0.0-6.0-1.14","","<img src=""img/green-r.png"">","null","trial","null","","0.4,0.6","2:nogo_b","1",""
"null","","html-keyboard-response","264","312899","0.0-6.0-2.14","","<div style=""font-size:60px;"">+</div>","null","","","","","","",""
"573","","image-keyboard-response","265","313473","0.0-6.0-0.15","","img/blue.png","32","trial","32","true","0.6,0.4","1:go_a","",""
"null","","html-keyboard-response","266","314477","0.0-6.0-1.15","","<img src=""img/blue-n.png"" border=""10"">","null","trial","32","","0.6,0.4","1:go_a","0",""
"null","","html-keyboard-response","267","315493","0.0-6.0-2.15","","<div style=""font-size:60px;"">+</div>","null","","","","","","",""
"null","","image-keyboard-response","268","317009","0.0-6.0-0.16","","img/yellow.png","null","trial","32","false","0.6,0.4","3:go_c","",""
"null","","html-keyboard-response","269","318024","0.0-6.0-1.16","","<img src=""img/yellow-n.png"">","null","trial","32","","0.6,0.4","3:go_c","0",""
"null","","html-keyboard-response","270","319041","0.0-6.0-2.16","","<div style=""font-size:60px;"">+</div>","null","","","","","","",""
"957","","image-keyboard-response","271","319999","0.0-6.0-0.17","","img/blue.png","32","trial","32","true","0.6,0.4","1:go_a","",""
"null","","html-keyboard-response","272","321010","0.0-6.0-1.17","","<img src=""img/blue-r.png"" border=""10"">","null","trial","32","","0.6,0.4","1:go_a","1",""
"null","","html-keyboard-response","273","322010","0.0-6.0-2.17","","<div style=""font-size:60px;"">+</div>","null","","","","","","",""
"null","","image-keyboard-response","274","323527","0.0-6.0-0.18","","img/red.png","null","trial","null","true","0.4,0.6","4:nogo_d","",""
"null","","html-keyboard-response","275","324542","0.0-6.0-1.18","","<img src=""img/red-r.png"">","null","trial","null","","0.4,0.6","4:nogo_d","1",""
"null","","html-keyboard-response","276","325557","0.0-6.0-2.18","","<div style=""font-size:60px;"">+</div>","null","","","","","","",""
"null","","image-keyboard-response","277","327074","0.0-6.0-0.19","","img/green.png","null","trial","null","true","0.4,0.6","2:nogo_b","",""
"null","","html-keyboard-response","278","328089","0.0-6.0-1.19","","<img src=""img/green-r.png"">","null","trial","null","","0.4,0.6","2:nogo_b","1",""
"null","","html-keyboard-response","279","329105","0.0-6.0-2.19","","<div style=""font-size:60px;"">+</div>","null","","","","","","",""
"918","","image-keyboard-response","280","330024","0.0-6.0-0.20","","img/red.png","32","trial","null","false","0.4,0.6","4:nogo_d","",""
"null","","html-keyboard-response","281","331029","0.0-6.0-1.20","","<img src=""img/red-r.png"" border=""10"">","null","trial","null","","0.4,0.6","4:nogo_d","1",""
"null","","html-keyboard-response","282","332030","0.0-6.0-2.20","","<div style=""font-size:60px;"">+</div>","null","","","","","","",""
"365","","image-keyboard-response","283","332395","0.0-6.0-0.21","","img/yellow.png","32","trial","32","true","0.6,0.4","3:go_c","",""
"null","","html-keyboard-response","284","333406","0.0-6.0-1.21","","<img src=""img/yellow-r.png"" border=""10"">","null","trial","32","","0.6,0.4","3:go_c","1",""
"null","","html-keyboard-response","285","334420","0.0-6.0-2.21","","<div style=""font-size:60px;"">+</div>","null","","","","","","",""
"952","","image-keyboard-response","286","335375","0.0-6.0-0.22","","img/blue.png","32","trial","32","true","0.6,0.4","1:go_a","",""
"null","","html-keyboard-response","287","336391","0.0-6.0-1.22","","<img src=""img/blue-r.png"" border=""10"">","null","trial","32","","0.6,0.4","1:go_a","1",""
"null","","html-keyboard-response","288","337406","0.0-6.0-2.22","","<div style=""font-size:60px;"">+</div>","null","","","","","","",""
"822","","image-keyboard-response","289","338229","0.0-6.0-0.23","","img/green.png","32","trial","null","false","0.4,0.6","2:nogo_b","",""
"null","","html-keyboard-response","290","339235","0.0-6.0-1.23","","<img src=""img/green-n.png"" border=""10"">","null","trial","null","","0.4,0.6","2:nogo_b","0",""
"null","","html-keyboard-response","291","340250","0.0-6.0-2.23","","<div style=""font-size:60px;"">+</div>","null","","","","","","",""
"616","","image-keyboard-response","292","340868","0.0-6.0-0.24","","img/blue.png","32","trial","32","true","0.6,0.4","1:go_a","",""
"null","","html-keyboard-response","293","341875","0.0-6.0-1.24","","<img src=""img/blue-n.png"" border=""10"">","null","trial","32","","0.6,0.4","1:go_a","0",""
"null","","html-keyboard-response","294","342891","0.0-6.0-2.24","","<div style=""font-size:60px;"">+</div>","null","","","","","","",""
"null","","image-keyboard-response","295","344407","0.0-6.0-0.25","","img/green.png","null","trial","null","true","0.4,0.6","2:nogo_b","",""
"null","","html-keyboard-response","296","345424","0.0-6.0-1.25","","<img src=""img/green-r.png"">","null","trial","null","","0.4,0.6","2:nogo_b","1",""
"null","","html-keyboard-response","297","346439","0.0-6.0-2.25","","<div style=""font-size:60px;"">+</div>","null","","","","","","",""
"434","","image-keyboard-response","298","346874","0.0-6.0-0.26","","img/red.png","32","trial","null","false","0.4,0.6","4:nogo_d","",""
"null","","html-keyboard-response","299","347877","0.0-6.0-1.26","","<img src=""img/red-r.png"" border=""10"">","null","trial","null","","0.4,0.6","4:nogo_d","1",""
"null","","html-keyboard-response","300","348893","0.0-6.0-2.26","","<div style=""font-size:60px;"">+</div>","null","","","","","","",""
"366","","image-keyboard-response","301","349260","0.0-6.0-0.27","","img/yellow.png","32","trial","32","true","0.6,0.4","3:go_c","",""
"null","","html-keyboard-response","302","350268","0.0-6.0-1.27","","<img src=""img/yellow-r.png"" border=""10"">","null","trial","32","","0.6,0.4","3:go_c","1",""
"null","","html-keyboard-response","303","351283","0.0-6.0-2.27","","<div style=""font-size:60px;"">+</div>","null","","","","","","",""
"430","","image-keyboard-response","304","351714","0.0-6.0-0.28","","img/yellow.png","32","trial","32","true","0.6,0.4","3:go_c","",""
"null","","html-keyboard-response","305","352722","0.0-6.0-1.28","","<img src=""img/yellow-n.png"" border=""10"">","null","trial","32","","0.6,0.4","3:go_c","0",""
"null","","html-keyboard-response","306","353737","0.0-6.0-2.28","","<div style=""font-size:60px;"">+</div>","null","","","","","","",""
"595","","image-keyboard-response","307","354333","0.0-6.0-0.29","","img/blue.png","32","trial","32","true","0.6,0.4","1:go_a","",""
"null","","html-keyboard-response","308","355347","0.0-6.0-1.29","","<img src=""img/blue-r.png"" border=""10"">","null","trial","32","","0.6,0.4","1:go_a","1",""
"null","","html-keyboard-response","309","356362","0.0-6.0-2.29","","<div style=""font-size:60px;"">+</div>","null","","","","","","",""
"null","","image-keyboard-response","310","357878","0.0-6.0-0.30","","img/green.png","null","trial","null","true","0.4,0.6","2:nogo_b","",""
"null","","html-keyboard-response","311","358879","0.0-6.0-1.30","","<img src=""img/green-r.png"">","null","trial","null","","0.4,0.6","2:nogo_b","1",""
"null","","html-keyboard-response","312","359880","0.0-6.0-2.30","","<div style=""font-size:60px;"">+</div>","null","","","","","","",""
"392","","image-keyboard-response","313","360273","0.0-6.0-0.31","","img/red.png","32","trial","null","false","0.4,0.6","4:nogo_d","",""
"null","","html-keyboard-response","314","361286","0.0-6.0-1.31","","<img src=""img/red-n.png"" border=""10"">","null","trial","null","","0.4,0.6","4:nogo_d","0",""
"null","","html-keyboard-response","315","362302","0.0-6.0-2.31","","<div style=""font-size:60px;"">+</div>","null","","","","","","",""
"417","","image-keyboard-response","316","362720","0.0-6.0-0.32","","img/blue.png","32","trial","32","true","0.6,0.4","1:go_a","",""
"null","","html-keyboard-response","317","363723","0.0-6.0-1.32","","<img src=""img/blue-r.png"" border=""10"">","null","trial","32","","0.6,0.4","1:go_a","1",""
"null","","html-keyboard-response","318","364740","0.0-6.0-2.32","","<div style=""font-size:60px;"">+</div>","null","","","","","","",""
"539","","image-keyboard-response","319","365280","0.0-6.0-0.33","","img/green.png","32","trial","null","false","0.4,0.6","2:nogo_b","",""
"null","","html-keyboard-response","320","366287","0.0-6.0-1.33","","<img src=""img/green-r.png"" border=""10"">","null","trial","null","","0.4,0.6","2:nogo_b","1",""
"null","","html-keyboard-response","321","367302","0.0-6.0-2.33","","<div style=""font-size:60px;"">+</div>","null","","","","","","",""
"null","","image-keyboard-response","322","368819","0.0-6.0-0.34","","img/yellow.png","null","trial","32","false","0.6,0.4","3:go_c","",""
"null","","html-keyboard-response","323","369834","0.0-6.0-1.34","","<img src=""img/yellow-r.png"">","null","trial","32","","0.6,0.4","3:go_c","1",""
"null","","html-keyboard-response","324","370850","0.0-6.0-2.34","","<div style=""font-size:60px;"">+</div>","null","","","","","","",""
"369","","image-keyboard-response","325","371221","0.0-6.0-0.35","","img/red.png","32","trial","null","false","0.4,0.6","4:nogo_d","",""
"null","","html-keyboard-response","326","372225","0.0-6.0-1.35","","<img src=""img/red-n.png"" border=""10"">","null","trial","null","","0.4,0.6","4:nogo_d","0",""
"null","","html-keyboard-response","327","373225","0.0-6.0-2.35","","<div style=""font-size:60px;"">+</div>","null","","","","","","",""
"666","","image-keyboard-response","328","373893","0.0-6.0-0.36","","img/yellow.png","32","trial","32","true","0.6,0.4","3:go_c","",""
"null","","html-keyboard-response","329","374897","0.0-6.0-1.36","","<img src=""img/yellow-n.png"" border=""10"">","null","trial","32","","0.6,0.4","3:go_c","0",""
"null","","html-keyboard-response","330","375914","0.0-6.0-2.36","","<div style=""font-size:60px;"">+</div>","null","","","","","","",""
"null","","image-keyboard-response","331","377429","0.0-6.0-0.37","","img/green.png","null","trial","null","true","0.4,0.6","2:nogo_b","",""
"null","","html-keyboard-response","332","378445","0.0-6.0-1.37","","<img src=""img/green-r.png"">","null","trial","null","","0.4,0.6","2:nogo_b","1",""
"null","","html-keyboard-response","333","379460","0.0-6.0-2.37","","<div style=""font-size:60px;"">+</div>","null","","","","","","",""
"408","","image-keyboard-response","334","379870","0.0-6.0-0.38","","img/blue.png","32","trial","32","true","0.6,0.4","1:go_a","",""
"null","","html-keyboard-response","335","380883","0.0-6.0-1.38","","<img src=""img/blue-r.png"" border=""10"">","null","trial","32","","0.6,0.4","1:go_a","1",""
"null","","html-keyboard-response","336","381887","0.0-6.0-2.38","","<div style=""font-size:60px;"">+</div>","null","","","","","","",""
"1087","","image-keyboard-response","337","382976","0.0-6.0-0.39","","img/red.png","32","trial","null","false","0.4,0.6","4:nogo_d","",""
"null","","html-keyboard-response","338","383981","0.0-6.0-1.39","","<img src=""img/red-r.png"" border=""10"">","null","trial","null","","0.4,0.6","4:nogo_d","1",""
"null","","html-keyboard-response","339","384981","0.0-6.0-2.39","","<div style=""font-size:60px;"">+</div>","null","","","","","","",""
"870","","image-keyboard-response","340","385852","0.0-6.0-0.40","","img/blue.png","32","trial","32","true","0.6,0.4","1:go_a","",""
"null","","html-keyboard-response","341","386856","0.0-6.0-1.40","","<img src=""img/blue-r.png"" border=""10"">","null","trial","32","","0.6,0.4","1:go_a","1",""
"null","","html-keyboard-response","342","387872","0.0-6.0-2.40","","<div style=""font-size:60px;"">+</div>","null","","","","","","",""
"575","","image-keyboard-response","343","388447","0.0-6.0-0.41","","img/green.png","32","trial","null","false","0.4,0.6","2:nogo_b","",""
"null","","html-keyboard-response","344","389450","0.0-6.0-1.41","","<img src=""img/green-n.png"" border=""10"">","null","trial","null","","0.4,0.6","2:nogo_b","0",""
"null","","html-keyboard-response","345","390452","0.0-6.0-2.41","","<div style=""font-size:60px;"">+</div>","null","","","","","","",""
"644","","image-keyboard-response","346","391096","0.0-6.0-0.42","","img/red.png","32","trial","null","false","0.4,0.6","4:nogo_d","",""
"null","","html-keyboard-response","347","392108","0.0-6.0-1.42","","<img src=""img/red-n.png"" border=""10"">","null","trial","null","","0.4,0.6","4:nogo_d","0",""
"null","","html-keyboard-response","348","393123","0.0-6.0-2.42","","<div style=""font-size:60px;"">+</div>","null","","","","","","",""
"1087","","image-keyboard-response","349","394212","0.0-6.0-0.43","","img/yellow.png","32","trial","32","true","0.6,0.4","3:go_c","",""
"null","","html-keyboard-response","350","395218","0.0-6.0-1.43","","<img src=""img/yellow-r.png"" border=""10"">","null","trial","32","","0.6,0.4","3:go_c","1",""
"null","","html-keyboard-response","351","396234","0.0-6.0-2.43","","<div style=""font-size:60px;"">+</div>","null","","","","","","",""
"341","","image-keyboard-response","352","396576","0.0-6.0-0.44","","img/red.png","32","trial","null","false","0.4,0.6","4:nogo_d","",""
"null","","html-keyboard-response","353","397593","0.0-6.0-1.44","","<img src=""img/red-r.png"" border=""10"">","null","trial","null","","0.4,0.6","4:nogo_d","1",""
"null","","html-keyboard-response","354","398593","0.0-6.0-2.44","","<div style=""font-size:60px;"">+</div>","null","","","","","","",""
"null","","image-keyboard-response","355","400109","0.0-6.0-0.45","","img/green.png","null","trial","null","true","0.4,0.6","2:nogo_b","",""
"null","","html-keyboard-response","356","401125","0.0-6.0-1.45","","<img src=""img/green-n.png"">","null","trial","null","","0.4,0.6","2:nogo_b","0",""
"null","","html-keyboard-response","357","402140","0.0-6.0-2.45","","<div style=""font-size:60px;"">+</div>","null","","","","","","",""
"574","","image-keyboard-response","358","402716","0.0-6.0-0.46","","img/blue.png","32","trial","32","true","0.6,0.4","1:go_a","",""
"null","","html-keyboard-response","359","403720","0.0-6.0-1.46","","<img src=""img/blue-r.png"" border=""10"">","null","trial","32","","0.6,0.4","1:go_a","1",""
"null","","html-keyboard-response","360","404735","0.0-6.0-2.46","","<div style=""font-size:60px;"">+</div>","null","","","","","","",""
"null","","image-keyboard-response","361","406252","0.0-6.0-0.47","","img/yellow.png","null","trial","32","false","0.6,0.4","3:go_c","",""
"null","","html-keyboard-response","362","407253","0.0-6.0-1.47","","<img src=""img/yellow-r.png"">","null","trial","32","","0.6,0.4","3:go_c","1",""
"null","","html-keyboard-response","363","408268","0.0-6.0-2.47","","<div style=""font-size:60px;"">+</div>","null","","","","","","",""
"577","","image-keyboard-response","364","408846","0.0-6.0-0.48","","img/blue.png","32","trial","32","true","0.6,0.4","1:go_a","",""
"null","","html-keyboard-response","365","409863","0.0-6.0-1.48","","<img src=""img/blue-r.png"" border=""10"">","null","trial","32","","0.6,0.4","1:go_a","1",""
"null","","html-keyboard-response","366","410879","0.0-6.0-2.48","","<div style=""font-size:60px;"">+</div>","null","","","","","","",""
"null","","image-keyboard-response","367","412395","0.0-6.0-0.49","","img/green.png","null","trial","null","true","0.4,0.6","2:nogo_b","",""
"null","","html-keyboard-response","368","413410","0.0-6.0-1.49","","<img src=""img/green-n.png"">","null","trial","null","","0.4,0.6","2:nogo_b","0",""
"null","","html-keyboard-response","369","414427","0.0-6.0-2.49","","<div style=""font-size:60px;"">+</div>","null","","","","","","",""
"602","","image-keyboard-response","370","415028","0.0-6.0-0.50","","img/red.png","32","trial","null","false","0.4,0.6","4:nogo_d","",""
"null","","html-keyboard-response","371","416036","0.0-6.0-1.50","","<img src=""img/red-n.png"" border=""10"">","null","trial","null","","0.4,0.6","4:nogo_d","0",""
"null","","html-keyboard-response","372","417052","0.0-6.0-2.50","","<div style=""font-size:60px;"">+</div>","null","","","","","","",""
"406","","image-keyboard-response","373","417458","0.0-6.0-0.51","","img/yellow.png","32","trial","32","true","0.6,0.4","3:go_c","",""
"null","","html-keyboard-response","374","418475","0.0-6.0-1.51","","<img src=""img/yellow-r.png"" border=""10"">","null","trial","32","","0.6,0.4","3:go_c","1",""
"null","","html-keyboard-response","375","419490","0.0-6.0-2.51","","<div style=""font-size:60px;"">+</div>","null","","","","","","",""
"530","","image-keyboard-response","376","420021","0.0-6.0-0.52","","img/yellow.png","32","trial","32","true","0.6,0.4","3:go_c","",""
"null","","html-keyboard-response","377","421038","0.0-6.0-1.52","","<img src=""img/yellow-r.png"" border=""10"">","null","trial","32","","0.6,0.4","3:go_c","1",""
"null","","html-keyboard-response","378","422053","0.0-6.0-2.52","","<div style=""font-size:60px;"">+</div>","null","","","","","","",""
"null","","image-keyboard-response","379","423569","0.0-6.0-0.53","","img/green.png","null","trial","null","true","0.4,0.6","2:nogo_b","",""
"null","","html-keyboard-response","380","424585","0.0-6.0-1.53","","<img src=""img/green-n.png"">","null","trial","null","","0.4,0.6","2:nogo_b","0",""
"null","","html-keyboard-response","381","425601","0.0-6.0-2.53","","<div style=""font-size:60px;"">+</div>","null","","","","","","",""
"null","","image-keyboard-response","382","427118","0.0-6.0-0.54","","img/red.png","null","trial","null","true","0.4,0.6","4:nogo_d","",""
"null","","html-keyboard-response","383","428133","0.0-6.0-1.54","","<img src=""img/red-r.png"">","null","trial","null","","0.4,0.6","4:nogo_d","1",""
"null","","html-keyboard-response","384","429134","0.0-6.0-2.54","","<div style=""font-size:60px;"">+</div>","null","","","","","","",""
"731","","image-keyboard-response","385","429866","0.0-6.0-0.55","","img/blue.png","32","trial","32","true","0.6,0.4","1:go_a","",""
"null","","html-keyboard-response","386","430868","0.0-6.0-1.55","","<img src=""img/blue-r.png"" border=""10"">","null","trial","32","","0.6,0.4","1:go_a","1",""
"null","","html-keyboard-response","387","431884","0.0-6.0-2.55","","<div style=""font-size:60px;"">+</div>","null","","","","","","",""
"624","","image-keyboard-response","388","432508","0.0-6.0-0.56","","img/blue.png","32","trial","32","true","0.6,0.4","1:go_a","",""
"null","","html-keyboard-response","389","433509","0.0-6.0-1.56","","<img src=""img/blue-r.png"" border=""10"">","null","trial","32","","0.6,0.4","1:go_a","1",""
"null","","html-keyboard-response","390","434510","0.0-6.0-2.56","","<div style=""font-size:60px;"">+</div>","null","","","","","","",""
"1112","","image-keyboard-response","391","435624","0.0-6.0-0.57","","img/green.png","32","trial","null","false","0.4,0.6","2:nogo_b","",""
"null","","html-keyboard-response","392","436635","0.0-6.0-1.57","","<img src=""img/green-r.png"" border=""10"">","null","trial","null","","0.4,0.6","2:nogo_b","1",""
"null","","html-keyboard-response","393","437651","0.0-6.0-2.57","","<div style=""font-size:60px;"">+</div>","null","","","","","","",""
"416","","image-keyboard-response","394","438068","0.0-6.0-0.58","","img/red.png","32","trial","null","false","0.4,0.6","4:nogo_d","",""
"null","","html-keyboard-response","395","439073","0.0-6.0-1.58","","<img src=""img/red-n.png"" border=""10"">","null","trial","null","","0.4,0.6","4:nogo_d","0",""
"null","","html-keyboard-response","396","440088","0.0-6.0-2.58","","<div style=""font-size:60px;"">+</div>","null","","","","","","",""
"412","","image-keyboard-response","397","440501","0.0-6.0-0.59","","img/yellow.png","32","trial","32","true","0.6,0.4","3:go_c","",""
"null","","html-keyboard-response","398","441511","0.0-6.0-1.59","","<img src=""img/yellow-n.png"" border=""10"">","null","trial","32","","0.6,0.4","3:go_c","0",""
"null","","html-keyboard-response","399","442526","0.0-6.0-2.59","","<div style=""font-size:60px;"">+</div>","null","","","","","","",""
"852","","image-keyboard-response","400","443380","0.0-6.0-0.60","","img/red.png","32","trial","null","false","0.4,0.6","4:nogo_d","",""
"null","","html-keyboard-response","401","444386","0.0-6.0-1.60","","<img src=""img/red-n.png"" border=""10"">","null","trial","null","","0.4,0.6","4:nogo_d","0",""
"null","","html-keyboard-response","402","445387","0.0-6.0-2.60","","<div style=""font-size:60px;"">+</div>","null","","","","","","",""
"null","","image-keyboard-response","403","446902","0.0-6.0-0.61","","img/green.png","null","trial","null","true","0.4,0.6","2:nogo_b","",""
"null","","html-keyboard-response","404","447918","0.0-6.0-1.61","","<img src=""img/green-n.png"">","null","trial","null","","0.4,0.6","2:nogo_b","0",""
"null","","html-keyboard-response","405","448933","0.0-6.0-2.61","","<div style=""font-size:60px;"">+</div>","null","","","","","","",""
"null","","image-keyboard-response","406","450449","0.0-6.0-0.62","","img/yellow.png","null","trial","32","false","0.6,0.4","3:go_c","",""
"null","","html-keyboard-response","407","451465","0.0-6.0-1.62","","<img src=""img/yellow-n.png"">","null","trial","32","","0.6,0.4","3:go_c","0",""
"null","","html-keyboard-response","408","452481","0.0-6.0-2.62","","<div style=""font-size:60px;"">+</div>","null","","","","","","",""
"402","","image-keyboard-response","409","452884","0.0-6.0-0.63","","img/blue.png","32","trial","32","true","0.6,0.4","1:go_a","",""
"null","","html-keyboard-response","410","453890","0.0-6.0-1.63","","<img src=""img/blue-r.png"" border=""10"">","null","trial","32","","0.6,0.4","1:go_a","1",""
"null","","html-keyboard-response","411","454906","0.0-6.0-2.63","","<div style=""font-size:60px;"">+</div>","null","","","","","","",""
"908","","image-keyboard-response","412","455814","0.0-6.0-0.64","","img/red.png","32","trial","null","false","0.4,0.6","4:nogo_d","",""
"null","","html-keyboard-response","413","456828","0.0-6.0-1.64","","<img src=""img/red-n.png"" border=""10"">","null","trial","null","","0.4,0.6","4:nogo_d","0",""
"null","","html-keyboard-response","414","457841","0.0-6.0-2.64","","<div style=""font-size:60px;"">+</div>","null","","","","","","",""
"null","","image-keyboard-response","415","459357","0.0-6.0-0.65","","img/green.png","null","trial","null","true","0.4,0.6","2:nogo_b","",""
"null","","html-keyboard-response","416","460374","0.0-6.0-1.65","","<img src=""img/green-n.png"">","null","trial","null","","0.4,0.6","2:nogo_b","0",""
"null","","html-keyboard-response","417","461385","0.0-6.0-2.65","","<div style=""font-size:60px;"">+</div>","null","","","","","","",""
"659","","image-keyboard-response","418","462046","0.0-6.0-0.66","","img/yellow.png","32","trial","32","true","0.6,0.4","3:go_c","",""
"null","","html-keyboard-response","419","463056","0.0-6.0-1.66","","<img src=""img/yellow-r.png"" border=""10"">","null","trial","32","","0.6,0.4","3:go_c","1",""
"null","","html-keyboard-response","420","464072","0.0-6.0-2.66","","<div style=""font-size:60px;"">+</div>","null","","","","","","",""
"523","","image-keyboard-response","421","464596","0.0-6.0-0.67","","img/blue.png","32","trial","32","true","0.6,0.4","1:go_a","",""
"null","","html-keyboard-response","422","465605","0.0-6.0-1.67","","<img src=""img/blue-n.png"" border=""10"">","null","trial","32","","0.6,0.4","1:go_a","0",""
"null","","html-keyboard-response","423","466606","0.0-6.0-2.67","","<div style=""font-size:60px;"">+</div>","null","","","","","","",""
"526","","image-keyboard-response","424","467132","0.0-6.0-0.68","","img/yellow.png","32","trial","32","true","0.6,0.4","3:go_c","",""
"null","","html-keyboard-response","425","468137","0.0-6.0-1.68","","<img src=""img/yellow-r.png"" border=""10"">","null","trial","32","","0.6,0.4","3:go_c","1",""
"null","","html-keyboard-response","426","469153","0.0-6.0-2.68","","<div style=""font-size:60px;"">+</div>","null","","","","","","",""
"914","","image-keyboard-response","427","470069","0.0-6.0-0.69","","img/red.png","32","trial","null","false","0.4,0.6","4:nogo_d","",""
"null","","html-keyboard-response","428","471075","0.0-6.0-1.69","","<img src=""img/red-r.png"" border=""10"">","null","trial","null","","0.4,0.6","4:nogo_d","1",""
"null","","html-keyboard-response","429","472090","0.0-6.0-2.69","","<div style=""font-size:60px;"">+</div>","null","","","","","","",""
"null","","image-keyboard-response","430","473606","0.0-6.0-0.70","","img/green.png","null","trial","null","true","0.4,0.6","2:nogo_b","",""
"null","","html-keyboard-response","431","474607","0.0-6.0-1.70","","<img src=""img/green-r.png"">","null","trial","null","","0.4,0.6","2:nogo_b","1",""
"null","","html-keyboard-response","432","475623","0.0-6.0-2.70","","<div style=""font-size:60px;"">+</div>","null","","","","","","",""
"null","","image-keyboard-response","433","477138","0.0-6.0-0.71","","img/blue.png","null","trial","32","false","0.6,0.4","1:go_a","",""
"null","","html-keyboard-response","434","478154","0.0-6.0-1.71","","<img src=""img/blue-n.png"">","null","trial","32","","0.6,0.4","1:go_a","0",""
"null","","html-keyboard-response","435","479170","0.0-6.0-2.71","","<div style=""font-size:60px;"">+</div>","null","","","","","","",""
"808","","image-keyboard-response","436","479978","0.0-6.0-0.72","","img/yellow.png","32","trial","32","true","0.6,0.4","3:go_c","",""
"null","","html-keyboard-response","437","480982","0.0-6.0-1.72","","<img src=""img/yellow-n.png"" border=""10"">","null","trial","32","","0.6,0.4","3:go_c","0",""
"null","","html-keyboard-response","438","481999","0.0-6.0-2.72","","<div style=""font-size:60px;"">+</div>","null","","","","","","",""
"null","","image-keyboard-response","439","483514","0.0-6.0-0.73","","img/green.png","null","trial","null","true","0.4,0.6","2:nogo_b","",""
"null","","html-keyboard-response","440","484517","0.0-6.0-1.73","","<img src=""img/green-n.png"">","null","trial","null","","0.4,0.6","2:nogo_b","0",""
"null","","html-keyboard-response","441","485532","0.0-6.0-2.73","","<div style=""font-size:60px;"">+</div>","null","","","","","","",""
"null","","image-keyboard-response","442","487048","0.0-6.0-0.74","","img/blue.png","null","trial","32","false","0.6,0.4","1:go_a","",""
"null","","html-keyboard-response","443","488064","0.0-6.0-1.74","","<img src=""img/blue-r.png"">","null","trial","32","","0.6,0.4","1:go_a","1",""
"null","","html-keyboard-response","444","489080","0.0-6.0-2.74","","<div style=""font-size:60px;"">+</div>","null","","","","","","",""
"null","","image-keyboard-response","445","490581","0.0-6.0-0.75","","img/red.png","null","trial","null","true","0.4,0.6","4:nogo_d","",""
"null","","html-keyboard-response","446","491596","0.0-6.0-1.75","","<img src=""img/red-r.png"">","null","trial","null","","0.4,0.6","4:nogo_d","1",""
"null","","html-keyboard-response","447","492612","0.0-6.0-2.75","","<div style=""font-size:60px;"">+</div>","null","","","","","","",""
"378","","image-keyboard-response","448","492990","0.0-6.0-0.76","","img/yellow.png","32","trial","32","true","0.6,0.4","3:go_c","",""
"null","","html-keyboard-response","449","494003","0.0-6.0-1.76","","<img src=""img/yellow-r.png"" border=""10"">","null","trial","32","","0.6,0.4","3:go_c","1",""
"null","","html-keyboard-response","450","495018","0.0-6.0-2.76","","<div style=""font-size:60px;"">+</div>","null","","","","","","",""
"427","","image-keyboard-response","451","495446","0.0-6.0-0.77","","img/red.png","32","trial","null","false","0.4,0.6","4:nogo_d","",""
"null","","html-keyboard-response","452","496456","0.0-6.0-1.77","","<img src=""img/red-n.png"" border=""10"">","null","trial","null","","0.4,0.6","4:nogo_d","0",""
"null","","html-keyboard-response","453","497472","0.0-6.0-2.77","","<div style=""font-size:60px;"">+</div>","null","","","","","","",""
"377","","image-keyboard-response","454","497849","0.0-6.0-0.78","","img/blue.png","32","trial","32","true","0.6,0.4","1:go_a","",""
"null","","html-keyboard-response","455","498863","0.0-6.0-1.78","","<img src=""img/blue-r.png"" border=""10"">","null","trial","32","","0.6,0.4","1:go_a","1",""
"null","","html-keyboard-response","456","499878","0.0-6.0-2.78","","<div style=""font-size:60px;"">+</div>","null","","","","","","",""
"394","","image-keyboard-response","457","500274","0.0-6.0-0.79","","img/green.png","32","trial","null","false","0.4,0.6","2:nogo_b","",""
"null","","html-keyboard-response","458","501285","0.0-6.0-1.79","","<img src=""img/green-r.png"" border=""10"">","null","trial","null","","0.4,0.6","2:nogo_b","1",""
"null","","html-keyboard-response","459","502300","0.0-6.0-2.79","","<div style=""font-size:60px;"">+</div>","null","","","","","","",""
"712","","image-keyboard-response","460","503013","0.0-6.0-0.80","","img/blue.png","32","trial","32","true","0.6,0.4","1:go_a","",""
"null","","html-keyboard-response","461","504019","0.0-6.0-1.80","","<img src=""img/blue-r.png"" border=""10"">","null","trial","32","","0.6,0.4","1:go_a","1",""
"null","","html-keyboard-response","462","505019","0.0-6.0-2.80","","<div style=""font-size:60px;"">+</div>","null","","","","","","",""
"437","","image-keyboard-response","463","505458","0.0-6.0-0.81","","img/yellow.png","32","trial","32","true","0.6,0.4","3:go_c","",""
"null","","html-keyboard-response","464","506472","0.0-6.0-1.81","","<img src=""img/yellow-r.png"" border=""10"">","null","trial","32","","0.6,0.4","3:go_c","1",""
"null","","html-keyboard-response","465","507488","0.0-6.0-2.81","","<div style=""font-size:60px;"">+</div>","null","","","","","","",""
"793","","image-keyboard-response","466","508282","0.0-6.0-0.82","","img/green.png","32","trial","null","false","0.4,0.6","2:nogo_b","",""
"null","","html-keyboard-response","467","509285","0.0-6.0-1.82","","<img src=""img/green-n.png"" border=""10"">","null","trial","null","","0.4,0.6","2:nogo_b","0",""
"null","","html-keyboard-response","468","510301","0.0-6.0-2.82","","<div style=""font-size:60px;"">+</div>","null","","","","","","",""
"575","","image-keyboard-response","469","510876","0.0-6.0-0.83","","img/red.png","32","trial","null","false","0.4,0.6","4:nogo_d","",""
"null","","html-keyboard-response","470","511879","0.0-6.0-1.83","","<img src=""img/red-r.png"" border=""10"">","null","trial","null","","0.4,0.6","4:nogo_d","1",""
"null","","html-keyboard-response","471","512895","0.0-6.0-2.83","","<div style=""font-size:60px;"">+</div>","null","","","","","","",""
"639","","image-keyboard-response","472","513534","0.0-6.0-0.84","","img/blue.png","32","trial","32","true","0.6,0.4","1:go_a","",""
"null","","html-keyboard-response","473","514535","0.0-6.0-1.84","","<img src=""img/blue-n.png"" border=""10"">","null","trial","32","","0.6,0.4","1:go_a","0",""
"null","","html-keyboard-response","474","515551","0.0-6.0-2.84","","<div style=""font-size:60px;"">+</div>","null","","","","","","",""
"null","","image-keyboard-response","475","517067","0.0-6.0-0.85","","img/green.png","null","trial","null","true","0.4,0.6","2:nogo_b","",""
"null","","html-keyboard-response","476","518083","0.0-6.0-1.85","","<img src=""img/green-r.png"">","null","trial","null","","0.4,0.6","2:nogo_b","1",""
"null","","html-keyboard-response","477","519098","0.0-6.0-2.85","","<div style=""font-size:60px;"">+</div>","null","","","","","","",""
"885","","image-keyboard-response","478","519984","0.0-6.0-0.86","","img/red.png","32","trial","null","false","0.4,0.6","4:nogo_d","",""
"null","","html-keyboard-response","479","520988","0.0-6.0-1.86","","<img src=""img/red-n.png"" border=""10"">","null","trial","null","","0.4,0.6","4:nogo_d","0",""
"null","","html-keyboard-response","480","522004","0.0-6.0-2.86","","<div style=""font-size:60px;"">+</div>","null","","","","","","",""
"398","","image-keyboard-response","481","522403","0.0-6.0-0.87","","img/yellow.png","32","trial","32","true","0.6,0.4","3:go_c","",""
"null","","html-keyboard-response","482","523411","0.0-6.0-1.87","","<img src=""img/yellow-n.png"" border=""10"">","null","trial","32","","0.6,0.4","3:go_c","0",""
"null","","html-keyboard-response","483","524427","0.0-6.0-2.87","","<div style=""font-size:60px;"">+</div>","null","","","","","","",""
"null","","image-keyboard-response","484","525943","0.0-6.0-0.88","","img/blue.png","null","trial","32","false","0.6,0.4","1:go_a","",""
"null","","html-keyboard-response","485","526958","0.0-6.0-1.88","","<img src=""img/blue-n.png"">","null","trial","32","","0.6,0.4","1:go_a","0",""
"null","","html-keyboard-response","486","527974","0.0-6.0-2.88","","<div style=""font-size:60px;"">+</div>","null","","","","","","",""
"722","","image-keyboard-response","487","528697","0.0-6.0-0.89","","img/yellow.png","32","trial","32","true","0.6,0.4","3:go_c","",""
"null","","html-keyboard-response","488","529708","0.0-6.0-1.89","","<img src=""img/yellow-n.png"" border=""10"">","null","trial","32","","0.6,0.4","3:go_c","0",""
"null","","html-keyboard-response","489","530724","0.0-6.0-2.89","","<div style=""font-size:60px;"">+</div>","null","","","","","","",""
"null","","image-keyboard-response","490","532239","0.0-6.0-0.90","","img/green.png","null","trial","null","true","0.4,0.6","2:nogo_b","",""
"null","","html-keyboard-response","491","533255","0.0-6.0-1.90","","<img src=""img/green-n.png"">","null","trial","null","","0.4,0.6","2:nogo_b","0",""
"null","","html-keyboard-response","492","534271","0.0-6.0-2.90","","<div style=""font-size:60px;"">+</div>","null","","","","","","",""
"594","","image-keyboard-response","493","534866","0.0-6.0-0.91","","img/red.png","32","trial","null","false","0.4,0.6","4:nogo_d","",""
"null","","html-keyboard-response","494","535880","0.0-6.0-1.91","","<img src=""img/red-n.png"" border=""10"">","null","trial","null","","0.4,0.6","4:nogo_d","0",""
"null","","html-keyboard-response","495","536896","0.0-6.0-2.91","","<div style=""font-size:60px;"">+</div>","null","","","","","","",""
"null","","image-keyboard-response","496","538412","0.0-6.0-0.92","","img/red.png","null","trial","null","true","0.4,0.6","4:nogo_d","",""
"null","","html-keyboard-response","497","539428","0.0-6.0-1.92","","<img src=""img/red-r.png"">","null","trial","null","","0.4,0.6","4:nogo_d","1",""
"null","","html-keyboard-response","498","540443","0.0-6.0-2.92","","<div style=""font-size:60px;"">+</div>","null","","","","","","",""
"629","","image-keyboard-response","499","541074","0.0-6.0-0.93","","img/yellow.png","32","trial","32","true","0.6,0.4","3:go_c","",""
"null","","html-keyboard-response","500","542084","0.0-6.0-1.93","","<img src=""img/yellow-n.png"" border=""10"">","null","trial","32","","0.6,0.4","3:go_c","0",""
"null","","html-keyboard-response","501","543100","0.0-6.0-2.93","","<div style=""font-size:60px;"">+</div>","null","","","","","","",""
"885","","image-keyboard-response","502","543986","0.0-6.0-0.94","","img/blue.png","32","trial","32","true","0.6,0.4","1:go_a","",""
"null","","html-keyboard-response","503","544991","0.0-6.0-1.94","","<img src=""img/blue-n.png"" border=""10"">","null","trial","32","","0.6,0.4","1:go_a","0",""
"null","","html-keyboard-response","504","546006","0.0-6.0-2.94","","<div style=""font-size:60px;"">+</div>","null","","","","","","",""
"null","","image-keyboard-response","505","547523","0.0-6.0-0.95","","img/green.png","null","trial","null","true","0.4,0.6","2:nogo_b","",""
"null","","html-keyboard-response","506","548538","0.0-6.0-1.95","","<img src=""img/green-r.png"">","null","trial","null","","0.4,0.6","2:nogo_b","1",""
"null","","html-keyboard-response","507","549554","0.0-6.0-2.95","","<div style=""font-size:60px;"">+</div>","null","","","","","","",""
"null","","image-keyboard-response","508","551070","0.0-6.0-0.96","","img/blue.png","null","trial","32","false","0.6,0.4","1:go_a","",""
"null","","html-keyboard-response","509","552086","0.0-6.0-1.96","","<img src=""img/blue-r.png"">","null","trial","32","","0.6,0.4","1:go_a","1",""
"null","","html-keyboard-response","510","553101","0.0-6.0-2.96","","<div style=""font-size:60px;"">+</div>","null","","","","","","",""
"null","","image-keyboard-response","511","554618","0.0-6.0-0.97","","img/red.png","null","trial","null","true","0.4,0.6","4:nogo_d","",""
"null","","html-keyboard-response","512","555633","0.0-6.0-1.97","","<img src=""img/red-r.png"">","null","trial","null","","0.4,0.6","4:nogo_d","1",""
"null","","html-keyboard-response","513","556649","0.0-6.0-2.97","","<div style=""font-size:60px;"">+</div>","null","","","","","","",""
"null","","image-keyboard-response","514","558164","0.0-6.0-0.98","","img/green.png","null","trial","null","true","0.4,0.6","2:nogo_b","",""
"null","","html-keyboard-response","515","559180","0.0-6.0-1.98","","<img src=""img/green-n.png"">","null","trial","null","","0.4,0.6","2:nogo_b","0",""
"null","","html-keyboard-response","516","560196","0.0-6.0-2.98","","<div style=""font-size:60px;"">+</div>","null","","","","","","",""
"null","","image-keyboard-response","517","561712","0.0-6.0-0.99","","img/yellow.png","null","trial","32","false","0.6,0.4","3:go_c","",""
"null","","html-keyboard-response","518","562716","0.0-6.0-1.99","","<img src=""img/yellow-r.png"">","null","trial","32","","0.6,0.4","3:go_c","1",""
"null","","html-keyboard-response","519","563731","0.0-6.0-2.99","","<div style=""font-size:60px;"">+</div>","null","","","","","","",""
"null","","image-keyboard-response","520","565247","0.0-6.0-0.100","","img/green.png","null","trial","null","true","0.4,0.6","2:nogo_b","",""
"null","","html-keyboard-response","521","566249","0.0-6.0-1.100","","<img src=""img/green-r.png"">","null","trial","null","","0.4,0.6","2:nogo_b","1",""
"null","","html-keyboard-response","522","567263","0.0-6.0-2.100","","<div style=""font-size:60px;"">+</div>","null","","","","","","",""
"416","","image-keyboard-response","523","567680","0.0-6.0-0.101","","img/blue.png","32","trial","32","true","0.6,0.4","1:go_a","",""
"null","","html-keyboard-response","524","568686","0.0-6.0-1.101","","<img src=""img/blue-n.png"" border=""10"">","null","trial","32","","0.6,0.4","1:go_a","0",""
"null","","html-keyboard-response","525","569701","0.0-6.0-2.101","","<div style=""font-size:60px;"">+</div>","null","","","","","","",""
"null","","image-keyboard-response","526","571204","0.0-6.0-0.102","","img/red.png","null","trial","null","true","0.4,0.6","4:nogo_d","",""
"null","","html-keyboard-response","527","572218","0.0-6.0-1.102","","<img src=""img/red-r.png"">","null","trial","null","","0.4,0.6","4:nogo_d","1",""
"null","","html-keyboard-response","528","573233","0.0-6.0-2.102","","<div style=""font-size:60px;"">+</div>","null","","","","","","",""
"649","","image-keyboard-response","529","573884","0.0-6.0-0.103","","img/yellow.png","32","trial","32","true","0.6,0.4","3:go_c","",""
"null","","html-keyboard-response","530","574890","0.0-6.0-1.103","","<img src=""img/yellow-r.png"" border=""10"">","null","trial","32","","0.6,0.4","3:go_c","1",""
"null","","html-keyboard-response","531","575906","0.0-6.0-2.103","","<div style=""font-size:60px;"">+</div>","null","","","","","","",""
"984","","image-keyboard-response","532","576889","0.0-6.0-0.104","","img/blue.png","32","trial","32","true","0.6,0.4","1:go_a","",""
"null","","html-keyboard-response","533","577906","0.0-6.0-1.104","","<img src=""img/blue-r.png"" border=""10"">","null","trial","32","","0.6,0.4","1:go_a","1",""
"null","","html-keyboard-response","534","578922","0.0-6.0-2.104","","<div style=""font-size:60px;"">+</div>","null","","","","","","",""
"1153","","image-keyboard-response","535","580076","0.0-6.0-0.105","","img/red.png","32","trial","null","false","0.4,0.6","4:nogo_d","",""
"null","","html-keyboard-response","536","581078","0.0-6.0-1.105","","<img src=""img/red-n.png"" border=""10"">","null","trial","null","","0.4,0.6","4:nogo_d","0",""
"null","","html-keyboard-response","537","582094","0.0-6.0-2.105","","<div style=""font-size:60px;"">+</div>","null","","","","","","",""
"889","","image-keyboard-response","538","582984","0.0-6.0-0.106","","img/yellow.png","32","trial","32","true","0.6,0.4","3:go_c","",""
"null","","html-keyboard-response","539","584000","0.0-6.0-1.106","","<img src=""img/yellow-r.png"" border=""10"">","null","trial","32","","0.6,0.4","3:go_c","1",""
"null","","html-keyboard-response","540","585004","0.0-6.0-2.106","","<div style=""font-size:60px;"">+</div>","null","","","","","","",""
"null","","image-keyboard-response","541","586520","0.0-6.0-0.107","","img/green.png","null","trial","null","true","0.4,0.6","2:nogo_b","",""
"null","","html-keyboard-response","542","587536","0.0-6.0-1.107","","<img src=""img/green-r.png"">","null","trial","null","","0.4,0.6","2:nogo_b","1",""
"null","","html-keyboard-response","543","588551","0.0-6.0-2.107","","<div style=""font-size:60px;"">+</div>","null","","","","","","",""
"1310","","image-keyboard-response","544","589862","0.0-6.0-0.108","","img/red.png","32","trial","null","false","0.4,0.6","4:nogo_d","",""
"null","","html-keyboard-response","545","590880","0.0-6.0-1.108","","<img src=""img/red-n.png"" border=""10"">","null","trial","null","","0.4,0.6","4:nogo_d","0",""
"null","","html-keyboard-response","546","591896","0.0-6.0-2.108","","<div style=""font-size:60px;"">+</div>","null","","","","","","",""
"null","","image-keyboard-response","547","593411","0.0-6.0-0.109","","img/blue.png","null","trial","32","false","0.6,0.4","1:go_a","",""
"null","","html-keyboard-response","548","594412","0.0-6.0-1.109","","<img src=""img/blue-n.png"">","null","trial","32","","0.6,0.4","1:go_a","0",""
"null","","html-keyboard-response","549","595427","0.0-6.0-2.109","","<div style=""font-size:60px;"">+</div>","null","","","","","","",""
"914","","image-keyboard-response","550","596342","0.0-6.0-0.110","","img/green.png","32","trial","null","false","0.4,0.6","2:nogo_b","",""
"null","","html-keyboard-response","551","597349","0.0-6.0-1.110","","<img src=""img/green-n.png"" border=""10"">","null","trial","null","","0.4,0.6","2:nogo_b","0",""
"null","","html-keyboard-response","552","598365","0.0-6.0-2.110","","<div style=""font-size:60px;"">+</div>","null","","","","","","",""
"905","","image-keyboard-response","553","599271","0.0-6.0-0.111","","img/yellow.png","32","trial","32","true","0.6,0.4","3:go_c","",""
"null","","html-keyboard-response","554","600288","0.0-6.0-1.111","","<img src=""img/yellow-r.png"" border=""10"">","null","trial","32","","0.6,0.4","3:go_c","1",""
"null","","html-keyboard-response","555","601304","0.0-6.0-2.111","","<div style=""font-size:60px;"">+</div>","null","","","","","","",""
"432","","image-keyboard-response","556","601737","0.0-6.0-0.112","","img/red.png","32","trial","null","false","0.4,0.6","4:nogo_d","",""
"null","","html-keyboard-response","557","602741","0.0-6.0-1.112","","<img src=""img/red-n.png"" border=""10"">","null","trial","null","","0.4,0.6","4:nogo_d","0",""
"null","","html-keyboard-response","558","603757","0.0-6.0-2.112","","<div style=""font-size:60px;"">+</div>","null","","","","","","",""
"1199","","image-keyboard-response","559","604957","0.0-6.0-0.113","","img/blue.png","32","trial","32","true","0.6,0.4","1:go_a","",""
"null","","html-keyboard-response","560","605960","0.0-6.0-1.113","","<img src=""img/blue-r.png"" border=""10"">","null","trial","32","","0.6,0.4","1:go_a","1",""
"null","","html-keyboard-response","561","606961","0.0-6.0-2.113","","<div style=""font-size:60px;"">+</div>","null","","","","","","",""
"952","","image-keyboard-response","562","607914","0.0-6.0-0.114","","img/yellow.png","32","trial","32","true","0.6,0.4","3:go_c","",""
"null","","html-keyboard-response","563","608915","0.0-6.0-1.114","","<img src=""img/yellow-r.png"" border=""10"">","null","trial","32","","0.6,0.4","3:go_c","1",""
"null","","html-keyboard-response","564","609930","0.0-6.0-2.114","","<div style=""font-size:60px;"">+</div>","null","","","","","","",""
"null","","image-keyboard-response","565","611435","0.0-6.0-0.115","","img/green.png","null","trial","null","true","0.4,0.6","2:nogo_b","",""
"null","","html-keyboard-response","566","612450","0.0-6.0-1.115","","<img src=""img/green-n.png"">","null","trial","null","","0.4,0.6","2:nogo_b","0",""
"null","","html-keyboard-response","567","613467","0.0-6.0-2.115","","<div style=""font-size:60px;"">+</div>","null","","","","","","",""
"null","","image-keyboard-response","568","614982","0.0-6.0-0.116","","img/green.png","null","trial","null","true","0.4,0.6","2:nogo_b","",""
"null","","html-keyboard-response","569","615998","0.0-6.0-1.116","","<img src=""img/green-n.png"">","null","trial","null","","0.4,0.6","2:nogo_b","0",""
"null","","html-keyboard-response","570","617013","0.0-6.0-2.116","","<div style=""font-size:60px;"">+</div>","null","","","","","","",""
"null","","image-keyboard-response","571","618516","0.0-6.0-0.117","","img/yellow.png","null","trial","32","false","0.6,0.4","3:go_c","",""
"null","","html-keyboard-response","572","619531","0.0-6.0-1.117","","<img src=""img/yellow-r.png"">","null","trial","32","","0.6,0.4","3:go_c","1",""
"null","","html-keyboard-response","573","620548","0.0-6.0-2.117","","<div style=""font-size:60px;"">+</div>","null","","","","","","",""
"758","","image-keyboard-response","574","621307","0.0-6.0-0.118","","img/red.png","32","trial","null","false","0.4,0.6","4:nogo_d","",""
"null","","html-keyboard-response","575","622314","0.0-6.0-1.118","","<img src=""img/red-r.png"" border=""10"">","null","trial","null","","0.4,0.6","4:nogo_d","1",""
"null","","html-keyboard-response","576","623330","0.0-6.0-2.118","","<div style=""font-size:60px;"">+</div>","null","","","","","","",""
"null","","image-keyboard-response","577","624846","0.0-6.0-0.119","","img/blue.png","null","trial","32","false","0.6,0.4","1:go_a","",""
"null","","html-keyboard-response","578","625861","0.0-6.0-1.119","","<img src=""img/blue-r.png"">","null","trial","32","","0.6,0.4","1:go_a","1",""
"null","","html-keyboard-response","579","626877","0.0-6.0-2.119","","<div style=""font-size:60px;"">+</div>","null","","","","","","",""
"2163","","instructions","580","629041","0.0-7.0","[{""page_index"":0,""viewing_time"":2163}]","","","","","","","","",""
"869","","image-keyboard-response","581","629911","0.0-8.0-0.0","","img/blue.png","32","trial","32","true","0.8,0.2","1:go_a","",""
"null","","html-keyboard-response","582","630915","0.0-8.0-1.0","","<img src=""img/blue-r.png"" border=""10"">","null","trial","32","","0.8,0.2","1:go_a","1",""
"null","","html-keyboard-response","583","631931","0.0-8.0-2.0","","<div style=""font-size:60px;"">+</div>","null","","","","","","",""
"null","","image-keyboard-response","584","633446","0.0-8.0-0.1","","img/grey.png","null","trial","null","true","0.2,0.8","2:nogo_b","",""
"null","","html-keyboard-response","585","634462","0.0-8.0-1.1","","<img src=""img/grey-r.png"">","null","trial","null","","0.2,0.8","2:nogo_b","1",""
"null","","html-keyboard-response","586","635464","0.0-8.0-2.1","","<div style=""font-size:60px;"">+</div>","null","","","","","","",""
"623","","image-keyboard-response","587","636086","0.0-8.0-0.2","","img/yellow.png","32","trial","32","true","1,0","3:go_c","",""
"null","","html-keyboard-response","588","637090","0.0-8.0-1.2","","<img src=""img/yellow-r.png"" border=""10"">","null","trial","32","","1,0","3:go_c","1",""
"null","","html-keyboard-response","589","638105","0.0-8.0-2.2","","<div style=""font-size:60px;"">+</div>","null","","","","","","",""
"673","","image-keyboard-response","590","638779","0.0-8.0-0.3","","img/orange.png","32","trial","null","false","0,1","4:nogo_d","",""
"null","","html-keyboard-response","591","639793","0.0-8.0-1.3","","<img src=""img/orange-n.png"" border=""10"">","null","trial","null","","0,1","4:nogo_d","0",""
"null","","html-keyboard-response","592","640809","0.0-8.0-2.3","","<div style=""font-size:60px;"">+</div>","null","","","","","","",""
"436","","image-keyboard-response","593","641246","0.0-8.0-0.4","","img/yellow.png","32","trial","32","true","1,0","3:go_c","",""
"null","","html-keyboard-response","594","642262","0.0-8.0-1.4","","<img src=""img/yellow-r.png"" border=""10"">","null","trial","32","","1,0","3:go_c","1",""
"null","","html-keyboard-response","595","643278","0.0-8.0-2.4","","<div style=""font-size:60px;"">+</div>","null","","","","","","",""
"null","","image-keyboard-response","596","644794","0.0-8.0-0.5","","img/orange.png","null","trial","null","true","0,1","4:nogo_d","",""
"null","","html-keyboard-response","597","645810","0.0-8.0-1.5","","<img src=""img/orange-r.png"">","null","trial","null","","0,1","4:nogo_d","1",""
"null","","html-keyboard-response","598","646825","0.0-8.0-2.5","","<div style=""font-size:60px;"">+</div>","null","","","","","","",""
"null","","image-keyboard-response","599","648342","0.0-8.0-0.6","","img/grey.png","null","trial","null","true","0.2,0.8","2:nogo_b","",""
"null","","html-keyboard-response","600","649359","0.0-8.0-1.6","","<img src=""img/grey-r.png"">","null","trial","null","","0.2,0.8","2:nogo_b","1",""
"null","","html-keyboard-response","601","650372","0.0-8.0-2.6","","<div style=""font-size:60px;"">+</div>","null","","","","","","",""
"413","","image-keyboard-response","602","650785","0.0-8.0-0.7","","img/blue.png","32","trial","32","true","0.8,0.2","1:go_a","",""
"null","","html-keyboard-response","603","651795","0.0-8.0-1.7","","<img src=""img/blue-n.png"" border=""10"">","null","trial","32","","0.8,0.2","1:go_a","0",""
"null","","html-keyboard-response","604","652811","0.0-8.0-2.7","","<div style=""font-size:60px;"">+</div>","null","","","","","","",""
"419","","image-keyboard-response","605","653230","0.0-8.0-0.8","","img/grey.png","32","trial","null","false","0.2,0.8","2:nogo_b","",""
"null","","html-keyboard-response","606","654233","0.0-8.0-1.8","","<img src=""img/grey-n.png"" border=""10"">","null","trial","null","","0.2,0.8","2:nogo_b","0",""
"null","","html-keyboard-response","607","655249","0.0-8.0-2.8","","<div style=""font-size:60px;"">+</div>","null","","","","","","",""
"null","","image-keyboard-response","608","656765","0.0-8.0-0.9","","img/orange.png","null","trial","null","true","0,1","4:nogo_d","",""
"null","","html-keyboard-response","609","657781","0.0-8.0-1.9","","<img src=""img/orange-r.png"">","null","trial","null","","0,1","4:nogo_d","1",""
"null","","html-keyboard-response","610","658797","0.0-8.0-2.9","","<div style=""font-size:60px;"">+</div>","null","","","","","","",""
"709","","image-keyboard-response","611","659507","0.0-8.0-0.10","","img/blue.png","32","trial","32","true","0.8,0.2","1:go_a","",""
"null","","html-keyboard-response","612","660516","0.0-8.0-1.10","","<img src=""img/blue-r.png"" border=""10"">","null","trial","32","","0.8,0.2","1:go_a","1",""
"null","","html-keyboard-response","613","661517","0.0-8.0-2.10","","<div style=""font-size:60px;"">+</div>","null","","","","","","",""
"582","","image-keyboard-response","614","662100","0.0-8.0-0.11","","img/yellow.png","32","trial","32","true","1,0","3:go_c","",""
"null","","html-keyboard-response","615","663112","0.0-8.0-1.11","","<img src=""img/yellow-r.png"" border=""10"">","null","trial","32","","1,0","3:go_c","1",""
"null","","html-keyboard-response","616","664128","0.0-8.0-2.11","","<div style=""font-size:60px;"">+</div>","null","","","","","","",""
"1350","","image-keyboard-response","617","665478","0.0-8.0-0.12","","img/orange.png","32","trial","null","false","0,1","4:nogo_d","",""
"null","","html-keyboard-response","618","666488","0.0-8.0-1.12","","<img src=""img/orange-n.png"" border=""10"">","null","trial","null","","0,1","4:nogo_d","0",""
"null","","html-keyboard-response","619","667503","0.0-8.0-2.12","","<div style=""font-size:60px;"">+</div>","null","","","","","","",""
"383","","image-keyboard-response","620","667888","0.0-8.0-0.13","","img/grey.png","32","trial","null","false","0.2,0.8","2:nogo_b","",""
"null","","html-keyboard-response","621","668893","0.0-8.0-1.13","","<img src=""img/grey-r.png"" border=""10"">","null","trial","null","","0.2,0.8","2:nogo_b","1",""
"null","","html-keyboard-response","622","669909","0.0-8.0-2.13","","<div style=""font-size:60px;"">+</div>","null","","","","","","",""
"704","","image-keyboard-response","623","670613","0.0-8.0-0.14","","img/yellow.png","32","trial","32","true","1,0","3:go_c","",""
"null","","html-keyboard-response","624","671628","0.0-8.0-1.14","","<img src=""img/yellow-r.png"" border=""10"">","null","trial","32","","1,0","3:go_c","1",""
"null","","html-keyboard-response","625","672644","0.0-8.0-2.14","","<div style=""font-size:60px;"">+</div>","null","","","","","","",""
"649","","image-keyboard-response","626","673295","0.0-8.0-0.15","","img/blue.png","32","trial","32","true","0.8,0.2","1:go_a","",""
"null","","html-keyboard-response","627","674300","0.0-8.0-1.15","","<img src=""img/blue-r.png"" border=""10"">","null","trial","32","","0.8,0.2","1:go_a","1",""
"null","","html-keyboard-response","628","675316","0.0-8.0-2.15","","<div style=""font-size:60px;"">+</div>","null","","","","","","",""
"957","","image-keyboard-response","629","676273","0.0-8.0-0.16","","img/orange.png","32","trial","null","false","0,1","4:nogo_d","",""
"null","","html-keyboard-response","630","677286","0.0-8.0-1.16","","<img src=""img/orange-n.png"" border=""10"">","null","trial","null","","0,1","4:nogo_d","0",""
"null","","html-keyboard-response","631","678301","0.0-8.0-2.16","","<div style=""font-size:60px;"">+</div>","null","","","","","","",""
"890","","image-keyboard-response","632","679193","0.0-8.0-0.17","","img/grey.png","32","trial","null","false","0.2,0.8","2:nogo_b","",""
"null","","html-keyboard-response","633","680209","0.0-8.0-1.17","","<img src=""img/grey-n.png"" border=""10"">","null","trial","null","","0.2,0.8","2:nogo_b","0",""
"null","","html-keyboard-response","634","681224","0.0-8.0-2.17","","<div style=""font-size:60px;"">+</div>","null","","","","","","",""
"662","","image-keyboard-response","635","681887","0.0-8.0-0.18","","img/yellow.png","32","trial","32","true","1,0","3:go_c","",""
"null","","html-keyboard-response","636","682896","0.0-8.0-1.18","","<img src=""img/yellow-r.png"" border=""10"">","null","trial","32","","1,0","3:go_c","1",""
"null","","html-keyboard-response","637","683910","0.0-8.0-2.18","","<div style=""font-size:60px;"">+</div>","null","","","","","","",""
"542","","image-keyboard-response","638","684453","0.0-8.0-0.19","","img/blue.png","32","trial","32","true","0.8,0.2","1:go_a","",""
"null","","html-keyboard-response","639","685458","0.0-8.0-1.19","","<img src=""img/blue-r.png"" border=""10"">","null","trial","32","","0.8,0.2","1:go_a","1",""
"null","","html-keyboard-response","640","686474","0.0-8.0-2.19","","<div style=""font-size:60px;"">+</div>","null","","","","","","",""
"723","","image-keyboard-response","641","687198","0.0-8.0-0.20","","img/grey.png","32","trial","null","false","0.2,0.8","2:nogo_b","",""
"null","","html-keyboard-response","642","688198","0.0-8.0-1.20","","<img src=""img/grey-n.png"" border=""10"">","null","trial","null","","0.2,0.8","2:nogo_b","0",""
"null","","html-keyboard-response","643","689214","0.0-8.0-2.20","","<div style=""font-size:60px;"">+</div>","null","","","","","","",""
"559","","image-keyboard-response","644","689774","0.0-8.0-0.21","","img/blue.png","32","trial","32","true","0.8,0.2","1:go_a","",""
"null","","html-keyboard-response","645","690777","0.0-8.0-1.21","","<img src=""img/blue-n.png"" border=""10"">","null","trial","32","","0.8,0.2","1:go_a","0",""
"null","","html-keyboard-response","646","691793","0.0-8.0-2.21","","<div style=""font-size:60px;"">+</div>","null","","","","","","",""
"883","","image-keyboard-response","647","692676","0.0-8.0-0.22","","img/orange.png","32","trial","null","false","0,1","4:nogo_d","",""
"null","","html-keyboard-response","648","693684","0.0-8.0-1.22","","<img src=""img/orange-n.png"" border=""10"">","null","trial","null","","0,1","4:nogo_d","0",""
"null","","html-keyboard-response","649","694699","0.0-8.0-2.22","","<div style=""font-size:60px;"">+</div>","null","","","","","","",""
"842","","image-keyboard-response","650","695542","0.0-8.0-0.23","","img/yellow.png","32","trial","32","true","1,0","3:go_c","",""
"null","","html-keyboard-response","651","696543","0.0-8.0-1.23","","<img src=""img/yellow-r.png"" border=""10"">","null","trial","32","","1,0","3:go_c","1",""
"null","","html-keyboard-response","652","697544","0.0-8.0-2.23","","<div style=""font-size:60px;"">+</div>","null","","","","","","",""
"483","","image-keyboard-response","653","698028","0.0-8.0-0.24","","img/yellow.png","32","trial","32","true","1,0","3:go_c","",""
"null","","html-keyboard-response","654","699029","0.0-8.0-1.24","","<img src=""img/yellow-r.png"" border=""10"">","null","trial","32","","1,0","3:go_c","1",""
"null","","html-keyboard-response","655","700044","0.0-8.0-2.24","","<div style=""font-size:60px;"">+</div>","null","","","","","","",""
"null","","image-keyboard-response","656","701544","0.0-8.0-0.25","","img/orange.png","null","trial","null","true","0,1","4:nogo_d","",""
"null","","html-keyboard-response","657","702561","0.0-8.0-1.25","","<img src=""img/orange-r.png"">","null","trial","null","","0,1","4:nogo_d","1",""
"null","","html-keyboard-response","658","703576","0.0-8.0-2.25","","<div style=""font-size:60px;"">+</div>","null","","","","","","",""
"658","","image-keyboard-response","659","704234","0.0-8.0-0.26","","img/blue.png","32","trial","32","true","0.8,0.2","1:go_a","",""
"null","","html-keyboard-response","660","705248","0.0-8.0-1.26","","<img src=""img/blue-r.png"" border=""10"">","null","trial","32","","0.8,0.2","1:go_a","1",""
"null","","html-keyboard-response","661","706264","0.0-8.0-2.26","","<div style=""font-size:60px;"">+</div>","null","","","","","","",""
"null","","image-keyboard-response","662","707765","0.0-8.0-0.27","","img/grey.png","null","trial","null","true","0.2,0.8","2:nogo_b","",""
"null","","html-keyboard-response","663","708780","0.0-8.0-1.27","","<img src=""img/grey-r.png"">","null","trial","null","","0.2,0.8","2:nogo_b","1",""
"null","","html-keyboard-response","664","709782","0.0-8.0-2.27","","<div style=""font-size:60px;"">+</div>","null","","","","","","",""
"639","","image-keyboard-response","665","710422","0.0-8.0-0.28","","img/grey.png","32","trial","null","false","0.2,0.8","2:nogo_b","",""
"null","","html-keyboard-response","666","711438","0.0-8.0-1.28","","<img src=""img/grey-n.png"" border=""10"">","null","trial","null","","0.2,0.8","2:nogo_b","0",""
"null","","html-keyboard-response","667","712453","0.0-8.0-2.28","","<div style=""font-size:60px;"">+</div>","null","","","","","","",""
"396","","image-keyboard-response","668","712851","0.0-8.0-0.29","","img/blue.png","32","trial","32","true","0.8,0.2","1:go_a","",""
"null","","html-keyboard-response","669","713860","0.0-8.0-1.29","","<img src=""img/blue-r.png"" border=""10"">","null","trial","32","","0.8,0.2","1:go_a","1",""
"null","","html-keyboard-response","670","714876","0.0-8.0-2.29","","<div style=""font-size:60px;"">+</div>","null","","","","","","",""
"564","","image-keyboard-response","671","715442","0.0-8.0-0.30","","img/yellow.png","32","trial","32","true","1,0","3:go_c","",""
"null","","html-keyboard-response","672","716454","0.0-8.0-1.30","","<img src=""img/yellow-r.png"" border=""10"">","null","trial","32","","1,0","3:go_c","1",""
"null","","html-keyboard-response","673","717470","0.0-8.0-2.30","","<div style=""font-size:60px;"">+</div>","null","","","","","","",""
"null","","image-keyboard-response","674","718987","0.0-8.0-0.31","","img/orange.png","null","trial","null","true","0,1","4:nogo_d","",""
"null","","html-keyboard-response","675","720002","0.0-8.0-1.31","","<img src=""img/orange-r.png"">","null","trial","null","","0,1","4:nogo_d","1",""
"null","","html-keyboard-response","676","721017","0.0-8.0-2.31","","<div style=""font-size:60px;"">+</div>","null","","","","","","",""
"507","","image-keyboard-response","677","721527","0.0-8.0-0.32","","img/yellow.png","32","trial","32","true","1,0","3:go_c","",""
"null","","html-keyboard-response","678","722534","0.0-8.0-1.32","","<img src=""img/yellow-r.png"" border=""10"">","null","trial","32","","1,0","3:go_c","1",""
"null","","html-keyboard-response","679","723541","0.0-8.0-2.32","","<div style=""font-size:60px;"">+</div>","null","","","","","","",""
"1234","","image-keyboard-response","680","724775","0.0-8.0-0.33","","img/grey.png","32","trial","null","false","0.2,0.8","2:nogo_b","",""
"null","","html-keyboard-response","681","725785","0.0-8.0-1.33","","<img src=""img/grey-n.png"" border=""10"">","null","trial","null","","0.2,0.8","2:nogo_b","0",""
"null","","html-keyboard-response","682","726800","0.0-8.0-2.33","","<div style=""font-size:60px;"">+</div>","null","","","","","","",""
"819","","image-keyboard-response","683","727620","0.0-8.0-0.34","","img/blue.png","32","trial","32","true","0.8,0.2","1:go_a","",""
"null","","html-keyboard-response","684","728629","0.0-8.0-1.34","","<img src=""img/blue-r.png"" border=""10"">","null","trial","32","","0.8,0.2","1:go_a","1",""
"null","","html-keyboard-response","685","729644","0.0-8.0-2.34","","<div style=""font-size:60px;"">+</div>","null","","","","","","",""
"null","","image-keyboard-response","686","731147","0.0-8.0-0.35","","img/orange.png","null","trial","null","true","0,1","4:nogo_d","",""
"null","","html-keyboard-response","687","732161","0.0-8.0-1.35","","<img src=""img/orange-r.png"">","null","trial","null","","0,1","4:nogo_d","1",""
"null","","html-keyboard-response","688","733176","0.0-8.0-2.35","","<div style=""font-size:60px;"">+</div>","null","","","","","","",""
"null","","image-keyboard-response","689","734692","0.0-8.0-0.36","","img/orange.png","null","trial","null","true","0,1","4:nogo_d","",""
"null","","html-keyboard-response","690","735708","0.0-8.0-1.36","","<img src=""img/orange-r.png"">","null","trial","null","","0,1","4:nogo_d","1",""
"null","","html-keyboard-response","691","736724","0.0-8.0-2.36","","<div style=""font-size:60px;"">+</div>","null","","","","","","",""
"540","","image-keyboard-response","692","737265","0.0-8.0-0.37","","img/yellow.png","32","trial","32","true","1,0","3:go_c","",""
