"rt","url","trial_type","trial_index","time_elapsed","internal_node_id","view_history","stimulus","key_press","test_part","correct_response","correct","use_rew","which_stim","reward","responses"
"11367","consent.html","external-html","0","11460","0.0-0.0","","","","","","","","","",""
"29312","","instructions","1","40774","0.0-1.0","[{""page_index"":0,""viewing_time"":2071},{""page_index"":1,""viewing_time"":5556},{""page_index"":2,""viewing_time"":2838},{""page_index"":3,""viewing_time"":7268},{""page_index"":4,""viewing_time"":2916},{""page_index"":5,""viewing_time"":1589},{""page_index"":6,""viewing_time"":1404},{""page_index"":5,""viewing_time"":3650},{""page_index"":6,""viewing_time"":2020}]","","","","","","","","",""
"null","","image-keyboard-response","2","42280","0.0-2.0-0.0","","img/test1.PNG","null","practice","32","false","","","",""
"null","","html-keyboard-response","3","43291","0.0-2.0-1.0","","<img src=""img/test1-neutral.PNG"">","null","","","","","","",""
"null","","html-keyboard-response","4","44300","0.0-2.0-2.0","","<div style=""font-size:60px;"">+</div>","null","","","","","","",""
"null","","image-keyboard-response","5","45810","0.0-2.0-0.1","","img/test3.PNG","null","practice","null","true","","","",""
"null","","html-keyboard-response","6","46821","0.0-2.0-1.1","","<img src=""img/test3-reward.PNG"">","null","","","","","","",""
"null","","html-keyboard-response","7","47831","0.0-2.0-2.1","","<div style=""font-size:60px;"">+</div>","null","","","","","","",""
"1289","","image-keyboard-response","8","49120","0.0-2.0-0.2","","img/test2.PNG","32","practice","null","false","","","",""
"null","","html-keyboard-response","9","50131","0.0-2.0-1.2","","<img src=""img/test2-neutral.PNG"" border=""10px; grey"">","null","","","","","","",""
"null","","html-keyboard-response","10","51141","0.0-2.0-2.2","","<div style=""font-size:60px;"">+</div>","null","","","","","","",""
"null","","image-keyboard-response","11","52641","0.0-2.0-0.3","","img/test2.PNG","null","practice","null","true","","","",""
"null","","html-keyboard-response","12","53651","0.0-2.0-1.3","","<img src=""img/test2-reward.PNG"">","null","","","","","","",""
"null","","html-keyboard-response","13","54661","0.0-2.0-2.3","","<div style=""font-size:60px;"">+</div>","null","","","","","","",""
"null","","image-keyboard-response","14","56172","0.0-2.0-0.4","","img/test1.PNG","null","practice","32","false","","","",""
"null","","html-keyboard-response","15","57182","0.0-2.0-1.4","","<img src=""img/test1-neutral.PNG"">","null","","","","","","",""
"null","","html-keyboard-response","16","58191","0.0-2.0-2.4","","<div style=""font-size:60px;"">+</div>","null","","","","","","",""
"591","","image-keyboard-response","17","58784","0.0-2.0-0.5","","img/test3.PNG","32","practice","null","false","","","",""
"null","","html-keyboard-response","18","59792","0.0-2.0-1.5","","<img src=""img/test3-neutral.PNG"" border=""10px; grey"">","null","","","","","","",""
"null","","html-keyboard-response","19","60801","0.0-2.0-2.5","","<div style=""font-size:60px;"">+</div>","null","","","","","","",""
"581","","image-keyboard-response","20","61383","0.0-2.0-0.6","","img/test2.PNG","32","practice","null","false","","","",""
"null","","html-keyboard-response","21","62393","0.0-2.0-1.6","","<img src=""img/test2-neutral.PNG"" border=""10px; grey"">","null","","","","","","",""
"null","","html-keyboard-response","22","63403","0.0-2.0-2.6","","<div style=""font-size:60px;"">+</div>","null","","","","","","",""
"null","","image-keyboard-response","23","64912","0.0-2.0-0.7","","img/test1.PNG","null","practice","32","false","","","",""
"null","","html-keyboard-response","24","65922","0.0-2.0-1.7","","<img src=""img/test1-neutral.PNG"">","null","","","","","","",""
"null","","html-keyboard-response","25","66933","0.0-2.0-2.7","","<div style=""font-size:60px;"">+</div>","null","","","","","","",""
"null","","image-keyboard-response","26","68443","0.0-2.0-0.8","","img/test3.PNG","null","practice","null","true","","","",""
"null","","html-keyboard-response","27","69452","0.0-2.0-1.8","","<img src=""img/test3-reward.PNG"">","null","","","","","","",""
"null","","html-keyboard-response","28","70462","0.0-2.0-2.8","","<div style=""font-size:60px;"">+</div>","null","","","","","","",""
"849","","image-keyboard-response","29","71314","0.0-2.0-0.9","","img/test2.PNG","32","practice","null","false","","","",""
"null","","html-keyboard-response","30","72324","0.0-2.0-1.9","","<img src=""img/test2-neutral.PNG"" border=""10px; grey"">","null","","","","","","",""
"null","","html-keyboard-response","31","73333","0.0-2.0-2.9","","<div style=""font-size:60px;"">+</div>","null","","","","","","",""
"null","","image-keyboard-response","32","74843","0.0-2.0-0.10","","img/test3.PNG","null","practice","null","true","","","",""
"null","","html-keyboard-response","33","75853","0.0-2.0-1.10","","<img src=""img/test3-reward.PNG"">","null","","","","","","",""
"null","","html-keyboard-response","34","76863","0.0-2.0-2.10","","<div style=""font-size:60px;"">+</div>","null","","","","","","",""
"null","","image-keyboard-response","35","78373","0.0-2.0-0.11","","img/test1.PNG","null","practice","32","false","","","",""
"null","","html-keyboard-response","36","79383","0.0-2.0-1.11","","<img src=""img/test1-neutral.PNG"">","null","","","","","","",""
"null","","html-keyboard-response","37","80384","0.0-2.0-2.11","","<div style=""font-size:60px;"">+</div>","null","","","","","","",""
"3698","","instructions","38","84084","0.0-3.0","[{""page_index"":0,""viewing_time"":3698}]","","","","","","","","",""
"null","","image-keyboard-response","39","85594","0.0-4.0-0.0","","img/green.png","null","trial","32","false","0.8,0.2","1:go_a","",""
"null","","html-keyboard-response","40","86604","0.0-4.0-1.0","","<img src=""img/green-n.png"">","null","trial","32","","0.8,0.2","1:go_a","0",""
"null","","html-keyboard-response","41","87614","0.0-4.0-2.0","","<div style=""font-size:60px;"">+</div>","null","","","","","","",""
"832","","image-keyboard-response","42","88448","0.0-4.0-0.1","","img/orange.png","32","trial","null","false","0.2,0.8","2:nogo_b","",""
"null","","html-keyboard-response","43","89455","0.0-4.0-1.1","","<img src=""img/orange-n.png"" border=""10"">","null","trial","null","","0.2,0.8","2:nogo_b","0",""
"null","","html-keyboard-response","44","90465","0.0-4.0-2.1","","<div style=""font-size:60px;"">+</div>","null","","","","","","",""
"null","","image-keyboard-response","45","91975","0.0-4.0-0.2","","img/green.png","null","trial","32","false","0.8,0.2","1:go_a","",""
"null","","html-keyboard-response","46","92985","0.0-4.0-1.2","","<img src=""img/green-n.png"">","null","trial","32","","0.8,0.2","1:go_a","0",""
"null","","html-keyboard-response","47","93995","0.0-4.0-2.2","","<div style=""font-size:60px;"">+</div>","null","","","","","","",""
"715","","image-keyboard-response","48","94710","0.0-4.0-0.3","","img/orange.png","32","trial","null","false","0.2,0.8","2:nogo_b","",""
"null","","html-keyboard-response","49","95715","0.0-4.0-1.3","","<img src=""img/orange-r.png"" border=""10"">","null","trial","null","","0.2,0.8","2:nogo_b","1",""
"null","","html-keyboard-response","50","96724","0.0-4.0-2.3","","<div style=""font-size:60px;"">+</div>","null","","","","","","",""
"1104","","image-keyboard-response","51","97831","0.0-4.0-0.4","","img/orange.png","32","trial","null","false","0.2,0.8","2:nogo_b","",""
"null","","html-keyboard-response","52","98836","0.0-4.0-1.4","","<img src=""img/orange-n.png"" border=""10"">","null","trial","null","","0.2,0.8","2:nogo_b","0",""
"null","","html-keyboard-response","53","99845","0.0-4.0-2.4","","<div style=""font-size:60px;"">+</div>","null","","","","","","",""
"null","","image-keyboard-response","54","101356","0.0-4.0-0.5","","img/green.png","null","trial","32","false","0.8,0.2","1:go_a","",""
"null","","html-keyboard-response","55","102366","0.0-4.0-1.5","","<img src=""img/green-n.png"">","null","trial","32","","0.8,0.2","1:go_a","0",""
"null","","html-keyboard-response","56","103376","0.0-4.0-2.5","","<div style=""font-size:60px;"">+</div>","null","","","","","","",""
"1030","","image-keyboard-response","57","104406","0.0-4.0-0.6","","img/orange.png","32","trial","null","false","0.2,0.8","2:nogo_b","",""
"null","","html-keyboard-response","58","105416","0.0-4.0-1.6","","<img src=""img/orange-n.png"" border=""10"">","null","trial","null","","0.2,0.8","2:nogo_b","0",""
"null","","html-keyboard-response","59","106426","0.0-4.0-2.6","","<div style=""font-size:60px;"">+</div>","null","","","","","","",""
"null","","image-keyboard-response","60","107926","0.0-4.0-0.7","","img/green.png","null","trial","32","false","0.8,0.2","1:go_a","",""
"null","","html-keyboard-response","61","108937","0.0-4.0-1.7","","<img src=""img/green-r.png"">","null","trial","32","","0.8,0.2","1:go_a","1",""
"null","","html-keyboard-response","62","109947","0.0-4.0-2.7","","<div style=""font-size:60px;"">+</div>","null","","","","","","",""
"null","","image-keyboard-response","63","111457","0.0-4.0-0.8","","img/orange.png","null","trial","null","true","0.2,0.8","2:nogo_b","",""
"null","","html-keyboard-response","64","112467","0.0-4.0-1.8","","<img src=""img/orange-n.png"">","null","trial","null","","0.2,0.8","2:nogo_b","0",""
"null","","html-keyboard-response","65","113477","0.0-4.0-2.8","","<div style=""font-size:60px;"">+</div>","null","","","","","","",""
"608","","image-keyboard-response","66","114086","0.0-4.0-0.9","","img/green.png","32","trial","32","true","0.8,0.2","1:go_a","",""
"null","","html-keyboard-response","67","115096","0.0-4.0-1.9","","<img src=""img/green-r.png"" border=""10"">","null","trial","32","","0.8,0.2","1:go_a","1",""
"null","","html-keyboard-response","68","116106","0.0-4.0-2.9","","<div style=""font-size:60px;"">+</div>","null","","","","","","",""
"null","","image-keyboard-response","69","117617","0.0-4.0-0.10","","img/green.png","null","trial","32","false","0.8,0.2","1:go_a","",""
"null","","html-keyboard-response","70","118627","0.0-4.0-1.10","","<img src=""img/green-n.png"">","null","trial","32","","0.8,0.2","1:go_a","0",""
"null","","html-keyboard-response","71","119637","0.0-4.0-2.10","","<div style=""font-size:60px;"">+</div>","null","","","","","","",""
"null","","image-keyboard-response","72","121147","0.0-4.0-0.11","","img/orange.png","null","trial","null","true","0.2,0.8","2:nogo_b","",""
"null","","html-keyboard-response","73","122157","0.0-4.0-1.11","","<img src=""img/orange-r.png"">","null","trial","null","","0.2,0.8","2:nogo_b","1",""
"null","","html-keyboard-response","74","123167","0.0-4.0-2.11","","<div style=""font-size:60px;"">+</div>","null","","","","","","",""
"582","","image-keyboard-response","75","123750","0.0-4.0-0.12","","img/orange.png","32","trial","null","false","0.2,0.8","2:nogo_b","",""
"null","","html-keyboard-response","76","124757","0.0-4.0-1.12","","<img src=""img/orange-n.png"" border=""10"">","null","trial","null","","0.2,0.8","2:nogo_b","0",""
"null","","html-keyboard-response","77","125767","0.0-4.0-2.12","","<div style=""font-size:60px;"">+</div>","null","","","","","","",""
"null","","image-keyboard-response","78","127277","0.0-4.0-0.13","","img/green.png","null","trial","32","false","0.8,0.2","1:go_a","",""
"null","","html-keyboard-response","79","128278","0.0-4.0-1.13","","<img src=""img/green-r.png"">","null","trial","32","","0.8,0.2","1:go_a","1",""
"null","","html-keyboard-response","80","129288","0.0-4.0-2.13","","<div style=""font-size:60px;"">+</div>","null","","","","","","",""
"null","","image-keyboard-response","81","130798","0.0-4.0-0.14","","img/orange.png","null","trial","null","true","0.2,0.8","2:nogo_b","",""
"null","","html-keyboard-response","82","131808","0.0-4.0-1.14","","<img src=""img/orange-r.png"">","null","trial","null","","0.2,0.8","2:nogo_b","1",""
"null","","html-keyboard-response","83","132818","0.0-4.0-2.14","","<div style=""font-size:60px;"">+</div>","null","","","","","","",""
"null","","image-keyboard-response","84","134328","0.0-4.0-0.15","","img/green.png","null","trial","32","false","0.8,0.2","1:go_a","",""
"null","","html-keyboard-response","85","135338","0.0-4.0-1.15","","<img src=""img/green-n.png"">","null","trial","32","","0.8,0.2","1:go_a","0",""
"null","","html-keyboard-response","86","136339","0.0-4.0-2.15","","<div style=""font-size:60px;"">+</div>","null","","","","","","",""
"601","","image-keyboard-response","87","136941","0.0-4.0-0.16","","img/green.png","32","trial","32","true","0.8,0.2","1:go_a","",""
"null","","html-keyboard-response","88","137949","0.0-4.0-1.16","","<img src=""img/green-r.png"" border=""10"">","null","trial","32","","0.8,0.2","1:go_a","1",""
"null","","html-keyboard-response","89","138959","0.0-4.0-2.16","","<div style=""font-size:60px;"">+</div>","null","","","","","","",""
"733","","image-keyboard-response","90","139693","0.0-4.0-0.17","","img/orange.png","32","trial","null","false","0.2,0.8","2:nogo_b","",""
"null","","html-keyboard-response","91","140699","0.0-4.0-1.17","","<img src=""img/orange-n.png"" border=""10"">","null","trial","null","","0.2,0.8","2:nogo_b","0",""
"null","","html-keyboard-response","92","141709","0.0-4.0-2.17","","<div style=""font-size:60px;"">+</div>","null","","","","","","",""
"null","","image-keyboard-response","93","143219","0.0-4.0-0.18","","img/orange.png","null","trial","null","true","0.2,0.8","2:nogo_b","",""
"null","","html-keyboard-response","94","144228","0.0-4.0-1.18","","<img src=""img/orange-r.png"">","null","trial","null","","0.2,0.8","2:nogo_b","1",""
"null","","html-keyboard-response","95","145239","0.0-4.0-2.18","","<div style=""font-size:60px;"">+</div>","null","","","","","","",""
"717","","image-keyboard-response","96","145957","0.0-4.0-0.19","","img/green.png","32","trial","32","true","0.8,0.2","1:go_a","",""
"null","","html-keyboard-response","97","146960","0.0-4.0-1.19","","<img src=""img/green-r.png"" border=""10"">","null","trial","32","","0.8,0.2","1:go_a","1",""
"null","","html-keyboard-response","98","147970","0.0-4.0-2.19","","<div style=""font-size:60px;"">+</div>","null","","","","","","",""
"null","","image-keyboard-response","99","149480","0.0-4.0-0.20","","img/orange.png","null","trial","null","true","0.2,0.8","2:nogo_b","",""
"null","","html-keyboard-response","100","150490","0.0-4.0-1.20","","<img src=""img/orange-n.png"">","null","trial","null","","0.2,0.8","2:nogo_b","0",""
"null","","html-keyboard-response","101","151500","0.0-4.0-2.20","","<div style=""font-size:60px;"">+</div>","null","","","","","","",""
"null","","image-keyboard-response","102","153010","0.0-4.0-0.21","","img/green.png","null","trial","32","false","0.8,0.2","1:go_a","",""
"null","","html-keyboard-response","103","154020","0.0-4.0-1.21","","<img src=""img/green-n.png"">","null","trial","32","","0.8,0.2","1:go_a","0",""
"null","","html-keyboard-response","104","155030","0.0-4.0-2.21","","<div style=""font-size:60px;"">+</div>","null","","","","","","",""
"null","","image-keyboard-response","105","156531","0.0-4.0-0.22","","img/green.png","null","trial","32","false","0.8,0.2","1:go_a","",""
"null","","html-keyboard-response","106","157541","0.0-4.0-1.22","","<img src=""img/green-n.png"">","null","trial","32","","0.8,0.2","1:go_a","0",""
"null","","html-keyboard-response","107","158551","0.0-4.0-2.22","","<div style=""font-size:60px;"">+</div>","null","","","","","","",""
"710","","image-keyboard-response","108","159261","0.0-4.0-0.23","","img/orange.png","32","trial","null","false","0.2,0.8","2:nogo_b","",""
"null","","html-keyboard-response","109","160271","0.0-4.0-1.23","","<img src=""img/orange-n.png"" border=""10"">","null","trial","null","","0.2,0.8","2:nogo_b","0",""
"null","","html-keyboard-response","110","161281","0.0-4.0-2.23","","<div style=""font-size:60px;"">+</div>","null","","","","","","",""
"null","","image-keyboard-response","111","162790","0.0-4.0-0.24","","img/green.png","null","trial","32","false","0.8,0.2","1:go_a","",""
"null","","html-keyboard-response","112","163800","0.0-4.0-1.24","","<img src=""img/green-n.png"">","null","trial","32","","0.8,0.2","1:go_a","0",""
"null","","html-keyboard-response","113","164811","0.0-4.0-2.24","","<div style=""font-size:60px;"">+</div>","null","","","","","","",""
"1073","","image-keyboard-response","114","165884","0.0-4.0-0.25","","img/orange.png","32","trial","null","false","0.2,0.8","2:nogo_b","",""
"null","","html-keyboard-response","115","166892","0.0-4.0-1.25","","<img src=""img/orange-r.png"" border=""10"">","null","trial","null","","0.2,0.8","2:nogo_b","1",""
"null","","html-keyboard-response","116","167901","0.0-4.0-2.25","","<div style=""font-size:60px;"">+</div>","null","","","","","","",""
"null","","image-keyboard-response","117","169411","0.0-4.0-0.26","","img/green.png","null","trial","32","false","0.8,0.2","1:go_a","",""
"null","","html-keyboard-response","118","170421","0.0-4.0-1.26","","<img src=""img/green-n.png"">","null","trial","32","","0.8,0.2","1:go_a","0",""
"null","","html-keyboard-response","119","171431","0.0-4.0-2.26","","<div style=""font-size:60px;"">+</div>","null","","","","","","",""
"null","","image-keyboard-response","120","172941","0.0-4.0-0.27","","img/orange.png","null","trial","null","true","0.2,0.8","2:nogo_b","",""
"null","","html-keyboard-response","121","173951","0.0-4.0-1.27","","<img src=""img/orange-n.png"">","null","trial","null","","0.2,0.8","2:nogo_b","0",""
"null","","html-keyboard-response","122","174961","0.0-4.0-2.27","","<div style=""font-size:60px;"">+</div>","null","","","","","","",""
"731","","image-keyboard-response","123","175693","0.0-4.0-0.28","","img/orange.png","32","trial","null","false","0.2,0.8","2:nogo_b","",""
"null","","html-keyboard-response","124","176703","0.0-4.0-1.28","","<img src=""img/orange-r.png"" border=""10"">","null","trial","null","","0.2,0.8","2:nogo_b","1",""
"null","","html-keyboard-response","125","177712","0.0-4.0-2.28","","<div style=""font-size:60px;"">+</div>","null","","","","","","",""
"null","","image-keyboard-response","126","179222","0.0-4.0-0.29","","img/green.png","null","trial","32","false","0.8,0.2","1:go_a","",""
"null","","html-keyboard-response","127","180232","0.0-4.0-1.29","","<img src=""img/green-n.png"">","null","trial","32","","0.8,0.2","1:go_a","0",""
"null","","html-keyboard-response","128","181242","0.0-4.0-2.29","","<div style=""font-size:60px;"">+</div>","null","","","","","","",""
"null","","image-keyboard-response","129","182752","0.0-4.0-0.30","","img/orange.png","null","trial","null","true","0.2,0.8","2:nogo_b","",""
"null","","html-keyboard-response","130","183762","0.0-4.0-1.30","","<img src=""img/orange-r.png"">","null","trial","null","","0.2,0.8","2:nogo_b","1",""
"null","","html-keyboard-response","131","184763","0.0-4.0-2.30","","<div style=""font-size:60px;"">+</div>","null","","","","","","",""
"null","","image-keyboard-response","132","186273","0.0-4.0-0.31","","img/green.png","null","trial","32","false","0.8,0.2","1:go_a","",""
"null","","html-keyboard-response","133","187282","0.0-4.0-1.31","","<img src=""img/green-n.png"">","null","trial","32","","0.8,0.2","1:go_a","0",""
"null","","html-keyboard-response","134","188293","0.0-4.0-2.31","","<div style=""font-size:60px;"">+</div>","null","","","","","","",""
"null","","image-keyboard-response","135","189803","0.0-4.0-0.32","","img/green.png","null","trial","32","false","0.8,0.2","1:go_a","",""
"null","","html-keyboard-response","136","190813","0.0-4.0-1.32","","<img src=""img/green-n.png"">","null","trial","32","","0.8,0.2","1:go_a","0",""
"null","","html-keyboard-response","137","191822","0.0-4.0-2.32","","<div style=""font-size:60px;"">+</div>","null","","","","","","",""
"1173","","image-keyboard-response","138","192995","0.0-4.0-0.33","","img/orange.png","32","trial","null","false","0.2,0.8","2:nogo_b","",""
"null","","html-keyboard-response","139","194004","0.0-4.0-1.33","","<img src=""img/orange-n.png"" border=""10"">","null","trial","null","","0.2,0.8","2:nogo_b","0",""
"null","","html-keyboard-response","140","195014","0.0-4.0-2.33","","<div style=""font-size:60px;"">+</div>","null","","","","","","",""
"null","","image-keyboard-response","141","196524","0.0-4.0-0.34","","img/green.png","null","trial","32","false","0.8,0.2","1:go_a","",""
"null","","html-keyboard-response","142","197534","0.0-4.0-1.34","","<img src=""img/green-n.png"">","null","trial","32","","0.8,0.2","1:go_a","0",""
"null","","html-keyboard-response","143","198543","0.0-4.0-2.34","","<div style=""font-size:60px;"">+</div>","null","","","","","","",""
"null","","image-keyboard-response","144","200054","0.0-4.0-0.35","","img/orange.png","null","trial","null","true","0.2,0.8","2:nogo_b","",""
"null","","html-keyboard-response","145","201064","0.0-4.0-1.35","","<img src=""img/orange-r.png"">","null","trial","null","","0.2,0.8","2:nogo_b","1",""
"null","","html-keyboard-response","146","202074","0.0-4.0-2.35","","<div style=""font-size:60px;"">+</div>","null","","","","","","",""
"null","","image-keyboard-response","147","203575","0.0-4.0-0.36","","img/green.png","null","trial","32","false","0.8,0.2","1:go_a","",""
"null","","html-keyboard-response","148","204584","0.0-4.0-1.36","","<img src=""img/green-n.png"">","null","trial","32","","0.8,0.2","1:go_a","0",""
"null","","html-keyboard-response","149","205595","0.0-4.0-2.36","","<div style=""font-size:60px;"">+</div>","null","","","","","","",""
"1271","","image-keyboard-response","150","206867","0.0-4.0-0.37","","img/orange.png","32","trial","null","false","0.2,0.8","2:nogo_b","",""
"null","","html-keyboard-response","151","207874","0.0-4.0-1.37","","<img src=""img/orange-r.png"" border=""10"">","null","trial","null","","0.2,0.8","2:nogo_b","1",""
"null","","html-keyboard-response","152","208885","0.0-4.0-2.37","","<div style=""font-size:60px;"">+</div>","null","","","","","","",""
"null","","image-keyboard-response","153","210394","0.0-4.0-0.38","","img/orange.png","null","trial","null","true","0.2,0.8","2:nogo_b","",""
"null","","html-keyboard-response","154","211404","0.0-4.0-1.38","","<img src=""img/orange-r.png"">","null","trial","null","","0.2,0.8","2:nogo_b","1",""
"null","","html-keyboard-response","155","212405","0.0-4.0-2.38","","<div style=""font-size:60px;"">+</div>","null","","","","","","",""
"null","","image-keyboard-response","156","213915","0.0-4.0-0.39","","img/green.png","null","trial","32","false","0.8,0.2","1:go_a","",""
"null","","html-keyboard-response","157","214925","0.0-4.0-1.39","","<img src=""img/green-r.png"">","null","trial","32","","0.8,0.2","1:go_a","1",""
"null","","html-keyboard-response","158","215935","0.0-4.0-2.39","","<div style=""font-size:60px;"">+</div>","null","","","","","","",""
"915","","image-keyboard-response","159","216851","0.0-4.0-0.40","","img/orange.png","32","trial","null","false","0.2,0.8","2:nogo_b","",""
"null","","html-keyboard-response","160","217855","0.0-4.0-1.40","","<img src=""img/orange-n.png"" border=""10"">","null","trial","null","","0.2,0.8","2:nogo_b","0",""
"null","","html-keyboard-response","161","218865","0.0-4.0-2.40","","<div style=""font-size:60px;"">+</div>","null","","","","","","",""
"null","","image-keyboard-response","162","220375","0.0-4.0-0.41","","img/green.png","null","trial","32","false","0.8,0.2","1:go_a","",""
"null","","html-keyboard-response","163","221386","0.0-4.0-1.41","","<img src=""img/green-n.png"">","null","trial","32","","0.8,0.2","1:go_a","0",""
"null","","html-keyboard-response","164","222387","0.0-4.0-2.41","","<div style=""font-size:60px;"">+</div>","null","","","","","","",""
"null","","image-keyboard-response","165","223896","0.0-4.0-0.42","","img/green.png","null","trial","32","false","0.8,0.2","1:go_a","",""
"null","","html-keyboard-response","166","224906","0.0-4.0-1.42","","<img src=""img/green-n.png"">","null","trial","32","","0.8,0.2","1:go_a","0",""
"null","","html-keyboard-response","167","225917","0.0-4.0-2.42","","<div style=""font-size:60px;"">+</div>","null","","","","","","",""
"null","","image-keyboard-response","168","227426","0.0-4.0-0.43","","img/orange.png","null","trial","null","true","0.2,0.8","2:nogo_b","",""
"null","","html-keyboard-response","169","228436","0.0-4.0-1.43","","<img src=""img/orange-r.png"">","null","trial","null","","0.2,0.8","2:nogo_b","1",""
"null","","html-keyboard-response","170","229446","0.0-4.0-2.43","","<div style=""font-size:60px;"">+</div>","null","","","","","","",""
"null","","image-keyboard-response","171","230957","0.0-4.0-0.44","","img/green.png","null","trial","32","false","0.8,0.2","1:go_a","",""
"null","","html-keyboard-response","172","231966","0.0-4.0-1.44","","<img src=""img/green-n.png"">","null","trial","32","","0.8,0.2","1:go_a","0",""
"null","","html-keyboard-response","173","232967","0.0-4.0-2.44","","<div style=""font-size:60px;"">+</div>","null","","","","","","",""
"null","","image-keyboard-response","174","234477","0.0-4.0-0.45","","img/orange.png","null","trial","null","true","0.2,0.8","2:nogo_b","",""
"null","","html-keyboard-response","175","235487","0.0-4.0-1.45","","<img src=""img/orange-r.png"">","null","trial","null","","0.2,0.8","2:nogo_b","1",""
"null","","html-keyboard-response","176","236497","0.0-4.0-2.45","","<div style=""font-size:60px;"">+</div>","null","","","","","","",""
"824","","image-keyboard-response","177","237322","0.0-4.0-0.46","","img/orange.png","32","trial","null","false","0.2,0.8","2:nogo_b","",""
"null","","html-keyboard-response","178","238327","0.0-4.0-1.46","","<img src=""img/orange-r.png"" border=""10"">","null","trial","null","","0.2,0.8","2:nogo_b","1",""
"null","","html-keyboard-response","179","239337","0.0-4.0-2.46","","<div style=""font-size:60px;"">+</div>","null","","","","","","",""
"null","","image-keyboard-response","180","240847","0.0-4.0-0.47","","img/green.png","null","trial","32","false","0.8,0.2","1:go_a","",""
"null","","html-keyboard-response","181","241848","0.0-4.0-1.47","","<img src=""img/green-r.png"">","null","trial","32","","0.8,0.2","1:go_a","1",""
"null","","html-keyboard-response","182","242858","0.0-4.0-2.47","","<div style=""font-size:60px;"">+</div>","null","","","","","","",""
"1073","","image-keyboard-response","183","243930","0.0-4.0-0.48","","img/orange.png","32","trial","null","false","0.2,0.8","2:nogo_b","",""
"null","","html-keyboard-response","184","244938","0.0-4.0-1.48","","<img src=""img/orange-n.png"" border=""10"">","null","trial","null","","0.2,0.8","2:nogo_b","0",""
"null","","html-keyboard-response","185","245947","0.0-4.0-2.48","","<div style=""font-size:60px;"">+</div>","null","","","","","","",""
"null","","image-keyboard-response","186","247458","0.0-4.0-0.49","","img/green.png","null","trial","32","false","0.8,0.2","1:go_a","",""
"null","","html-keyboard-response","187","248467","0.0-4.0-1.49","","<img src=""img/green-n.png"">","null","trial","32","","0.8,0.2","1:go_a","0",""
"null","","html-keyboard-response","188","249478","0.0-4.0-2.49","","<div style=""font-size:60px;"">+</div>","null","","","","","","",""
"1124","","image-keyboard-response","189","250603","0.0-4.0-0.50","","img/green.png","32","trial","32","true","0.8,0.2","1:go_a","",""
"null","","html-keyboard-response","190","251609","0.0-4.0-1.50","","<img src=""img/green-r.png"" border=""10"">","null","trial","32","","0.8,0.2","1:go_a","1",""
"null","","html-keyboard-response","191","252618","0.0-4.0-2.50","","<div style=""font-size:60px;"">+</div>","null","","","","","","",""
"null","","image-keyboard-response","192","254129","0.0-4.0-0.51","","img/orange.png","null","trial","null","true","0.2,0.8","2:nogo_b","",""
"null","","html-keyboard-response","193","255139","0.0-4.0-1.51","","<img src=""img/orange-r.png"">","null","trial","null","","0.2,0.8","2:nogo_b","1",""
"null","","html-keyboard-response","194","256148","0.0-4.0-2.51","","<div style=""font-size:60px;"">+</div>","null","","","","","","",""
"733","","image-keyboard-response","195","256882","0.0-4.0-0.52","","img/orange.png","32","trial","null","false","0.2,0.8","2:nogo_b","",""
"null","","html-keyboard-response","196","257888","0.0-4.0-1.52","","<img src=""img/orange-n.png"" border=""10"">","null","trial","null","","0.2,0.8","2:nogo_b","0",""
"null","","html-keyboard-response","197","258899","0.0-4.0-2.52","","<div style=""font-size:60px;"">+</div>","null","","","","","","",""
"null","","image-keyboard-response","198","260408","0.0-4.0-0.53","","img/green.png","null","trial","32","false","0.8,0.2","1:go_a","",""
"null","","html-keyboard-response","199","261420","0.0-4.0-1.53","","<img src=""img/green-n.png"">","null","trial","32","","0.8,0.2","1:go_a","0",""
"null","","html-keyboard-response","200","262429","0.0-4.0-2.53","","<div style=""font-size:60px;"">+</div>","null","","","","","","",""
"1428","","image-keyboard-response","201","263858","0.0-4.0-0.54","","img/orange.png","32","trial","null","false","0.2,0.8","2:nogo_b","",""
"null","","html-keyboard-response","202","264859","0.0-4.0-1.54","","<img src=""img/orange-n.png"" border=""10"">","null","trial","null","","0.2,0.8","2:nogo_b","0",""
"null","","html-keyboard-response","203","265870","0.0-4.0-2.54","","<div style=""font-size:60px;"">+</div>","null","","","","","","",""
"null","","image-keyboard-response","204","267379","0.0-4.0-0.55","","img/green.png","null","trial","32","false","0.8,0.2","1:go_a","",""
"null","","html-keyboard-response","205","268389","0.0-4.0-1.55","","<img src=""img/green-r.png"">","null","trial","32","","0.8,0.2","1:go_a","1",""
"null","","html-keyboard-response","206","269399","0.0-4.0-2.55","","<div style=""font-size:60px;"">+</div>","null","","","","","","",""
"null","","image-keyboard-response","207","270900","0.0-4.0-0.56","","img/green.png","null","trial","32","false","0.8,0.2","1:go_a","",""
"null","","html-keyboard-response","208","271910","0.0-4.0-1.56","","<img src=""img/green-n.png"">","null","trial","32","","0.8,0.2","1:go_a","0",""
"null","","html-keyboard-response","209","272921","0.0-4.0-2.56","","<div style=""font-size:60px;"">+</div>","null","","","","","","",""
"null","","image-keyboard-response","210","274430","0.0-4.0-0.57","","img/orange.png","null","trial","null","true","0.2,0.8","2:nogo_b","",""
"null","","html-keyboard-response","211","275440","0.0-4.0-1.57","","<img src=""img/orange-r.png"">","null","trial","null","","0.2,0.8","2:nogo_b","1",""
"null","","html-keyboard-response","212","276450","0.0-4.0-2.57","","<div style=""font-size:60px;"">+</div>","null","","","","","","",""
"null","","image-keyboard-response","213","277960","0.0-4.0-0.58","","img/green.png","null","trial","32","false","0.8,0.2","1:go_a","",""
"null","","html-keyboard-response","214","278970","0.0-4.0-1.58","","<img src=""img/green-n.png"">","null","trial","32","","0.8,0.2","1:go_a","0",""
"null","","html-keyboard-response","215","279971","0.0-4.0-2.58","","<div style=""font-size:60px;"">+</div>","null","","","","","","",""
"null","","image-keyboard-response","216","281481","0.0-4.0-0.59","","img/orange.png","null","trial","null","true","0.2,0.8","2:nogo_b","",""
"null","","html-keyboard-response","217","282491","0.0-4.0-1.59","","<img src=""img/orange-r.png"">","null","trial","null","","0.2,0.8","2:nogo_b","1",""
"null","","html-keyboard-response","218","283501","0.0-4.0-2.59","","<div style=""font-size:60px;"">+</div>","null","","","","","","",""
"2452","","instructions","219","285953","0.0-5.0","[{""page_index"":0,""viewing_time"":2452}]","","","","","","","","",""
"null","","image-keyboard-response","220","287461","0.0-6.0-0.0","","img/blue.png","null","trial","null","true","0.2,0.8","4:nogo_d","",""
"null","","html-keyboard-response","221","288471","0.0-6.0-1.0","","<img src=""img/blue-n.png"">","null","trial","null","","0.2,0.8","4:nogo_d","0",""
"null","","html-keyboard-response","222","289481","0.0-6.0-2.0","","<div style=""font-size:60px;"">+</div>","null","","","","","","",""
"575","","image-keyboard-response","223","290057","0.0-6.0-0.1","","img/green.png","32","trial","32","true","0.8,0.2","3:go_c","",""
"null","","html-keyboard-response","224","291061","0.0-6.0-1.1","","<img src=""img/green-r.png"" border=""10"">","null","trial","32","","0.8,0.2","3:go_c","1",""
"null","","html-keyboard-response","225","292072","0.0-6.0-2.1","","<div style=""font-size:60px;"">+</div>","null","","","","","","",""
"null","","image-keyboard-response","226","293582","0.0-6.0-0.2","","img/grey.png","null","trial","32","false","0.8,0.2","1:go_a","",""
"null","","html-keyboard-response","227","294592","0.0-6.0-1.2","","<img src=""img/grey-r.png"">","null","trial","32","","0.8,0.2","1:go_a","1",""
"null","","html-keyboard-response","228","295602","0.0-6.0-2.2","","<div style=""font-size:60px;"">+</div>","null","","","","","","",""
"1422","","image-keyboard-response","229","297024","0.0-6.0-0.3","","img/yellow.png","32","trial","null","false","0.2,0.8","2:nogo_b","",""
"null","","html-keyboard-response","230","298032","0.0-6.0-1.3","","<img src=""img/yellow-n.png"" border=""10"">","null","trial","null","","0.2,0.8","2:nogo_b","0",""
"null","","html-keyboard-response","231","299042","0.0-6.0-2.3","","<div style=""font-size:60px;"">+</div>","null","","","","","","",""
"null","","image-keyboard-response","232","300542","0.0-6.0-0.4","","img/green.png","null","trial","32","false","0.8,0.2","3:go_c","",""
"null","","html-keyboard-response","233","301553","0.0-6.0-1.4","","<img src=""img/green-n.png"">","null","trial","32","","0.8,0.2","3:go_c","0",""
"null","","html-keyboard-response","234","302563","0.0-6.0-2.4","","<div style=""font-size:60px;"">+</div>","null","","","","","","",""
"926","","image-keyboard-response","235","303489","0.0-6.0-0.5","","img/yellow.png","32","trial","null","false","0.2,0.8","2:nogo_b","",""
"null","","html-keyboard-response","236","304492","0.0-6.0-1.5","","<img src=""img/yellow-n.png"" border=""10"">","null","trial","null","","0.2,0.8","2:nogo_b","0",""
"null","","html-keyboard-response","237","305502","0.0-6.0-2.5","","<div style=""font-size:60px;"">+</div>","null","","","","","","",""
"1456","","image-keyboard-response","238","306961","0.0-6.0-0.6","","img/blue.png","32","trial","null","false","0.2,0.8","4:nogo_d","",""
"null","","html-keyboard-response","239","307962","0.0-6.0-1.6","","<img src=""img/blue-n.png"" border=""10"">","null","trial","null","","0.2,0.8","4:nogo_d","0",""
"null","","html-keyboard-response","240","308973","0.0-6.0-2.6","","<div style=""font-size:60px;"">+</div>","null","","","","","","",""
"null","","image-keyboard-response","241","310473","0.0-6.0-0.7","","img/grey.png","null","trial","32","false","0.8,0.2","1:go_a","",""
"null","","html-keyboard-response","242","311483","0.0-6.0-1.7","","<img src=""img/grey-n.png"">","null","trial","32","","0.8,0.2","1:go_a","0",""
"null","","html-keyboard-response","243","312493","0.0-6.0-2.7","","<div style=""font-size:60px;"">+</div>","null","","","","","","",""
"null","","image-keyboard-response","244","314004","0.0-6.0-0.8","","img/grey.png","null","trial","32","false","0.8,0.2","1:go_a","",""
"null","","html-keyboard-response","245","315014","0.0-6.0-1.8","","<img src=""img/grey-n.png"">","null","trial","32","","0.8,0.2","1:go_a","0",""
"null","","html-keyboard-response","246","316023","0.0-6.0-2.8","","<div style=""font-size:60px;"">+</div>","null","","","","","","",""
"1184","","image-keyboard-response","247","317208","0.0-6.0-0.9","","img/yellow.png","32","trial","null","false","0.2,0.8","2:nogo_b","",""
"null","","html-keyboard-response","248","318213","0.0-6.0-1.9","","<img src=""img/yellow-n.png"" border=""10"">","null","trial","null","","0.2,0.8","2:nogo_b","0",""
"null","","html-keyboard-response","249","319224","0.0-6.0-2.9","","<div style=""font-size:60px;"">+</div>","null","","","","","","",""
"null","","image-keyboard-response","250","320725","0.0-6.0-0.10","","img/blue.png","null","trial","null","true","0.2,0.8","4:nogo_d","",""
"null","","html-keyboard-response","251","321734","0.0-6.0-1.10","","<img src=""img/blue-r.png"">","null","trial","null","","0.2,0.8","4:nogo_d","1",""
"null","","html-keyboard-response","252","322744","0.0-6.0-2.10","","<div style=""font-size:60px;"">+</div>","null","","","","","","",""
"null","","image-keyboard-response","253","324255","0.0-6.0-0.11","","img/green.png","null","trial","32","false","0.8,0.2","3:go_c","",""
"null","","html-keyboard-response","254","325264","0.0-6.0-1.11","","<img src=""img/green-n.png"">","null","trial","32","","0.8,0.2","3:go_c","0",""
"null","","html-keyboard-response","255","326274","0.0-6.0-2.11","","<div style=""font-size:60px;"">+</div>","null","","","","","","",""
"null","","image-keyboard-response","256","327784","0.0-6.0-0.12","","img/grey.png","null","trial","32","false","0.8,0.2","1:go_a","",""
"null","","html-keyboard-response","257","328795","0.0-6.0-1.12","","<img src=""img/grey-n.png"">","null","trial","32","","0.8,0.2","1:go_a","0",""
"null","","html-keyboard-response","258","329795","0.0-6.0-2.12","","<div style=""font-size:60px;"">+</div>","null","","","","","","",""
"null","","image-keyboard-response","259","331305","0.0-6.0-0.13","","img/yellow.png","null","trial","null","true","0.2,0.8","2:nogo_b","",""
"null","","html-keyboard-response","260","332315","0.0-6.0-1.13","","<img src=""img/yellow-r.png"">","null","trial","null","","0.2,0.8","2:nogo_b","1",""
"null","","html-keyboard-response","261","333325","0.0-6.0-2.13","","<div style=""font-size:60px;"">+</div>","null","","","","","","",""
"802","","image-keyboard-response","262","334128","0.0-6.0-0.14","","img/green.png","32","trial","32","true","0.8,0.2","3:go_c","",""
"null","","html-keyboard-response","263","335135","0.0-6.0-1.14","","<img src=""img/green-r.png"" border=""10"">","null","trial","32","","0.8,0.2","3:go_c","1",""
"null","","html-keyboard-response","264","336145","0.0-6.0-2.14","","<div style=""font-size:60px;"">+</div>","null","","","","","","",""
"null","","image-keyboard-response","265","337655","0.0-6.0-0.15","","img/blue.png","null","trial","null","true","0.2,0.8","4:nogo_d","",""
"null","","html-keyboard-response","266","338666","0.0-6.0-1.15","","<img src=""img/blue-n.png"">","null","trial","null","","0.2,0.8","4:nogo_d","0",""
"null","","html-keyboard-response","267","339676","0.0-6.0-2.15","","<div style=""font-size:60px;"">+</div>","null","","","","","","",""
"1443","","image-keyboard-response","268","341120","0.0-6.0-0.16","","img/yellow.png","32","trial","null","false","0.2,0.8","2:nogo_b","",""
"null","","html-keyboard-response","269","342126","0.0-6.0-1.16","","<img src=""img/yellow-n.png"" border=""10"">","null","trial","null","","0.2,0.8","2:nogo_b","0",""
"null","","html-keyboard-response","270","343136","0.0-6.0-2.16","","<div style=""font-size:60px;"">+</div>","null","","","","","","",""
"null","","image-keyboard-response","271","344646","0.0-6.0-0.17","","img/blue.png","null","trial","null","true","0.2,0.8","4:nogo_d","",""
"null","","html-keyboard-response","272","345656","0.0-6.0-1.17","","<img src=""img/blue-n.png"">","null","trial","null","","0.2,0.8","4:nogo_d","0",""
"null","","html-keyboard-response","273","346666","0.0-6.0-2.17","","<div style=""font-size:60px;"">+</div>","null","","","","","","",""
"null","","image-keyboard-response","274","348176","0.0-6.0-0.18","","img/grey.png","null","trial","32","false","0.8,0.2","1:go_a","",""
"null","","html-keyboard-response","275","349187","0.0-6.0-1.18","","<img src=""img/grey-n.png"">","null","trial","32","","0.8,0.2","1:go_a","0",""
"null","","html-keyboard-response","276","350196","0.0-6.0-2.18","","<div style=""font-size:60px;"">+</div>","null","","","","","","",""
"1050","","image-keyboard-response","277","351248","0.0-6.0-0.19","","img/green.png","32","trial","32","true","0.8,0.2","3:go_c","",""
"null","","html-keyboard-response","278","352256","0.0-6.0-1.19","","<img src=""img/green-r.png"" border=""10"">","null","trial","32","","0.8,0.2","3:go_c","1",""
"null","","html-keyboard-response","279","353266","0.0-6.0-2.19","","<div style=""font-size:60px;"">+</div>","null","","","","","","",""
"null","","image-keyboard-response","280","354776","0.0-6.0-0.20","","img/green.png","null","trial","32","false","0.8,0.2","3:go_c","",""
"null","","html-keyboard-response","281","355787","0.0-6.0-1.20","","<img src=""img/green-r.png"">","null","trial","32","","0.8,0.2","3:go_c","1",""
"null","","html-keyboard-response","282","356796","0.0-6.0-2.20","","<div style=""font-size:60px;"">+</div>","null","","","","","","",""
"null","","image-keyboard-response","283","358297","0.0-6.0-0.21","","img/grey.png","null","trial","32","false","0.8,0.2","1:go_a","",""
"null","","html-keyboard-response","284","359307","0.0-6.0-1.21","","<img src=""img/grey-n.png"">","null","trial","32","","0.8,0.2","1:go_a","0",""
"null","","html-keyboard-response","285","360318","0.0-6.0-2.21","","<div style=""font-size:60px;"">+</div>","null","","","","","","",""
"null","","image-keyboard-response","286","361828","0.0-6.0-0.22","","img/yellow.png","null","trial","null","true","0.2,0.8","2:nogo_b","",""
"null","","html-keyboard-response","287","362837","0.0-6.0-1.22","","<img src=""img/yellow-n.png"">","null","trial","null","","0.2,0.8","2:nogo_b","0",""
"null","","html-keyboard-response","288","363848","0.0-6.0-2.22","","<div style=""font-size:60px;"">+</div>","null","","","","","","",""
"null","","image-keyboard-response","289","365357","0.0-6.0-0.23","","img/blue.png","null","trial","null","true","0.2,0.8","4:nogo_d","",""
"null","","html-keyboard-response","290","366367","0.0-6.0-1.23","","<img src=""img/blue-r.png"">","null","trial","null","","0.2,0.8","4:nogo_d","1",""
"null","","html-keyboard-response","291","367378","0.0-6.0-2.23","","<div style=""font-size:60px;"">+</div>","null","","","","","","",""
"1429","","image-keyboard-response","292","368807","0.0-6.0-0.24","","img/yellow.png","32","trial","null","false","0.2,0.8","2:nogo_b","",""
"null","","html-keyboard-response","293","369809","0.0-6.0-1.24","","<img src=""img/yellow-n.png"" border=""10"">","null","trial","null","","0.2,0.8","2:nogo_b","0",""
"null","","html-keyboard-response","294","370819","0.0-6.0-2.24","","<div style=""font-size:60px;"">+</div>","null","","","","","","",""
"null","","image-keyboard-response","295","372328","0.0-6.0-0.25","","img/grey.png","null","trial","32","false","0.8,0.2","1:go_a","",""
"null","","html-keyboard-response","296","373339","0.0-6.0-1.25","","<img src=""img/grey-n.png"">","null","trial","32","","0.8,0.2","1:go_a","0",""
"null","","html-keyboard-response","297","374349","0.0-6.0-2.25","","<div style=""font-size:60px;"">+</div>","null","","","","","","",""
"1203","","image-keyboard-response","298","375550","0.0-6.0-0.26","","img/green.png","32","trial","32","true","0.8,0.2","3:go_c","",""
"null","","html-keyboard-response","299","376558","0.0-6.0-1.26","","<img src=""img/green-r.png"" border=""10"">","null","trial","32","","0.8,0.2","3:go_c","1",""
"null","","html-keyboard-response","300","377559","0.0-6.0-2.26","","<div style=""font-size:60px;"">+</div>","null","","","","","","",""
"null","","image-keyboard-response","301","379069","0.0-6.0-0.27","","img/blue.png","null","trial","null","true","0.2,0.8","4:nogo_d","",""
"null","","html-keyboard-response","302","380079","0.0-6.0-1.27","","<img src=""img/blue-r.png"">","null","trial","null","","0.2,0.8","4:nogo_d","1",""
"null","","html-keyboard-response","303","381089","0.0-6.0-2.27","","<div style=""font-size:60px;"">+</div>","null","","","","","","",""
"null","","image-keyboard-response","304","382599","0.0-6.0-0.28","","img/grey.png","null","trial","32","false","0.8,0.2","1:go_a","",""
"null","","html-keyboard-response","305","383609","0.0-6.0-1.28","","<img src=""img/grey-n.png"">","null","trial","32","","0.8,0.2","1:go_a","0",""
"null","","html-keyboard-response","306","384619","0.0-6.0-2.28","","<div style=""font-size:60px;"">+</div>","null","","","","","","",""
"null","","image-keyboard-response","307","386120","0.0-6.0-0.29","","img/blue.png","null","trial","null","true","0.2,0.8","4:nogo_d","",""
"null","","html-keyboard-response","308","387130","0.0-6.0-1.29","","<img src=""img/blue-r.png"">","null","trial","null","","0.2,0.8","4:nogo_d","1",""
"null","","html-keyboard-response","309","388140","0.0-6.0-2.29","","<div style=""font-size:60px;"">+</div>","null","","","","","","",""
"null","","image-keyboard-response","310","389650","0.0-6.0-0.30","","img/yellow.png","null","trial","null","true","0.2,0.8","2:nogo_b","",""
"null","","html-keyboard-response","311","390660","0.0-6.0-1.30","","<img src=""img/yellow-n.png"">","null","trial","null","","0.2,0.8","2:nogo_b","0",""
"null","","html-keyboard-response","312","391670","0.0-6.0-2.30","","<div style=""font-size:60px;"">+</div>","null","","","","","","",""
"1112","","image-keyboard-response","313","392782","0.0-6.0-0.31","","img/green.png","32","trial","32","true","0.8,0.2","3:go_c","",""
"null","","html-keyboard-response","314","393790","0.0-6.0-1.31","","<img src=""img/green-r.png"" border=""10"">","null","trial","32","","0.8,0.2","3:go_c","1",""
"null","","html-keyboard-response","315","394800","0.0-6.0-2.31","","<div style=""font-size:60px;"">+</div>","null","","","","","","",""
"null","","image-keyboard-response","316","396300","0.0-6.0-0.32","","img/blue.png","null","trial","null","true","0.2,0.8","4:nogo_d","",""
"null","","html-keyboard-response","317","397311","0.0-6.0-1.32","","<img src=""img/blue-r.png"">","null","trial","null","","0.2,0.8","4:nogo_d","1",""
"null","","html-keyboard-response","318","398321","0.0-6.0-2.32","","<div style=""font-size:60px;"">+</div>","null","","","","","","",""
"null","","image-keyboard-response","319","399831","0.0-6.0-0.33","","img/yellow.png","null","trial","null","true","0.2,0.8","2:nogo_b","",""
"null","","html-keyboard-response","320","400841","0.0-6.0-1.33","","<img src=""img/yellow-r.png"">","null","trial","null","","0.2,0.8","2:nogo_b","1",""
"null","","html-keyboard-response","321","401851","0.0-6.0-2.33","","<div style=""font-size:60px;"">+</div>","null","","","","","","",""
"1323","","image-keyboard-response","322","403174","0.0-6.0-0.34","","img/green.png","32","trial","32","true","0.8,0.2","3:go_c","",""
"null","","html-keyboard-response","323","404180","0.0-6.0-1.34","","<img src=""img/green-r.png"" border=""10"">","null","trial","32","","0.8,0.2","3:go_c","1",""
"null","","html-keyboard-response","324","405182","0.0-6.0-2.34","","<div style=""font-size:60px;"">+</div>","null","","","","","","",""
"null","","image-keyboard-response","325","406691","0.0-6.0-0.35","","img/grey.png","null","trial","32","false","0.8,0.2","1:go_a","",""
"null","","html-keyboard-response","326","407702","0.0-6.0-1.35","","<img src=""img/grey-n.png"">","null","trial","32","","0.8,0.2","1:go_a","0",""
"null","","html-keyboard-response","327","408712","0.0-6.0-2.35","","<div style=""font-size:60px;"">+</div>","null","","","","","","",""
"1054","","image-keyboard-response","328","409765","0.0-6.0-0.36","","img/green.png","32","trial","32","true","0.8,0.2","3:go_c","",""
"null","","html-keyboard-response","329","410771","0.0-6.0-1.36","","<img src=""img/green-r.png"" border=""10"">","null","trial","32","","0.8,0.2","3:go_c","1",""
"null","","html-keyboard-response","330","411781","0.0-6.0-2.36","","<div style=""font-size:60px;"">+</div>","null","","","","","","",""
"null","","image-keyboard-response","331","413292","0.0-6.0-0.37","","img/yellow.png","null","trial","null","true","0.2,0.8","2:nogo_b","",""
"null","","html-keyboard-response","332","414303","0.0-6.0-1.37","","<img src=""img/yellow-n.png"">","null","trial","null","","0.2,0.8","2:nogo_b","0",""
"null","","html-keyboard-response","333","415313","0.0-6.0-2.37","","<div style=""font-size:60px;"">+</div>","null","","","","","","",""
"null","","image-keyboard-response","334","416823","0.0-6.0-0.38","","img/blue.png","null","trial","null","true","0.2,0.8","4:nogo_d","",""
"null","","html-keyboard-response","335","417833","0.0-6.0-1.38","","<img src=""img/blue-r.png"">","null","trial","null","","0.2,0.8","4:nogo_d","1",""
"null","","html-keyboard-response","336","418842","0.0-6.0-2.38","","<div style=""font-size:60px;"">+</div>","null","","","","","","",""
"null","","image-keyboard-response","337","420353","0.0-6.0-0.39","","img/grey.png","null","trial","32","false","0.8,0.2","1:go_a","",""
"null","","html-keyboard-response","338","421362","0.0-6.0-1.39","","<img src=""img/grey-n.png"">","null","trial","32","","0.8,0.2","1:go_a","0",""
"null","","html-keyboard-response","339","422364","0.0-6.0-2.39","","<div style=""font-size:60px;"">+</div>","null","","","","","","",""
"null","","image-keyboard-response","340","423874","0.0-6.0-0.40","","img/grey.png","null","trial","32","false","0.8,0.2","1:go_a","",""
"null","","html-keyboard-response","341","424883","0.0-6.0-1.40","","<img src=""img/grey-n.png"">","null","trial","32","","0.8,0.2","1:go_a","0",""
"null","","html-keyboard-response","342","425893","0.0-6.0-2.40","","<div style=""font-size:60px;"">+</div>","null","","","","","","",""
"null","","image-keyboard-response","343","427403","0.0-6.0-0.41","","img/yellow.png","null","trial","null","true","0.2,0.8","2:nogo_b","",""
"null","","html-keyboard-response","344","428413","0.0-6.0-1.41","","<img src=""img/yellow-n.png"">","null","trial","null","","0.2,0.8","2:nogo_b","0",""
"null","","html-keyboard-response","345","429423","0.0-6.0-2.41","","<div style=""font-size:60px;"">+</div>","null","","","","","","",""
"null","","image-keyboard-response","346","430924","0.0-6.0-0.42","","img/blue.png","null","trial","null","true","0.2,0.8","4:nogo_d","",""
"null","","html-keyboard-response","347","431934","0.0-6.0-1.42","","<img src=""img/blue-n.png"">","null","trial","null","","0.2,0.8","4:nogo_d","0",""
"null","","html-keyboard-response","348","432944","0.0-6.0-2.42","","<div style=""font-size:60px;"">+</div>","null","","","","","","",""
"924","","image-keyboard-response","349","433869","0.0-6.0-0.43","","img/green.png","32","trial","32","true","0.8,0.2","3:go_c","",""
"null","","html-keyboard-response","350","434874","0.0-6.0-1.43","","<img src=""img/green-r.png"" border=""10"">","null","trial","32","","0.8,0.2","3:go_c","1",""
"null","","html-keyboard-response","351","435884","0.0-6.0-2.43","","<div style=""font-size:60px;"">+</div>","null","","","","","","",""
"null","","image-keyboard-response","352","437394","0.0-6.0-0.44","","img/green.png","null","trial","32","false","0.8,0.2","3:go_c","",""
"null","","html-keyboard-response","353","438404","0.0-6.0-1.44","","<img src=""img/green-n.png"">","null","trial","32","","0.8,0.2","3:go_c","0",""
"null","","html-keyboard-response","354","439414","0.0-6.0-2.44","","<div style=""font-size:60px;"">+</div>","null","","","","","","",""
"null","","image-keyboard-response","355","440914","0.0-6.0-0.45","","img/yellow.png","null","trial","null","true","0.2,0.8","2:nogo_b","",""
"null","","html-keyboard-response","356","441925","0.0-6.0-1.45","","<img src=""img/yellow-n.png"">","null","trial","null","","0.2,0.8","2:nogo_b","0",""
"null","","html-keyboard-response","357","442935","0.0-6.0-2.45","","<div style=""font-size:60px;"">+</div>","null","","","","","","",""
"null","","image-keyboard-response","358","444445","0.0-6.0-0.46","","img/grey.png","null","trial","32","false","0.8,0.2","1:go_a","",""
"null","","html-keyboard-response","359","445454","0.0-6.0-1.46","","<img src=""img/grey-n.png"">","null","trial","32","","0.8,0.2","1:go_a","0",""
"null","","html-keyboard-response","360","446465","0.0-6.0-2.46","","<div style=""font-size:60px;"">+</div>","null","","","","","","",""
"null","","image-keyboard-response","361","447974","0.0-6.0-0.47","","img/blue.png","null","trial","null","true","0.2,0.8","4:nogo_d","",""
"null","","html-keyboard-response","362","448985","0.0-6.0-1.47","","<img src=""img/blue-r.png"">","null","trial","null","","0.2,0.8","4:nogo_d","1",""
"null","","html-keyboard-response","363","449995","0.0-6.0-2.47","","<div style=""font-size:60px;"">+</div>","null","","","","","","",""
"1232","","image-keyboard-response","364","451229","0.0-6.0-0.48","","img/green.png","32","trial","32","true","0.8,0.2","3:go_c","",""
"null","","html-keyboard-response","365","452236","0.0-6.0-1.48","","<img src=""img/green-r.png"" border=""10"">","null","trial","32","","0.8,0.2","3:go_c","1",""
"null","","html-keyboard-response","366","453246","0.0-6.0-2.48","","<div style=""font-size:60px;"">+</div>","null","","","","","","",""
"null","","image-keyboard-response","367","454756","0.0-6.0-0.49","","img/grey.png","null","trial","32","false","0.8,0.2","1:go_a","",""
"null","","html-keyboard-response","368","455766","0.0-6.0-1.49","","<img src=""img/grey-n.png"">","null","trial","32","","0.8,0.2","1:go_a","0",""
"null","","html-keyboard-response","369","456775","0.0-6.0-2.49","","<div style=""font-size:60px;"">+</div>","null","","","","","","",""
"null","","image-keyboard-response","370","458285","0.0-6.0-0.50","","img/blue.png","null","trial","null","true","0.2,0.8","4:nogo_d","",""
"null","","html-keyboard-response","371","459296","0.0-6.0-1.50","","<img src=""img/blue-r.png"">","null","trial","null","","0.2,0.8","4:nogo_d","1",""
"null","","html-keyboard-response","372","460306","0.0-6.0-2.50","","<div style=""font-size:60px;"">+</div>","null","","","","","","",""
"null","","image-keyboard-response","373","461807","0.0-6.0-0.51","","img/yellow.png","null","trial","null","true","0.2,0.8","2:nogo_b","",""
"null","","html-keyboard-response","374","462817","0.0-6.0-1.51","","<img src=""img/yellow-r.png"">","null","trial","null","","0.2,0.8","2:nogo_b","1",""
"null","","html-keyboard-response","375","463826","0.0-6.0-2.51","","<div style=""font-size:60px;"">+</div>","null","","","","","","",""
"1040","","image-keyboard-response","376","464869","0.0-6.0-0.52","","img/green.png","32","trial","32","true","0.8,0.2","3:go_c","",""
"null","","html-keyboard-response","377","465877","0.0-6.0-1.52","","<img src=""img/green-r.png"" border=""10"">","null","trial","32","","0.8,0.2","3:go_c","1",""
"null","","html-keyboard-response","378","466886","0.0-6.0-2.52","","<div style=""font-size:60px;"">+</div>","null","","","","","","",""
"null","","image-keyboard-response","379","468396","0.0-6.0-0.53","","img/yellow.png","null","trial","null","true","0.2,0.8","2:nogo_b","",""
"null","","html-keyboard-response","380","469406","0.0-6.0-1.53","","<img src=""img/yellow-r.png"">","null","trial","null","","0.2,0.8","2:nogo_b","1",""
"null","","html-keyboard-response","381","470416","0.0-6.0-2.53","","<div style=""font-size:60px;"">+</div>","null","","","","","","",""
"null","","image-keyboard-response","382","471918","0.0-6.0-0.54","","img/blue.png","null","trial","null","true","0.2,0.8","4:nogo_d","",""
"null","","html-keyboard-response","383","472928","0.0-6.0-1.54","","<img src=""img/blue-r.png"">","null","trial","null","","0.2,0.8","4:nogo_d","1",""
"null","","html-keyboard-response","384","473937","0.0-6.0-2.54","","<div style=""font-size:60px;"">+</div>","null","","","","","","",""
"null","","image-keyboard-response","385","475448","0.0-6.0-0.55","","img/grey.png","null","trial","32","false","0.8,0.2","1:go_a","",""
"null","","html-keyboard-response","386","476457","0.0-6.0-1.55","","<img src=""img/grey-n.png"">","null","trial","32","","0.8,0.2","1:go_a","0",""
"null","","html-keyboard-response","387","477467","0.0-6.0-2.55","","<div style=""font-size:60px;"">+</div>","null","","","","","","",""
"null","","image-keyboard-response","388","478977","0.0-6.0-0.56","","img/blue.png","null","trial","null","true","0.2,0.8","4:nogo_d","",""
"null","","html-keyboard-response","389","479989","0.0-6.0-1.56","","<img src=""img/blue-r.png"">","null","trial","null","","0.2,0.8","4:nogo_d","1",""
"null","","html-keyboard-response","390","480998","0.0-6.0-2.56","","<div style=""font-size:60px;"">+</div>","null","","","","","","",""
"773","","image-keyboard-response","391","481772","0.0-6.0-0.57","","img/green.png","32","trial","32","true","0.8,0.2","3:go_c","",""
"null","","html-keyboard-response","392","482778","0.0-6.0-1.57","","<img src=""img/green-n.png"" border=""10"">","null","trial","32","","0.8,0.2","3:go_c","0",""
"null","","html-keyboard-response","393","483788","0.0-6.0-2.57","","<div style=""font-size:60px;"">+</div>","null","","","","","","",""
"null","","image-keyboard-response","394","485298","0.0-6.0-0.58","","img/grey.png","null","trial","32","false","0.8,0.2","1:go_a","",""
"null","","html-keyboard-response","395","486308","0.0-6.0-1.58","","<img src=""img/grey-n.png"">","null","trial","32","","0.8,0.2","1:go_a","0",""
"null","","html-keyboard-response","396","487318","0.0-6.0-2.58","","<div style=""font-size:60px;"">+</div>","null","","","","","","",""
"1052","","image-keyboard-response","397","488372","0.0-6.0-0.59","","img/yellow.png","32","trial","null","false","0.2,0.8","2:nogo_b","",""
"null","","html-keyboard-response","398","489378","0.0-6.0-1.59","","<img src=""img/yellow-n.png"" border=""10"">","null","trial","null","","0.2,0.8","2:nogo_b","0",""
"null","","html-keyboard-response","399","490379","0.0-6.0-2.59","","<div style=""font-size:60px;"">+</div>","null","","","","","","",""
"null","","image-keyboard-response","400","491889","0.0-6.0-0.60","","img/yellow.png","null","trial","null","true","0.2,0.8","2:nogo_b","",""
"null","","html-keyboard-response","401","492899","0.0-6.0-1.60","","<img src=""img/yellow-r.png"">","null","trial","null","","0.2,0.8","2:nogo_b","1",""
"null","","html-keyboard-response","402","493909","0.0-6.0-2.60","","<div style=""font-size:60px;"">+</div>","null","","","","","","",""
"null","","image-keyboard-response","403","495419","0.0-6.0-0.61","","img/blue.png","null","trial","null","true","0.2,0.8","4:nogo_d","",""
"null","","html-keyboard-response","404","496429","0.0-6.0-1.61","","<img src=""img/blue-n.png"">","null","trial","null","","0.2,0.8","4:nogo_d","0",""
"null","","html-keyboard-response","405","497439","0.0-6.0-2.61","","<div style=""font-size:60px;"">+</div>","null","","","","","","",""
"null","","image-keyboard-response","406","498949","0.0-6.0-0.62","","img/grey.png","null","trial","32","false","0.8,0.2","1:go_a","",""
"null","","html-keyboard-response","407","499960","0.0-6.0-1.62","","<img src=""img/grey-n.png"">","null","trial","32","","0.8,0.2","1:go_a","0",""
"null","","html-keyboard-response","408","500970","0.0-6.0-2.62","","<div style=""font-size:60px;"">+</div>","null","","","","","","",""
"856","","image-keyboard-response","409","501827","0.0-6.0-0.63","","img/green.png","32","trial","32","true","0.8,0.2","3:go_c","",""
"null","","html-keyboard-response","410","502830","0.0-6.0-1.63","","<img src=""img/green-r.png"" border=""10"">","null","trial","32","","0.8,0.2","3:go_c","1",""
"null","","html-keyboard-response","411","503839","0.0-6.0-2.63","","<div style=""font-size:60px;"">+</div>","null","","","","","","",""
"null","","image-keyboard-response","412","505350","0.0-6.0-0.64","","img/grey.png","null","trial","32","false","0.8,0.2","1:go_a","",""
"null","","html-keyboard-response","413","506360","0.0-6.0-1.64","","<img src=""img/grey-n.png"">","null","trial","32","","0.8,0.2","1:go_a","0",""
"null","","html-keyboard-response","414","507370","0.0-6.0-2.64","","<div style=""font-size:60px;"">+</div>","null","","","","","","",""
"null","","image-keyboard-response","415","508870","0.0-6.0-0.65","","img/yellow.png","null","trial","null","true","0.2,0.8","2:nogo_b","",""
"null","","html-keyboard-response","416","509881","0.0-6.0-1.65","","<img src=""img/yellow-r.png"">","null","trial","null","","0.2,0.8","2:nogo_b","1",""
"null","","html-keyboard-response","417","510890","0.0-6.0-2.65","","<div style=""font-size:60px;"">+</div>","null","","","","","","",""
"null","","image-keyboard-response","418","512400","0.0-6.0-0.66","","img/blue.png","null","trial","null","true","0.2,0.8","4:nogo_d","",""
"null","","html-keyboard-response","419","513411","0.0-6.0-1.66","","<img src=""img/blue-n.png"">","null","trial","null","","0.2,0.8","4:nogo_d","0",""
"null","","html-keyboard-response","420","514421","0.0-6.0-2.66","","<div style=""font-size:60px;"">+</div>","null","","","","","","",""
"822","","image-keyboard-response","421","515243","0.0-6.0-0.67","","img/green.png","32","trial","32","true","0.8,0.2","3:go_c","",""
"null","","html-keyboard-response","422","516250","0.0-6.0-1.67","","<img src=""img/green-r.png"" border=""10"">","null","trial","32","","0.8,0.2","3:go_c","1",""
"null","","html-keyboard-response","423","517251","0.0-6.0-2.67","","<div style=""font-size:60px;"">+</div>","null","","","","","","",""
"1286","","image-keyboard-response","424","518539","0.0-6.0-0.68","","img/green.png","32","trial","32","true","0.8,0.2","3:go_c","",""
"null","","html-keyboard-response","425","519541","0.0-6.0-1.68","","<img src=""img/green-n.png"" border=""10"">","null","trial","32","","0.8,0.2","3:go_c","0",""
"null","","html-keyboard-response","426","520552","0.0-6.0-2.68","","<div style=""font-size:60px;"">+</div>","null","","","","","","",""
"null","","image-keyboard-response","427","522061","0.0-6.0-0.69","","img/yellow.png","null","trial","null","true","0.2,0.8","2:nogo_b","",""
"null","","html-keyboard-response","428","523072","0.0-6.0-1.69","","<img src=""img/yellow-r.png"">","null","trial","null","","0.2,0.8","2:nogo_b","1",""
"null","","html-keyboard-response","429","524081","0.0-6.0-2.69","","<div style=""font-size:60px;"">+</div>","null","","","","","","",""
"null","","image-keyboard-response","430","525591","0.0-6.0-0.70","","img/blue.png","null","trial","null","true","0.2,0.8","4:nogo_d","",""
"null","","html-keyboard-response","431","526601","0.0-6.0-1.70","","<img src=""img/blue-r.png"">","null","trial","null","","0.2,0.8","4:nogo_d","1",""
"null","","html-keyboard-response","432","527603","0.0-6.0-2.70","","<div style=""font-size:60px;"">+</div>","null","","","","","","",""
"null","","image-keyboard-response","433","529113","0.0-6.0-0.71","","img/grey.png","null","trial","32","false","0.8,0.2","1:go_a","",""
"null","","html-keyboard-response","434","530124","0.0-6.0-1.71","","<img src=""img/grey-n.png"">","null","trial","32","","0.8,0.2","1:go_a","0",""
"null","","html-keyboard-response","435","531133","0.0-6.0-2.71","","<div style=""font-size:60px;"">+</div>","null","","","","","","",""
"null","","image-keyboard-response","436","532644","0.0-6.0-0.72","","img/blue.png","null","trial","null","true","0.2,0.8","4:nogo_d","",""
"null","","html-keyboard-response","437","533653","0.0-6.0-1.72","","<img src=""img/blue-n.png"">","null","trial","null","","0.2,0.8","4:nogo_d","0",""
"null","","html-keyboard-response","438","534663","0.0-6.0-2.72","","<div style=""font-size:60px;"">+</div>","null","","","","","","",""
"null","","image-keyboard-response","439","536173","0.0-6.0-0.73","","img/grey.png","null","trial","32","false","0.8,0.2","1:go_a","",""
"null","","html-keyboard-response","440","537183","0.0-6.0-1.73","","<img src=""img/grey-n.png"">","null","trial","32","","0.8,0.2","1:go_a","0",""
"null","","html-keyboard-response","441","538193","0.0-6.0-2.73","","<div style=""font-size:60px;"">+</div>","null","","","","","","",""
"849","","image-keyboard-response","442","539042","0.0-6.0-0.74","","img/green.png","32","trial","32","true","0.8,0.2","3:go_c","",""
"null","","html-keyboard-response","443","540044","0.0-6.0-1.74","","<img src=""img/green-r.png"" border=""10"">","null","trial","32","","0.8,0.2","3:go_c","1",""
"null","","html-keyboard-response","444","541054","0.0-6.0-2.74","","<div style=""font-size:60px;"">+</div>","null","","","","","","",""
"null","","image-keyboard-response","445","542563","0.0-6.0-0.75","","img/yellow.png","null","trial","null","true","0.2,0.8","2:nogo_b","",""
"null","","html-keyboard-response","446","543574","0.0-6.0-1.75","","<img src=""img/yellow-r.png"">","null","trial","null","","0.2,0.8","2:nogo_b","1",""
"null","","html-keyboard-response","447","544584","0.0-6.0-2.75","","<div style=""font-size:60px;"">+</div>","null","","","","","","",""
"null","","image-keyboard-response","448","546094","0.0-6.0-0.76","","img/grey.png","null","trial","32","false","0.8,0.2","1:go_a","",""
"null","","html-keyboard-response","449","547103","0.0-6.0-1.76","","<img src=""img/grey-n.png"">","null","trial","32","","0.8,0.2","1:go_a","0",""
"null","","html-keyboard-response","450","548105","0.0-6.0-2.76","","<div style=""font-size:60px;"">+</div>","null","","","","","","",""
"992","","image-keyboard-response","451","549098","0.0-6.0-0.77","","img/green.png","32","trial","32","true","0.8,0.2","3:go_c","",""
"null","","html-keyboard-response","452","550105","0.0-6.0-1.77","","<img src=""img/green-r.png"" border=""10"">","null","trial","32","","0.8,0.2","3:go_c","1",""
"null","","html-keyboard-response","453","551114","0.0-6.0-2.77","","<div style=""font-size:60px;"">+</div>","null","","","","","","",""
"null","","image-keyboard-response","454","552625","0.0-6.0-0.78","","img/blue.png","null","trial","null","true","0.2,0.8","4:nogo_d","",""
"null","","html-keyboard-response","455","553635","0.0-6.0-1.78","","<img src=""img/blue-r.png"">","null","trial","null","","0.2,0.8","4:nogo_d","1",""
"null","","html-keyboard-response","456","554644","0.0-6.0-2.78","","<div style=""font-size:60px;"">+</div>","null","","","","","","",""
"null","","image-keyboard-response","457","556155","0.0-6.0-0.79","","img/yellow.png","null","trial","null","true","0.2,0.8","2:nogo_b","",""
"null","","html-keyboard-response","458","557165","0.0-6.0-1.79","","<img src=""img/yellow-r.png"">","null","trial","null","","0.2,0.8","2:nogo_b","1",""
"null","","html-keyboard-response","459","558174","0.0-6.0-2.79","","<div style=""font-size:60px;"">+</div>","null","","","","","","",""
"null","","image-keyboard-response","460","559676","0.0-6.0-0.80","","img/grey.png","null","trial","32","false","0.8,0.2","1:go_a","",""
"null","","html-keyboard-response","461","560686","0.0-6.0-1.80","","<img src=""img/grey-n.png"">","null","trial","32","","0.8,0.2","1:go_a","0",""
"null","","html-keyboard-response","462","561696","0.0-6.0-2.80","","<div style=""font-size:60px;"">+</div>","null","","","","","","",""
"null","","image-keyboard-response","463","563205","0.0-6.0-0.81","","img/blue.png","null","trial","null","true","0.2,0.8","4:nogo_d","",""
"null","","html-keyboard-response","464","564216","0.0-6.0-1.81","","<img src=""img/blue-n.png"">","null","trial","null","","0.2,0.8","4:nogo_d","0",""
"null","","html-keyboard-response","465","565225","0.0-6.0-2.81","","<div style=""font-size:60px;"">+</div>","null","","","","","","",""
"null","","image-keyboard-response","466","566735","0.0-6.0-0.82","","img/yellow.png","null","trial","null","true","0.2,0.8","2:nogo_b","",""
"null","","html-keyboard-response","467","567746","0.0-6.0-1.82","","<img src=""img/yellow-r.png"">","null","trial","null","","0.2,0.8","2:nogo_b","1",""
"null","","html-keyboard-response","468","568746","0.0-6.0-2.82","","<div style=""font-size:60px;"">+</div>","null","","","","","","",""
"935","","image-keyboard-response","469","569681","0.0-6.0-0.83","","img/green.png","32","trial","32","true","0.8,0.2","3:go_c","",""
"null","","html-keyboard-response","470","570687","0.0-6.0-1.83","","<img src=""img/green-r.png"" border=""10"">","null","trial","32","","0.8,0.2","3:go_c","1",""
"null","","html-keyboard-response","471","571697","0.0-6.0-2.83","","<div style=""font-size:60px;"">+</div>","null","","","","","","",""
"null","","image-keyboard-response","472","573207","0.0-6.0-0.84","","img/blue.png","null","trial","null","true","0.2,0.8","4:nogo_d","",""
"null","","html-keyboard-response","473","574216","0.0-6.0-1.84","","<img src=""img/blue-r.png"">","null","trial","null","","0.2,0.8","4:nogo_d","1",""
"null","","html-keyboard-response","474","575227","0.0-6.0-2.84","","<div style=""font-size:60px;"">+</div>","null","","","","","","",""
"null","","image-keyboard-response","475","576737","0.0-6.0-0.85","","img/yellow.png","null","trial","null","true","0.2,0.8","2:nogo_b","",""
"null","","html-keyboard-response","476","577746","0.0-6.0-1.85","","<img src=""img/yellow-r.png"">","null","trial","null","","0.2,0.8","2:nogo_b","1",""
"null","","html-keyboard-response","477","578747","0.0-6.0-2.85","","<div style=""font-size:60px;"">+</div>","null","","","","","","",""
"790","","image-keyboard-response","478","579537","0.0-6.0-0.86","","img/green.png","32","trial","32","true","0.8,0.2","3:go_c","",""
"null","","html-keyboard-response","479","580547","0.0-6.0-1.86","","<img src=""img/green-n.png"" border=""10"">","null","trial","32","","0.8,0.2","3:go_c","0",""
"null","","html-keyboard-response","480","581557","0.0-6.0-2.86","","<div style=""font-size:60px;"">+</div>","null","","","","","","",""
"null","","image-keyboard-response","481","583067","0.0-6.0-0.87","","img/grey.png","null","trial","32","false","0.8,0.2","1:go_a","",""
"null","","html-keyboard-response","482","584077","0.0-6.0-1.87","","<img src=""img/grey-n.png"">","null","trial","32","","0.8,0.2","1:go_a","0",""
"null","","html-keyboard-response","483","585087","0.0-6.0-2.87","","<div style=""font-size:60px;"">+</div>","null","","","","","","",""
"1001","","image-keyboard-response","484","586088","0.0-6.0-0.88","","img/green.png","32","trial","32","true","0.8,0.2","3:go_c","",""
"null","","html-keyboard-response","485","587097","0.0-6.0-1.88","","<img src=""img/green-r.png"" border=""10"">","null","trial","32","","0.8,0.2","3:go_c","1",""
"null","","html-keyboard-response","486","588098","0.0-6.0-2.88","","<div style=""font-size:60px;"">+</div>","null","","","","","","",""
"null","","image-keyboard-response","487","589608","0.0-6.0-0.89","","img/yellow.png","null","trial","null","true","0.2,0.8","2:nogo_b","",""
"null","","html-keyboard-response","488","590618","0.0-6.0-1.89","","<img src=""img/yellow-r.png"">","null","trial","null","","0.2,0.8","2:nogo_b","1",""
"null","","html-keyboard-response","489","591628","0.0-6.0-2.89","","<div style=""font-size:60px;"">+</div>","null","","","","","","",""
"828","","image-keyboard-response","490","592457","0.0-6.0-0.90","","img/blue.png","32","trial","null","false","0.2,0.8","4:nogo_d","",""
"null","","html-keyboard-response","491","593458","0.0-6.0-1.90","","<img src=""img/blue-n.png"" border=""10"">","null","trial","null","","0.2,0.8","4:nogo_d","0",""
"null","","html-keyboard-response","492","594468","0.0-6.0-2.90","","<div style=""font-size:60px;"">+</div>","null","","","","","","",""
"null","","image-keyboard-response","493","595969","0.0-6.0-0.91","","img/grey.png","null","trial","32","false","0.8,0.2","1:go_a","",""
"null","","html-keyboard-response","494","596979","0.0-6.0-1.91","","<img src=""img/grey-r.png"">","null","trial","32","","0.8,0.2","1:go_a","1",""
"null","","html-keyboard-response","495","597988","0.0-6.0-2.91","","<div style=""font-size:60px;"">+</div>","null","","","","","","",""
"826","","image-keyboard-response","496","598816","0.0-6.0-0.92","","img/green.png","32","trial","32","true","0.8,0.2","3:go_c","",""
"null","","html-keyboard-response","497","599819","0.0-6.0-1.92","","<img src=""img/green-r.png"" border=""10"">","null","trial","32","","0.8,0.2","3:go_c","1",""
"null","","html-keyboard-response","498","600829","0.0-6.0-2.92","","<div style=""font-size:60px;"">+</div>","null","","","","","","",""
"null","","image-keyboard-response","499","602339","0.0-6.0-0.93","","img/grey.png","null","trial","32","false","0.8,0.2","1:go_a","",""
"null","","html-keyboard-response","500","603348","0.0-6.0-1.93","","<img src=""img/grey-n.png"">","null","trial","32","","0.8,0.2","1:go_a","0",""
"null","","html-keyboard-response","501","604359","0.0-6.0-2.93","","<div style=""font-size:60px;"">+</div>","null","","","","","","",""
"null","","image-keyboard-response","502","605860","0.0-6.0-0.94","","img/yellow.png","null","trial","null","true","0.2,0.8","2:nogo_b","",""
"null","","html-keyboard-response","503","606869","0.0-6.0-1.94","","<img src=""img/yellow-n.png"">","null","trial","null","","0.2,0.8","2:nogo_b","0",""
"null","","html-keyboard-response","504","607879","0.0-6.0-2.94","","<div style=""font-size:60px;"">+</div>","null","","","","","","",""
"null","","image-keyboard-response","505","609389","0.0-6.0-0.95","","img/blue.png","null","trial","null","true","0.2,0.8","4:nogo_d","",""
"null","","html-keyboard-response","506","610400","0.0-6.0-1.95","","<img src=""img/blue-r.png"">","null","trial","null","","0.2,0.8","4:nogo_d","1",""
"null","","html-keyboard-response","507","611410","0.0-6.0-2.95","","<div style=""font-size:60px;"">+</div>","null","","","","","","",""
"null","","image-keyboard-response","508","612920","0.0-6.0-0.96","","img/grey.png","null","trial","32","false","0.8,0.2","1:go_a","",""
"null","","html-keyboard-response","509","613930","0.0-6.0-1.96","","<img src=""img/grey-n.png"">","null","trial","32","","0.8,0.2","1:go_a","0",""
"null","","html-keyboard-response","510","614930","0.0-6.0-2.96","","<div style=""font-size:60px;"">+</div>","null","","","","","","",""
"1028","","image-keyboard-response","511","615960","0.0-6.0-0.97","","img/blue.png","32","trial","null","false","0.2,0.8","4:nogo_d","",""
"null","","html-keyboard-response","512","616970","0.0-6.0-1.97","","<img src=""img/blue-n.png"" border=""10"">","null","trial","null","","0.2,0.8","4:nogo_d","0",""
"null","","html-keyboard-response","513","617980","0.0-6.0-2.97","","<div style=""font-size:60px;"">+</div>","null","","","","","","",""
"475","","image-keyboard-response","514","618456","0.0-6.0-0.98","","img/green.png","32","trial","32","true","0.8,0.2","3:go_c","",""
"null","","html-keyboard-response","515","619461","0.0-6.0-1.98","","<img src=""img/green-r.png"" border=""10"">","null","trial","32","","0.8,0.2","3:go_c","1",""
"null","","html-keyboard-response","516","620470","0.0-6.0-2.98","","<div style=""font-size:60px;"">+</div>","null","","","","","","",""
"560","","image-keyboard-response","517","621032","0.0-6.0-0.99","","img/yellow.png","32","trial","null","false","0.2,0.8","2:nogo_b","",""
"null","","html-keyboard-response","518","622041","0.0-6.0-1.99","","<img src=""img/yellow-n.png"" border=""10"">","null","trial","null","","0.2,0.8","2:nogo_b","0",""
"null","","html-keyboard-response","519","623050","0.0-6.0-2.99","","<div style=""font-size:60px;"">+</div>","null","","","","","","",""
"877","","image-keyboard-response","520","623928","0.0-6.0-0.100","","img/green.png","32","trial","32","true","0.8,0.2","3:go_c","",""
"null","","html-keyboard-response","521","624931","0.0-6.0-1.100","","<img src=""img/green-r.png"" border=""10"">","null","trial","32","","0.8,0.2","3:go_c","1",""
"null","","html-keyboard-response","522","625941","0.0-6.0-2.100","","<div style=""font-size:60px;"">+</div>","null","","","","","","",""
"null","","image-keyboard-response","523","627451","0.0-6.0-0.101","","img/yellow.png","null","trial","null","true","0.2,0.8","2:nogo_b","",""
"null","","html-keyboard-response","524","628461","0.0-6.0-1.101","","<img src=""img/yellow-r.png"">","null","trial","null","","0.2,0.8","2:nogo_b","1",""
"null","","html-keyboard-response","525","629471","0.0-6.0-2.101","","<div style=""font-size:60px;"">+</div>","null","","","","","","",""
"null","","image-keyboard-response","526","630981","0.0-6.0-0.102","","img/blue.png","null","trial","null","true","0.2,0.8","4:nogo_d","",""
"null","","html-keyboard-response","527","631991","0.0-6.0-1.102","","<img src=""img/blue-r.png"">","null","trial","null","","0.2,0.8","4:nogo_d","1",""
"null","","html-keyboard-response","528","632992","0.0-6.0-2.102","","<div style=""font-size:60px;"">+</div>","null","","","","","","",""
"null","","image-keyboard-response","529","634502","0.0-6.0-0.103","","img/grey.png","null","trial","32","false","0.8,0.2","1:go_a","",""
"null","","html-keyboard-response","530","635513","0.0-6.0-1.103","","<img src=""img/grey-r.png"">","null","trial","32","","0.8,0.2","1:go_a","1",""
"null","","html-keyboard-response","531","636522","0.0-6.0-2.103","","<div style=""font-size:60px;"">+</div>","null","","","","","","",""
"null","","image-keyboard-response","532","638032","0.0-6.0-0.104","","img/yellow.png","null","trial","null","true","0.2,0.8","2:nogo_b","",""
"null","","html-keyboard-response","533","639042","0.0-6.0-1.104","","<img src=""img/yellow-n.png"">","null","trial","null","","0.2,0.8","2:nogo_b","0",""
"null","","html-keyboard-response","534","640052","0.0-6.0-2.104","","<div style=""font-size:60px;"">+</div>","null","","","","","","",""
"null","","image-keyboard-response","535","641562","0.0-6.0-0.105","","img/blue.png","null","trial","null","true","0.2,0.8","4:nogo_d","",""
"null","","html-keyboard-response","536","642572","0.0-6.0-1.105","","<img src=""img/blue-r.png"">","null","trial","null","","0.2,0.8","4:nogo_d","1",""
"null","","html-keyboard-response","537","643573","0.0-6.0-2.105","","<div style=""font-size:60px;"">+</div>","null","","","","","","",""
"null","","image-keyboard-response","538","645083","0.0-6.0-0.106","","img/grey.png","null","trial","32","false","0.8,0.2","1:go_a","",""
"null","","html-keyboard-response","539","646093","0.0-6.0-1.106","","<img src=""img/grey-n.png"">","null","trial","32","","0.8,0.2","1:go_a","0",""
"null","","html-keyboard-response","540","647103","0.0-6.0-2.106","","<div style=""font-size:60px;"">+</div>","null","","","","","","",""
"752","","image-keyboard-response","541","647855","0.0-6.0-0.107","","img/green.png","32","trial","32","true","0.8,0.2","3:go_c","",""
"null","","html-keyboard-response","542","648863","0.0-6.0-1.107","","<img src=""img/green-r.png"" border=""10"">","null","trial","32","","0.8,0.2","3:go_c","1",""
"null","","html-keyboard-response","543","649873","0.0-6.0-2.107","","<div style=""font-size:60px;"">+</div>","null","","","","","","",""
"null","","image-keyboard-response","544","651383","0.0-6.0-0.108","","img/yellow.png","null","trial","null","true","0.2,0.8","2:nogo_b","",""
"null","","html-keyboard-response","545","652393","0.0-6.0-1.108","","<img src=""img/yellow-r.png"">","null","trial","null","","0.2,0.8","2:nogo_b","1",""
"null","","html-keyboard-response","546","653394","0.0-6.0-2.108","","<div style=""font-size:60px;"">+</div>","null","","","","","","",""
"1220","","image-keyboard-response","547","654615","0.0-6.0-0.109","","img/green.png","32","trial","32","true","0.8,0.2","3:go_c","",""
"null","","html-keyboard-response","548","655624","0.0-6.0-1.109","","<img src=""img/green-r.png"" border=""10"">","null","trial","32","","0.8,0.2","3:go_c","1",""
"null","","html-keyboard-response","549","656634","0.0-6.0-2.109","","<div style=""font-size:60px;"">+</div>","null","","","","","","",""
"null","","image-keyboard-response","550","658143","0.0-6.0-0.110","","img/blue.png","null","trial","null","true","0.2,0.8","4:nogo_d","",""
"null","","html-keyboard-response","551","659153","0.0-6.0-1.110","","<img src=""img/blue-n.png"">","null","trial","null","","0.2,0.8","4:nogo_d","0",""
"null","","html-keyboard-response","552","660164","0.0-6.0-2.110","","<div style=""font-size:60px;"">+</div>","null","","","","","","",""
"null","","image-keyboard-response","553","661674","0.0-6.0-0.111","","img/grey.png","null","trial","32","false","0.8,0.2","1:go_a","",""
"null","","html-keyboard-response","554","662685","0.0-6.0-1.111","","<img src=""img/grey-n.png"">","null","trial","32","","0.8,0.2","1:go_a","0",""
"null","","html-keyboard-response","555","663695","0.0-6.0-2.111","","<div style=""font-size:60px;"">+</div>","null","","","","","","",""
"1039","","image-keyboard-response","556","664735","0.0-6.0-0.112","","img/green.png","32","trial","32","true","0.8,0.2","3:go_c","",""
"null","","html-keyboard-response","557","665744","0.0-6.0-1.112","","<img src=""img/green-r.png"" border=""10"">","null","trial","32","","0.8,0.2","3:go_c","1",""
"null","","html-keyboard-response","558","666755","0.0-6.0-2.112","","<div style=""font-size:60px;"">+</div>","null","","","","","","",""
"null","","image-keyboard-response","559","668264","0.0-6.0-0.113","","img/blue.png","null","trial","null","true","0.2,0.8","4:nogo_d","",""
"null","","html-keyboard-response","560","669275","0.0-6.0-1.113","","<img src=""img/blue-r.png"">","null","trial","null","","0.2,0.8","4:nogo_d","1",""
"null","","html-keyboard-response","561","670284","0.0-6.0-2.113","","<div style=""font-size:60px;"">+</div>","null","","","","","","",""
"null","","image-keyboard-response","562","671794","0.0-6.0-0.114","","img/yellow.png","null","trial","null","true","0.2,0.8","2:nogo_b","",""
"null","","html-keyboard-response","563","672806","0.0-6.0-1.114","","<img src=""img/yellow-r.png"">","null","trial","null","","0.2,0.8","2:nogo_b","1",""
"null","","html-keyboard-response","564","673815","0.0-6.0-2.114","","<div style=""font-size:60px;"">+</div>","null","","","","","","",""
"null","","image-keyboard-response","565","675325","0.0-6.0-0.115","","img/grey.png","null","trial","32","false","0.8,0.2","1:go_a","",""
"null","","html-keyboard-response","566","676336","0.0-6.0-1.115","","<img src=""img/grey-n.png"">","null","trial","32","","0.8,0.2","1:go_a","0",""
"null","","html-keyboard-response","567","677346","0.0-6.0-2.115","","<div style=""font-size:60px;"">+</div>","null","","","","","","",""
"null","","image-keyboard-response","568","678855","0.0-6.0-0.116","","img/blue.png","null","trial","null","true","0.2,0.8","4:nogo_d","",""
"null","","html-keyboard-response","569","679866","0.0-6.0-1.116","","<img src=""img/blue-r.png"">","null","trial","null","","0.2,0.8","4:nogo_d","1",""
"null","","html-keyboard-response","570","680875","0.0-6.0-2.116","","<div style=""font-size:60px;"">+</div>","null","","","","","","",""
"null","","image-keyboard-response","571","682376","0.0-6.0-0.117","","img/grey.png","null","trial","32","false","0.8,0.2","1:go_a","",""
"null","","html-keyboard-response","572","683386","0.0-6.0-1.117","","<img src=""img/grey-n.png"">","null","trial","32","","0.8,0.2","1:go_a","0",""
"null","","html-keyboard-response","573","684396","0.0-6.0-2.117","","<div style=""font-size:60px;"">+</div>","null","","","","","","",""
"null","","image-keyboard-response","574","685906","0.0-6.0-0.118","","img/yellow.png","null","trial","null","true","0.2,0.8","2:nogo_b","",""
"null","","html-keyboard-response","575","686916","0.0-6.0-1.118","","<img src=""img/yellow-r.png"">","null","trial","null","","0.2,0.8","2:nogo_b","1",""
"null","","html-keyboard-response","576","687917","0.0-6.0-2.118","","<div style=""font-size:60px;"">+</div>","null","","","","","","",""
"416","","image-keyboard-response","577","688334","0.0-6.0-0.119","","img/green.png","32","trial","32","true","0.8,0.2","3:go_c","",""
"null","","html-keyboard-response","578","689337","0.0-6.0-1.119","","<img src=""img/green-r.png"" border=""10"">","null","trial","32","","0.8,0.2","3:go_c","1",""
"null","","html-keyboard-response","579","690347","0.0-6.0-2.119","","<div style=""font-size:60px;"">+</div>","null","","","","","","",""
"1801","","instructions","580","692148","0.0-7.0","[{""page_index"":0,""viewing_time"":1801}]","","","","","","","","",""
"null","","image-keyboard-response","581","693657","0.0-8.0-0.0","","img/yellow.png","null","trial","null","true","0.2,0.8","2:nogo_b","",""
"null","","html-keyboard-response","582","694667","0.0-8.0-1.0","","<img src=""img/yellow-r.png"">","null","trial","null","","0.2,0.8","2:nogo_b","1",""
"null","","html-keyboard-response","583","695677","0.0-8.0-2.0","","<div style=""font-size:60px;"">+</div>","null","","","","","","",""
"null","","image-keyboard-response","584","697178","0.0-8.0-0.1","","img/blue.png","null","trial","null","true","0.4,0.6","4:nogo_d","",""
"null","","html-keyboard-response","585","698188","0.0-8.0-1.1","","<img src=""img/blue-r.png"">","null","trial","null","","0.4,0.6","4:nogo_d","1",""
"null","","html-keyboard-response","586","699198","0.0-8.0-2.1","","<div style=""font-size:60px;"">+</div>","null","","","","","","",""
"1246","","image-keyboard-response","587","700445","0.0-8.0-0.2","","img/purple.png","32","trial","32","true","0.8,0.2","1:go_a","",""
"null","","html-keyboard-response","588","701448","0.0-8.0-1.2","","<img src=""img/purple-n.png"" border=""10"">","null","trial","32","","0.8,0.2","1:go_a","0",""
"null","","html-keyboard-response","589","702458","0.0-8.0-2.2","","<div style=""font-size:60px;"">+</div>","null","","","","","","",""
"818","","image-keyboard-response","590","703277","0.0-8.0-0.3","","img/red.png","32","trial","32","true","0.6,0.4","3:go_c","",""
"null","","html-keyboard-response","591","704288","0.0-8.0-1.3","","<img src=""img/red-r.png"" border=""10"">","null","trial","32","","0.6,0.4","3:go_c","1",""
"null","","html-keyboard-response","592","705297","0.0-8.0-2.3","","<div style=""font-size:60px;"">+</div>","null","","","","","","",""
"null","","image-keyboard-response","593","706799","0.0-8.0-0.4","","img/blue.png","null","trial","null","true","0.4,0.6","4:nogo_d","",""
"null","","html-keyboard-response","594","707809","0.0-8.0-1.4","","<img src=""img/blue-n.png"">","null","trial","null","","0.4,0.6","4:nogo_d","0",""
"null","","html-keyboard-response","595","708818","0.0-8.0-2.4","","<div style=""font-size:60px;"">+</div>","null","","","","","","",""
"738","","image-keyboard-response","596","709558","0.0-8.0-0.5","","img/red.png","32","trial","32","true","0.6,0.4","3:go_c","",""
"null","","html-keyboard-response","597","710559","0.0-8.0-1.5","","<img src=""img/red-r.png"" border=""10"">","null","trial","32","","0.6,0.4","3:go_c","1",""
"null","","html-keyboard-response","598","711569","0.0-8.0-2.5","","<div style=""font-size:60px;"">+</div>","null","","","","","","",""
"null","","image-keyboard-response","599","713079","0.0-8.0-0.6","","img/purple.png","null","trial","32","false","0.8,0.2","1:go_a","",""
"null","","html-keyboard-response","600","714088","0.0-8.0-1.6","","<img src=""img/purple-n.png"">","null","trial","32","","0.8,0.2","1:go_a","0",""
"null","","html-keyboard-response","601","715090","0.0-8.0-2.6","","<div style=""font-size:60px;"">+</div>","null","","","","","","",""
"843","","image-keyboard-response","602","715934","0.0-8.0-0.7","","img/yellow.png","32","trial","null","false","0.2,0.8","2:nogo_b","",""
"null","","html-keyboard-response","603","716940","0.0-8.0-1.7","","<img src=""img/yellow-n.png"" border=""10"">","null","trial","null","","0.2,0.8","2:nogo_b","0",""
"null","","html-keyboard-response","604","717950","0.0-8.0-2.7","","<div style=""font-size:60px;"">+</div>","null","","","","","","",""
"1223","","image-keyboard-response","605","719174","0.0-8.0-0.8","","img/red.png","32","trial","32","true","0.6,0.4","3:go_c","",""
"null","","html-keyboard-response","606","720180","0.0-8.0-1.8","","<img src=""img/red-n.png"" border=""10"">","null","trial","32","","0.6,0.4","3:go_c","0",""
"null","","html-keyboard-response","607","721190","0.0-8.0-2.8","","<div style=""font-size:60px;"">+</div>","null","","","","","","",""
"null","","image-keyboard-response","608","722700","0.0-8.0-0.9","","img/purple.png","null","trial","32","false","0.8,0.2","1:go_a","",""
"null","","html-keyboard-response","609","723709","0.0-8.0-1.9","","<img src=""img/purple-n.png"">","null","trial","32","","0.8,0.2","1:go_a","0",""
"null","","html-keyboard-response","610","724710","0.0-8.0-2.9","","<div style=""font-size:60px;"">+</div>","null","","","","","","",""
"null","","image-keyboard-response","611","726221","0.0-8.0-0.10","","img/yellow.png","null","trial","null","true","0.2,0.8","2:nogo_b","",""
"null","","html-keyboard-response","612","727231","0.0-8.0-1.10","","<img src=""img/yellow-n.png"">","null","trial","null","","0.2,0.8","2:nogo_b","0",""
"null","","html-keyboard-response","613","728241","0.0-8.0-2.10","","<div style=""font-size:60px;"">+</div>","null","","","","","","",""
"null","","image-keyboard-response","614","729750","0.0-8.0-0.11","","img/blue.png","null","trial","null","true","0.4,0.6","4:nogo_d","",""
"null","","html-keyboard-response","615","730760","0.0-8.0-1.11","","<img src=""img/blue-r.png"">","null","trial","null","","0.4,0.6","4:nogo_d","1",""
"null","","html-keyboard-response","616","731770","0.0-8.0-2.11","","<div style=""font-size:60px;"">+</div>","null","","","","","","",""
"881","","image-keyboard-response","617","732653","0.0-8.0-0.12","","img/red.png","32","trial","32","true","0.6,0.4","3:go_c","",""
"null","","html-keyboard-response","618","733661","0.0-8.0-1.12","","<img src=""img/red-n.png"" border=""10"">","null","trial","32","","0.6,0.4","3:go_c","0",""
"null","","html-keyboard-response","619","734671","0.0-8.0-2.12","","<div style=""font-size:60px;"">+</div>","null","","","","","","",""
"null","","image-keyboard-response","620","736181","0.0-8.0-0.13","","img/blue.png","null","trial","null","true","0.4,0.6","4:nogo_d","",""
"null","","html-keyboard-response","621","737191","0.0-8.0-1.13","","<img src=""img/blue-r.png"">","null","trial","null","","0.4,0.6","4:nogo_d","1",""
"null","","html-keyboard-response","622","738202","0.0-8.0-2.13","","<div style=""font-size:60px;"">+</div>","null","","","","","","",""
"null","","image-keyboard-response","623","739711","0.0-8.0-0.14","","img/purple.png","null","trial","32","false","0.8,0.2","1:go_a","",""
"null","","html-keyboard-response","624","740721","0.0-8.0-1.14","","<img src=""img/purple-n.png"">","null","trial","32","","0.8,0.2","1:go_a","0",""
"null","","html-keyboard-response","625","741731","0.0-8.0-2.14","","<div style=""font-size:60px;"">+</div>","null","","","","","","",""
"null","","image-keyboard-response","626","743232","0.0-8.0-0.15","","img/yellow.png","null","trial","null","true","0.2,0.8","2:nogo_b","",""
"null","","html-keyboard-response","627","744242","0.0-8.0-1.15","","<img src=""img/yellow-r.png"">","null","trial","null","","0.2,0.8","2:nogo_b","1",""
"null","","html-keyboard-response","628","745252","0.0-8.0-2.15","","<div style=""font-size:60px;"">+</div>","null","","","","","","",""
"null","","image-keyboard-response","629","746762","0.0-8.0-0.16","","img/yellow.png","null","trial","null","true","0.2,0.8","2:nogo_b","",""
"null","","html-keyboard-response","630","747772","0.0-8.0-1.16","","<img src=""img/yellow-r.png"">","null","trial","null","","0.2,0.8","2:nogo_b","1",""
"null","","html-keyboard-response","631","748781","0.0-8.0-2.16","","<div style=""font-size:60px;"">+</div>","null","","","","","","",""
"null","","image-keyboard-response","632","750292","0.0-8.0-0.17","","img/blue.png","null","trial","null","true","0.4,0.6","4:nogo_d","",""
"null","","html-keyboard-response","633","751302","0.0-8.0-1.17","","<img src=""img/blue-n.png"">","null","trial","null","","0.4,0.6","4:nogo_d","0",""
"null","","html-keyboard-response","634","752312","0.0-8.0-2.17","","<div style=""font-size:60px;"">+</div>","null","","","","","","",""
"null","","image-keyboard-response","635","753813","0.0-8.0-0.18","","img/purple.png","null","trial","32","false","0.8,0.2","1:go_a","",""
"null","","html-keyboard-response","636","754823","0.0-8.0-1.18","","<img src=""img/purple-n.png"">","null","trial","32","","0.8,0.2","1:go_a","0",""
"null","","html-keyboard-response","637","755833","0.0-8.0-2.18","","<div style=""font-size:60px;"">+</div>","null","","","","","","",""
"459","","image-keyboard-response","638","756292","0.0-8.0-0.19","","img/red.png","32","trial","32","true","0.6,0.4","3:go_c","",""
"null","","html-keyboard-response","639","757303","0.0-8.0-1.19","","<img src=""img/red-r.png"" border=""10"">","null","trial","32","","0.6,0.4","3:go_c","1",""
"null","","html-keyboard-response","640","758312","0.0-8.0-2.19","","<div style=""font-size:60px;"">+</div>","null","","","","","","",""
"null","","image-keyboard-response","641","759823","0.0-8.0-0.20","","img/blue.png","null","trial","null","true","0.4,0.6","4:nogo_d","",""
"null","","html-keyboard-response","642","760833","0.0-8.0-1.20","","<img src=""img/blue-n.png"">","null","trial","null","","0.4,0.6","4:nogo_d","0",""
"null","","html-keyboard-response","643","761842","0.0-8.0-2.20","","<div style=""font-size:60px;"">+</div>","null","","","","","","",""
"null","","image-keyboard-response","644","763344","0.0-8.0-0.21","","img/purple.png","null","trial","32","false","0.8,0.2","1:go_a","",""
"null","","html-keyboard-response","645","764353","0.0-8.0-1.21","","<img src=""img/purple-n.png"">","null","trial","32","","0.8,0.2","1:go_a","0",""
"null","","html-keyboard-response","646","765363","0.0-8.0-2.21","","<div style=""font-size:60px;"">+</div>","null","","","","","","",""
"928","","image-keyboard-response","647","766292","0.0-8.0-0.22","","img/yellow.png","32","trial","null","false","0.2,0.8","2:nogo_b","",""
"null","","html-keyboard-response","648","767295","0.0-8.0-1.22","","<img src=""img/yellow-n.png"" border=""10"">","null","trial","null","","0.2,0.8","2:nogo_b","0",""
"null","","html-keyboard-response","649","768305","0.0-8.0-2.22","","<div style=""font-size:60px;"">+</div>","null","","","","","","",""
"995","","image-keyboard-response","650","769299","0.0-8.0-0.23","","img/red.png","32","trial","32","true","0.6,0.4","3:go_c","",""
"null","","html-keyboard-response","651","770305","0.0-8.0-1.23","","<img src=""img/red-n.png"" border=""10"">","null","trial","32","","0.6,0.4","3:go_c","0",""
"null","","html-keyboard-response","652","771314","0.0-8.0-2.23","","<div style=""font-size:60px;"">+</div>","null","","","","","","",""
"null","","image-keyboard-response","653","772824","0.0-8.0-0.24","","img/blue.png","null","trial","null","true","0.4,0.6","4:nogo_d","",""
"null","","html-keyboard-response","654","773835","0.0-8.0-1.24","","<img src=""img/blue-r.png"">","null","trial","null","","0.4,0.6","4:nogo_d","1",""
"null","","html-keyboard-response","655","774844","0.0-8.0-2.24","","<div style=""font-size:60px;"">+</div>","null","","","","","","",""
"1462","","image-keyboard-response","656","776308","0.0-8.0-0.25","","img/red.png","32","trial","32","true","0.6,0.4","3:go_c","",""
"null","","html-keyboard-response","657","777315","0.0-8.0-1.25","","<img src=""img/red-n.png"" border=""10"">","null","trial","32","","0.6,0.4","3:go_c","0",""
"null","","html-keyboard-response","658","778325","0.0-8.0-2.25","","<div style=""font-size:60px;"">+</div>","null","","","","","","",""
"null","","image-keyboard-response","659","779835","0.0-8.0-0.26","","img/purple.png","null","trial","32","false","0.8,0.2","1:go_a","",""
"null","","html-keyboard-response","660","780845","0.0-8.0-1.26","","<img src=""img/purple-r.png"">","null","trial","32","","0.8,0.2","1:go_a","1",""
"null","","html-keyboard-response","661","781855","0.0-8.0-2.26","","<div style=""font-size:60px;"">+</div>","null","","","","","","",""
"null","","image-keyboard-response","662","783366","0.0-8.0-0.27","","img/yellow.png","null","trial","null","true","0.2,0.8","2:nogo_b","",""
"null","","html-keyboard-response","663","784375","0.0-8.0-1.27","","<img src=""img/yellow-r.png"">","null","trial","null","","0.2,0.8","2:nogo_b","1",""
"null","","html-keyboard-response","664","785376","0.0-8.0-2.27","","<div style=""font-size:60px;"">+</div>","null","","","","","","",""
"null","","image-keyboard-response","665","786886","0.0-8.0-0.28","","img/purple.png","null","trial","32","false","0.8,0.2","1:go_a","",""
"null","","html-keyboard-response","666","787896","0.0-8.0-1.28","","<img src=""img/purple-r.png"">","null","trial","32","","0.8,0.2","1:go_a","1",""
"null","","html-keyboard-response","667","788906","0.0-8.0-2.28","","<div style=""font-size:60px;"">+</div>","null","","","","","","",""
"null","","image-keyboard-response","668","790416","0.0-8.0-0.29","","img/yellow.png","null","trial","null","true","0.2,0.8","2:nogo_b","",""
"null","","html-keyboard-response","669","791426","0.0-8.0-1.29","","<img src=""img/yellow-r.png"">","null","trial","null","","0.2,0.8","2:nogo_b","1",""
"null","","html-keyboard-response","670","792436","0.0-8.0-2.29","","<div style=""font-size:60px;"">+</div>","null","","","","","","",""
"742","","image-keyboard-response","671","793180","0.0-8.0-0.30","","img/red.png","32","trial","32","true","0.6,0.4","3:go_c","",""
"null","","html-keyboard-response","672","794187","0.0-8.0-1.30","","<img src=""img/red-r.png"" border=""10"">","null","trial","32","","0.6,0.4","3:go_c","1",""
"null","","html-keyboard-response","673","795197","0.0-8.0-2.30","","<div style=""font-size:60px;"">+</div>","null","","","","","","",""
"null","","image-keyboard-response","674","796706","0.0-8.0-0.31","","img/blue.png","null","trial","null","true","0.4,0.6","4:nogo_d","",""
"null","","html-keyboard-response","675","797716","0.0-8.0-1.31","","<img src=""img/blue-n.png"">","null","trial","null","","0.4,0.6","4:nogo_d","0",""
"null","","html-keyboard-response","676","798727","0.0-8.0-2.31","","<div style=""font-size:60px;"">+</div>","null","","","","","","",""
"1210","","image-keyboard-response","677","799939","0.0-8.0-0.32","","img/red.png","32","trial","32","true","0.6,0.4","3:go_c","",""
"null","","html-keyboard-response","678","800947","0.0-8.0-1.32","","<img src=""img/red-n.png"" border=""10"">","null","trial","32","","0.6,0.4","3:go_c","0",""
"null","","html-keyboard-response","679","801957","0.0-8.0-2.32","","<div style=""font-size:60px;"">+</div>","null","","","","","","",""
"null","","image-keyboard-response","680","803458","0.0-8.0-0.33","","img/blue.png","null","trial","null","true","0.4,0.6","4:nogo_d","",""
"null","","html-keyboard-response","681","804468","0.0-8.0-1.33","","<img src=""img/blue-n.png"">","null","trial","null","","0.4,0.6","4:nogo_d","0",""
"null","","html-keyboard-response","682","805478","0.0-8.0-2.33","","<div style=""font-size:60px;"">+</div>","null","","","","","","",""
"null","","image-keyboard-response","683","806988","0.0-8.0-0.34","","img/purple.png","null","trial","32","false","0.8,0.2","1:go_a","",""
"null","","html-keyboard-response","684","807997","0.0-8.0-1.34","","<img src=""img/purple-r.png"">","null","trial","32","","0.8,0.2","1:go_a","1",""
"null","","html-keyboard-response","685","809008","0.0-8.0-2.34","","<div style=""font-size:60px;"">+</div>","null","","","","","","",""
"1082","","image-keyboard-response","686","810090","0.0-8.0-0.35","","img/yellow.png","32","trial","null","false","0.2,0.8","2:nogo_b","",""
"null","","html-keyboard-response","687","811098","0.0-8.0-1.35","","<img src=""img/yellow-n.png"" border=""10"">","null","trial","null","","0.2,0.8","2:nogo_b","0",""
"null","","html-keyboard-response","688","812107","0.0-8.0-2.35","","<div style=""font-size:60px;"">+</div>","null","","","","","","",""
"null","","image-keyboard-response","689","813608","0.0-8.0-0.36","","img/blue.png","null","trial","null","true","0.4,0.6","4:nogo_d","",""
"null","","html-keyboard-response","690","814619","0.0-8.0-1.36","","<img src=""img/blue-n.png"">","null","trial","null","","0.4,0.6","4:nogo_d","0",""
"null","","html-keyboard-response","691","815629","0.0-8.0-2.36","","<div style=""font-size:60px;"">+</div>","null","","","","","","",""
"1116","","image-keyboard-response","692","816746","0.0-8.0-0.37","","img/red.png","32","trial","32","true","0.6,0.4","3:go_c","",""
"null","","html-keyboard-response","693","817748","0.0-8.0-1.37","","<img src=""img/red-r.png"" border=""10"">","null","trial","32","","0.6,0.4","3:go_c","1",""
"null","","html-keyboard-response","694","818759","0.0-8.0-2.37","","<div style=""font-size:60px;"">+</div>","null","","","","","","",""
"null","","image-keyboard-response","695","820269","0.0-8.0-0.38","","img/purple.png","null","trial","32","false","0.8,0.2","1:go_a","",""
