"rt","url","trial_type","trial_index","time_elapsed","internal_node_id","view_history","stimulus","key_press","test_part","correct_response","correct","use_rew","which_stim","reward","responses"
"11486.045000026934","consent.html","external-html","0","11539","0.0-0.0","","","","","","","","","",""
"95754.8250000691","","instructions","1","107295","0.0-1.0","[{""page_index"":0,""viewing_time"":7481.875000055879},{""page_index"":1,""viewing_time"":28272.219999926165},{""page_index"":2,""viewing_time"":7458.180000074208},{""page_index"":3,""viewing_time"":22070.91499993112},{""page_index"":4,""viewing_time"":11369.130000006407},{""page_index"":5,""viewing_time"":5412.265000049956},{""page_index"":6,""viewing_time"":13689.56500000786}]","","","","","","","","",""
"989.7450000280514","","image-keyboard-response","2","108286","0.0-2.0-0.0","","img/test1.PNG","32","practice","32","true","","","",""
"null","","html-keyboard-response","3","109293","0.0-2.0-1.0","","<img src=""img/test1-reward.PNG"" border=""10px; grey"">","null","","","","","","",""
"null","","html-keyboard-response","4","110297","0.0-2.0-2.0","","<div style=""font-size:60px;"">+</div>","null","","","","","","",""
"null","","image-keyboard-response","5","111812","0.0-2.0-0.1","","img/test3.PNG","null","practice","null","true","","","",""
"null","","html-keyboard-response","6","112825","0.0-2.0-1.1","","<img src=""img/test3-reward.PNG"">","null","","","","","","",""
"null","","html-keyboard-response","7","113839","0.0-2.0-2.1","","<div style=""font-size:60px;"">+</div>","null","","","","","","",""
"null","","image-keyboard-response","8","115340","0.0-2.0-0.2","","img/test2.PNG","null","practice","null","true","","","",""
"null","","html-keyboard-response","9","116355","0.0-2.0-1.2","","<img src=""img/test2-reward.PNG"">","null","","","","","","",""
"null","","html-keyboard-response","10","117370","0.0-2.0-2.2","","<div style=""font-size:60px;"">+</div>","null","","","","","","",""
"1331.0749999945983","","image-keyboard-response","11","118702","0.0-2.0-0.3","","img/test3.PNG","32","practice","null","false","","","",""
"null","","html-keyboard-response","12","119714","0.0-2.0-1.3","","<img src=""img/test3-neutral.PNG"" border=""10px; grey"">","null","","","","","","",""
"null","","html-keyboard-response","13","120727","0.0-2.0-2.3","","<div style=""font-size:60px;"">+</div>","null","","","","","","",""
"499.00999991223216","","image-keyboard-response","14","121227","0.0-2.0-0.4","","img/test2.PNG","32","practice","null","false","","","",""
"null","","html-keyboard-response","15","122237","0.0-2.0-1.4","","<img src=""img/test2-neutral.PNG"" border=""10px; grey"">","null","","","","","","",""
"null","","html-keyboard-response","16","123252","0.0-2.0-2.4","","<div style=""font-size:60px;"">+</div>","null","","","","","","",""
"497.5950000807643","","image-keyboard-response","17","123750","0.0-2.0-0.5","","img/test1.PNG","32","practice","32","true","","","",""
"null","","html-keyboard-response","18","124764","0.0-2.0-1.5","","<img src=""img/test1-reward.PNG"" border=""10px; grey"">","null","","","","","","",""
"null","","html-keyboard-response","19","125774","0.0-2.0-2.5","","<div style=""font-size:60px;"">+</div>","null","","","","","","",""
"null","","image-keyboard-response","20","127283","0.0-2.0-0.6","","img/test2.PNG","null","practice","null","true","","","",""
"null","","html-keyboard-response","21","128292","0.0-2.0-1.6","","<img src=""img/test2-reward.PNG"">","null","","","","","","",""
"null","","html-keyboard-response","22","129308","0.0-2.0-2.6","","<div style=""font-size:60px;"">+</div>","null","","","","","","",""
"null","","image-keyboard-response","23","130819","0.0-2.0-0.7","","img/test3.PNG","null","practice","null","true","","","",""
"null","","html-keyboard-response","24","131836","0.0-2.0-1.7","","<img src=""img/test3-reward.PNG"">","null","","","","","","",""
"null","","html-keyboard-response","25","132848","0.0-2.0-2.7","","<div style=""font-size:60px;"">+</div>","null","","","","","","",""
"531.5849999897182","","image-keyboard-response","26","133381","0.0-2.0-0.8","","img/test1.PNG","32","practice","32","true","","","",""
"null","","html-keyboard-response","27","134389","0.0-2.0-1.8","","<img src=""img/test1-reward.PNG"" border=""10px; grey"">","null","","","","","","",""
"null","","html-keyboard-response","28","135389","0.0-2.0-2.8","","<div style=""font-size:60px;"">+</div>","null","","","","","","",""
"null","","image-keyboard-response","29","136901","0.0-2.0-0.9","","img/test1.PNG","null","practice","32","false","","","",""
"null","","html-keyboard-response","30","137914","0.0-2.0-1.9","","<img src=""img/test1-neutral.PNG"">","null","","","","","","",""
"null","","html-keyboard-response","31","138915","0.0-2.0-2.9","","<div style=""font-size:60px;"">+</div>","null","","","","","","",""
"null","","image-keyboard-response","32","140419","0.0-2.0-0.10","","img/test3.PNG","null","practice","null","true","","","",""
"null","","html-keyboard-response","33","141431","0.0-2.0-1.10","","<img src=""img/test3-reward.PNG"">","null","","","","","","",""
"null","","html-keyboard-response","34","142441","0.0-2.0-2.10","","<div style=""font-size:60px;"">+</div>","null","","","","","","",""
"1086.0450000036508","","image-keyboard-response","35","143528","0.0-2.0-0.11","","img/test2.PNG","32","practice","null","false","","","",""
"null","","html-keyboard-response","36","144529","0.0-2.0-1.11","","<img src=""img/test2-neutral.PNG"" border=""10px; grey"">","null","","","","","","",""
"null","","html-keyboard-response","37","145538","0.0-2.0-2.11","","<div style=""font-size:60px;"">+</div>","null","","","","","","",""
"5275.809999904595","","instructions","38","150814","0.0-3.0","[{""page_index"":0,""viewing_time"":5275.619999971241}]","","","","","","","","",""
"1029.7150000697002","","image-keyboard-response","39","151845","0.0-4.0-0.0","","img/pink.png","32","trial","null","false","0.2,0.8","2:nogo_b","",""
"null","","html-keyboard-response","40","152850","0.0-4.0-1.0","","<img src=""img/pink-n.png"" border=""10"">","null","trial","null","","0.2,0.8","2:nogo_b","0",""
"null","","html-keyboard-response","41","153865","0.0-4.0-2.0","","<div style=""font-size:60px;"">+</div>","null","","","","","","",""
"1029.785000020638","","image-keyboard-response","42","154896","0.0-4.0-0.1","","img/orange.png","32","trial","32","true","0.8,0.2","1:go_a","",""
"null","","html-keyboard-response","43","155903","0.0-4.0-1.1","","<img src=""img/orange-r.png"" border=""10"">","null","trial","32","","0.8,0.2","1:go_a","1",""
"null","","html-keyboard-response","44","156907","0.0-4.0-2.1","","<div style=""font-size:60px;"">+</div>","null","","","","","","",""
"null","","image-keyboard-response","45","158415","0.0-4.0-0.2","","img/pink.png","null","trial","null","true","0.2,0.8","2:nogo_b","",""
"null","","html-keyboard-response","46","159431","0.0-4.0-1.2","","<img src=""img/pink-r.png"">","null","trial","null","","0.2,0.8","2:nogo_b","1",""
"null","","html-keyboard-response","47","160432","0.0-4.0-2.2","","<div style=""font-size:60px;"">+</div>","null","","","","","","",""
"565.0250000180677","","image-keyboard-response","48","160998","0.0-4.0-0.3","","img/orange.png","32","trial","32","true","0.8,0.2","1:go_a","",""
"null","","html-keyboard-response","49","162007","0.0-4.0-1.3","","<img src=""img/orange-n.png"" border=""10"">","null","trial","32","","0.8,0.2","1:go_a","0",""
"null","","html-keyboard-response","50","163018","0.0-4.0-2.3","","<div style=""font-size:60px;"">+</div>","null","","","","","","",""
"1259.7150000510737","","image-keyboard-response","51","164279","0.0-4.0-0.4","","img/orange.png","32","trial","32","true","0.8,0.2","1:go_a","",""
"null","","html-keyboard-response","52","165286","0.0-4.0-1.4","","<img src=""img/orange-r.png"" border=""10"">","null","trial","32","","0.8,0.2","1:go_a","1",""
"null","","html-keyboard-response","53","166303","0.0-4.0-2.4","","<div style=""font-size:60px;"">+</div>","null","","","","","","",""
"1094.355000066571","","image-keyboard-response","54","167398","0.0-4.0-0.5","","img/pink.png","32","trial","null","false","0.2,0.8","2:nogo_b","",""
"null","","html-keyboard-response","55","168400","0.0-4.0-1.5","","<img src=""img/pink-n.png"" border=""10"">","null","trial","null","","0.2,0.8","2:nogo_b","0",""
"null","","html-keyboard-response","56","169415","0.0-4.0-2.5","","<div style=""font-size:60px;"">+</div>","null","","","","","","",""
"1152.6600000215694","","image-keyboard-response","57","170568","0.0-4.0-0.6","","img/orange.png","32","trial","32","true","0.8,0.2","1:go_a","",""
"null","","html-keyboard-response","58","171583","0.0-4.0-1.6","","<img src=""img/orange-r.png"" border=""10"">","null","trial","32","","0.8,0.2","1:go_a","1",""
"null","","html-keyboard-response","59","172596","0.0-4.0-2.6","","<div style=""font-size:60px;"">+</div>","null","","","","","","",""
"null","","image-keyboard-response","60","174098","0.0-4.0-0.7","","img/pink.png","null","trial","null","true","0.2,0.8","2:nogo_b","",""
"null","","html-keyboard-response","61","175109","0.0-4.0-1.7","","<img src=""img/pink-r.png"">","null","trial","null","","0.2,0.8","2:nogo_b","1",""
"null","","html-keyboard-response","62","176122","0.0-4.0-2.7","","<div style=""font-size:60px;"">+</div>","null","","","","","","",""
"437.44500004686415","","image-keyboard-response","63","176560","0.0-4.0-0.8","","img/orange.png","32","trial","32","true","0.8,0.2","1:go_a","",""
"null","","html-keyboard-response","64","177574","0.0-4.0-1.8","","<img src=""img/orange-r.png"" border=""10"">","null","trial","32","","0.8,0.2","1:go_a","1",""
"null","","html-keyboard-response","65","178586","0.0-4.0-2.8","","<div style=""font-size:60px;"">+</div>","null","","","","","","",""
"null","","image-keyboard-response","66","180087","0.0-4.0-0.9","","img/pink.png","null","trial","null","true","0.2,0.8","2:nogo_b","",""
"null","","html-keyboard-response","67","181097","0.0-4.0-1.9","","<img src=""img/pink-r.png"">","null","trial","null","","0.2,0.8","2:nogo_b","1",""
"null","","html-keyboard-response","68","182110","0.0-4.0-2.9","","<div style=""font-size:60px;"">+</div>","null","","","","","","",""
"null","","image-keyboard-response","69","183618","0.0-4.0-0.10","","img/pink.png","null","trial","null","true","0.2,0.8","2:nogo_b","",""
"null","","html-keyboard-response","70","184624","0.0-4.0-1.10","","<img src=""img/pink-n.png"">","null","trial","null","","0.2,0.8","2:nogo_b","0",""
"null","","html-keyboard-response","71","185634","0.0-4.0-2.10","","<div style=""font-size:60px;"">+</div>","null","","","","","","",""
"584.5099999569356","","image-keyboard-response","72","186219","0.0-4.0-0.11","","img/orange.png","32","trial","32","true","0.8,0.2","1:go_a","",""
"null","","html-keyboard-response","73","187226","0.0-4.0-1.11","","<img src=""img/orange-r.png"" border=""10"">","null","trial","32","","0.8,0.2","1:go_a","1",""
"null","","html-keyboard-response","74","188235","0.0-4.0-2.11","","<div style=""font-size:60px;"">+</div>","null","","","","","","",""
"684.1800000984222","","image-keyboard-response","75","188920","0.0-4.0-0.12","","img/orange.png","32","trial","32","true","0.8,0.2","1:go_a","",""
"null","","html-keyboard-response","76","189931","0.0-4.0-1.12","","<img src=""img/orange-r.png"" border=""10"">","null","trial","32","","0.8,0.2","1:go_a","1",""
"null","","html-keyboard-response","77","190933","0.0-4.0-2.12","","<div style=""font-size:60px;"">+</div>","null","","","","","","",""
"null","","image-keyboard-response","78","192445","0.0-4.0-0.13","","img/pink.png","null","trial","null","true","0.2,0.8","2:nogo_b","",""
"null","","html-keyboard-response","79","193458","0.0-4.0-1.13","","<img src=""img/pink-r.png"">","null","trial","null","","0.2,0.8","2:nogo_b","1",""
"null","","html-keyboard-response","80","194468","0.0-4.0-2.13","","<div style=""font-size:60px;"">+</div>","null","","","","","","",""
"null","","image-keyboard-response","81","195982","0.0-4.0-0.14","","img/pink.png","null","trial","null","true","0.2,0.8","2:nogo_b","",""
"null","","html-keyboard-response","82","196996","0.0-4.0-1.14","","<img src=""img/pink-r.png"">","null","trial","null","","0.2,0.8","2:nogo_b","1",""
"null","","html-keyboard-response","83","198010","0.0-4.0-2.14","","<div style=""font-size:60px;"">+</div>","null","","","","","","",""
"1122.7099999086931","","image-keyboard-response","84","199134","0.0-4.0-0.15","","img/orange.png","32","trial","32","true","0.8,0.2","1:go_a","",""
"null","","html-keyboard-response","85","200137","0.0-4.0-1.15","","<img src=""img/orange-r.png"" border=""10"">","null","trial","32","","0.8,0.2","1:go_a","1",""
"null","","html-keyboard-response","86","201148","0.0-4.0-2.15","","<div style=""font-size:60px;"">+</div>","null","","","","","","",""
"610.7550000306219","","image-keyboard-response","87","201759","0.0-4.0-0.16","","img/orange.png","32","trial","32","true","0.8,0.2","1:go_a","",""
"null","","html-keyboard-response","88","202775","0.0-4.0-1.16","","<img src=""img/orange-n.png"" border=""10"">","null","trial","32","","0.8,0.2","1:go_a","0",""
"null","","html-keyboard-response","89","203781","0.0-4.0-2.16","","<div style=""font-size:60px;"">+</div>","null","","","","","","",""
"568.9349999884143","","image-keyboard-response","90","204350","0.0-4.0-0.17","","img/pink.png","32","trial","null","false","0.2,0.8","2:nogo_b","",""
"null","","html-keyboard-response","91","205358","0.0-4.0-1.17","","<img src=""img/pink-r.png"" border=""10"">","null","trial","null","","0.2,0.8","2:nogo_b","1",""
"null","","html-keyboard-response","92","206369","0.0-4.0-2.17","","<div style=""font-size:60px;"">+</div>","null","","","","","","",""
"609.7700000973418","","image-keyboard-response","93","206979","0.0-4.0-0.18","","img/orange.png","32","trial","32","true","0.8,0.2","1:go_a","",""
"null","","html-keyboard-response","94","207986","0.0-4.0-1.18","","<img src=""img/orange-n.png"" border=""10"">","null","trial","32","","0.8,0.2","1:go_a","0",""
"null","","html-keyboard-response","95","209000","0.0-4.0-2.18","","<div style=""font-size:60px;"">+</div>","null","","","","","","",""
"null","","image-keyboard-response","96","210514","0.0-4.0-0.19","","img/pink.png","null","trial","null","true","0.2,0.8","2:nogo_b","",""
"null","","html-keyboard-response","97","211527","0.0-4.0-1.19","","<img src=""img/pink-r.png"">","null","trial","null","","0.2,0.8","2:nogo_b","1",""
"null","","html-keyboard-response","98","212540","0.0-4.0-2.19","","<div style=""font-size:60px;"">+</div>","null","","","","","","",""
"null","","image-keyboard-response","99","214050","0.0-4.0-0.20","","img/pink.png","null","trial","null","true","0.2,0.8","2:nogo_b","",""
"null","","html-keyboard-response","100","215052","0.0-4.0-1.20","","<img src=""img/pink-r.png"">","null","trial","null","","0.2,0.8","2:nogo_b","1",""
"null","","html-keyboard-response","101","216063","0.0-4.0-2.20","","<div style=""font-size:60px;"">+</div>","null","","","","","","",""
"528.6949999863282","","image-keyboard-response","102","216592","0.0-4.0-0.21","","img/orange.png","32","trial","32","true","0.8,0.2","1:go_a","",""
"null","","html-keyboard-response","103","217603","0.0-4.0-1.21","","<img src=""img/orange-n.png"" border=""10"">","null","trial","32","","0.8,0.2","1:go_a","0",""
"null","","html-keyboard-response","104","218604","0.0-4.0-2.21","","<div style=""font-size:60px;"">+</div>","null","","","","","","",""
"null","","image-keyboard-response","105","220108","0.0-4.0-0.22","","img/pink.png","null","trial","null","true","0.2,0.8","2:nogo_b","",""
"null","","html-keyboard-response","106","221121","0.0-4.0-1.22","","<img src=""img/pink-r.png"">","null","trial","null","","0.2,0.8","2:nogo_b","1",""
"null","","html-keyboard-response","107","222133","0.0-4.0-2.22","","<div style=""font-size:60px;"">+</div>","null","","","","","","",""
"586.5100000519305","","image-keyboard-response","108","222721","0.0-4.0-0.23","","img/orange.png","32","trial","32","true","0.8,0.2","1:go_a","",""
"null","","html-keyboard-response","109","223725","0.0-4.0-1.23","","<img src=""img/orange-n.png"" border=""10"">","null","trial","32","","0.8,0.2","1:go_a","0",""
"null","","html-keyboard-response","110","224737","0.0-4.0-2.23","","<div style=""font-size:60px;"">+</div>","null","","","","","","",""
"493.5599999735132","","image-keyboard-response","111","225231","0.0-4.0-0.24","","img/orange.png","32","trial","32","true","0.8,0.2","1:go_a","",""
"null","","html-keyboard-response","112","226239","0.0-4.0-1.24","","<img src=""img/orange-r.png"" border=""10"">","null","trial","32","","0.8,0.2","1:go_a","1",""
"null","","html-keyboard-response","113","227247","0.0-4.0-2.24","","<div style=""font-size:60px;"">+</div>","null","","","","","","",""
"614.6099999314174","","image-keyboard-response","114","227862","0.0-4.0-0.25","","img/pink.png","32","trial","null","false","0.2,0.8","2:nogo_b","",""
"null","","html-keyboard-response","115","228866","0.0-4.0-1.25","","<img src=""img/pink-n.png"" border=""10"">","null","trial","null","","0.2,0.8","2:nogo_b","0",""
"null","","html-keyboard-response","116","229869","0.0-4.0-2.25","","<div style=""font-size:60px;"">+</div>","null","","","","","","",""
"830.6700000539422","","image-keyboard-response","117","230700","0.0-4.0-0.26","","img/orange.png","32","trial","32","true","0.8,0.2","1:go_a","",""
"null","","html-keyboard-response","118","231711","0.0-4.0-1.26","","<img src=""img/orange-r.png"" border=""10"">","null","trial","32","","0.8,0.2","1:go_a","1",""
"null","","html-keyboard-response","119","232715","0.0-4.0-2.26","","<div style=""font-size:60px;"">+</div>","null","","","","","","",""
"422.67500003799796","","image-keyboard-response","120","233138","0.0-4.0-0.27","","img/pink.png","32","trial","null","false","0.2,0.8","2:nogo_b","",""
"null","","html-keyboard-response","121","234149","0.0-4.0-1.27","","<img src=""img/pink-r.png"" border=""10"">","null","trial","null","","0.2,0.8","2:nogo_b","1",""
"null","","html-keyboard-response","122","235149","0.0-4.0-2.27","","<div style=""font-size:60px;"">+</div>","null","","","","","","",""
"566.7250000406057","","image-keyboard-response","123","235717","0.0-4.0-0.28","","img/orange.png","32","trial","32","true","0.8,0.2","1:go_a","",""
"null","","html-keyboard-response","124","236727","0.0-4.0-1.28","","<img src=""img/orange-r.png"" border=""10"">","null","trial","32","","0.8,0.2","1:go_a","1",""
"null","","html-keyboard-response","125","237742","0.0-4.0-2.28","","<div style=""font-size:60px;"">+</div>","null","","","","","","",""
"503.8199999835342","","image-keyboard-response","126","238247","0.0-4.0-0.29","","img/pink.png","32","trial","null","false","0.2,0.8","2:nogo_b","",""
"null","","html-keyboard-response","127","239252","0.0-4.0-1.29","","<img src=""img/pink-n.png"" border=""10"">","null","trial","null","","0.2,0.8","2:nogo_b","0",""
"null","","html-keyboard-response","128","240261","0.0-4.0-2.29","","<div style=""font-size:60px;"">+</div>","null","","","","","","",""
"974.61499995552","","image-keyboard-response","129","241237","0.0-4.0-0.30","","img/pink.png","32","trial","null","false","0.2,0.8","2:nogo_b","",""
"null","","html-keyboard-response","130","242240","0.0-4.0-1.30","","<img src=""img/pink-n.png"" border=""10"">","null","trial","null","","0.2,0.8","2:nogo_b","0",""
"null","","html-keyboard-response","131","243251","0.0-4.0-2.30","","<div style=""font-size:60px;"">+</div>","null","","","","","","",""
"607.2400000412017","","image-keyboard-response","132","243859","0.0-4.0-0.31","","img/orange.png","32","trial","32","true","0.8,0.2","1:go_a","",""
"null","","html-keyboard-response","133","244868","0.0-4.0-1.31","","<img src=""img/orange-r.png"" border=""10"">","null","trial","32","","0.8,0.2","1:go_a","1",""
"null","","html-keyboard-response","134","245876","0.0-4.0-2.31","","<div style=""font-size:60px;"">+</div>","null","","","","","","",""
"null","","image-keyboard-response","135","247390","0.0-4.0-0.32","","img/orange.png","null","trial","32","false","0.8,0.2","1:go_a","",""
"null","","html-keyboard-response","136","248405","0.0-4.0-1.32","","<img src=""img/orange-n.png"">","null","trial","32","","0.8,0.2","1:go_a","0",""
"null","","html-keyboard-response","137","249420","0.0-4.0-2.32","","<div style=""font-size:60px;"">+</div>","null","","","","","","",""
"764.3799999495968","","image-keyboard-response","138","250185","0.0-4.0-0.33","","img/pink.png","32","trial","null","false","0.2,0.8","2:nogo_b","",""
"null","","html-keyboard-response","139","251199","0.0-4.0-1.33","","<img src=""img/pink-n.png"" border=""10"">","null","trial","null","","0.2,0.8","2:nogo_b","0",""
"null","","html-keyboard-response","140","252214","0.0-4.0-2.33","","<div style=""font-size:60px;"">+</div>","null","","","","","","",""
"755.5949999950826","","image-keyboard-response","141","252970","0.0-4.0-0.34","","img/orange.png","32","trial","32","true","0.8,0.2","1:go_a","",""
"null","","html-keyboard-response","142","253976","0.0-4.0-1.34","","<img src=""img/orange-r.png"" border=""10"">","null","trial","32","","0.8,0.2","1:go_a","1",""
"null","","html-keyboard-response","143","254978","0.0-4.0-2.34","","<div style=""font-size:60px;"">+</div>","null","","","","","","",""
"559.1150000691414","","image-keyboard-response","144","255538","0.0-4.0-0.35","","img/pink.png","32","trial","null","false","0.2,0.8","2:nogo_b","",""
"null","","html-keyboard-response","145","256540","0.0-4.0-1.35","","<img src=""img/pink-n.png"" border=""10"">","null","trial","null","","0.2,0.8","2:nogo_b","0",""
"null","","html-keyboard-response","146","257551","0.0-4.0-2.35","","<div style=""font-size:60px;"">+</div>","null","","","","","","",""
"512.044999981299","","image-keyboard-response","147","258064","0.0-4.0-0.36","","img/orange.png","32","trial","32","true","0.8,0.2","1:go_a","",""
"null","","html-keyboard-response","148","259078","0.0-4.0-1.36","","<img src=""img/orange-r.png"" border=""10"">","null","trial","32","","0.8,0.2","1:go_a","1",""
"null","","html-keyboard-response","149","260091","0.0-4.0-2.36","","<div style=""font-size:60px;"">+</div>","null","","","","","","",""
"null","","image-keyboard-response","150","261607","0.0-4.0-0.37","","img/pink.png","null","trial","null","true","0.2,0.8","2:nogo_b","",""
"null","","html-keyboard-response","151","262608","0.0-4.0-1.37","","<img src=""img/pink-n.png"">","null","trial","null","","0.2,0.8","2:nogo_b","0",""
"null","","html-keyboard-response","152","263620","0.0-4.0-2.37","","<div style=""font-size:60px;"">+</div>","null","","","","","","",""
"622.0299999695271","","image-keyboard-response","153","264242","0.0-4.0-0.38","","img/orange.png","32","trial","32","true","0.8,0.2","1:go_a","",""
"null","","html-keyboard-response","154","265256","0.0-4.0-1.38","","<img src=""img/orange-r.png"" border=""10"">","null","trial","32","","0.8,0.2","1:go_a","1",""
"null","","html-keyboard-response","155","266267","0.0-4.0-2.38","","<div style=""font-size:60px;"">+</div>","null","","","","","","",""
"451.02500007487833","","image-keyboard-response","156","266719","0.0-4.0-0.39","","img/pink.png","32","trial","null","false","0.2,0.8","2:nogo_b","",""
"null","","html-keyboard-response","157","267735","0.0-4.0-1.39","","<img src=""img/pink-n.png"" border=""10"">","null","trial","null","","0.2,0.8","2:nogo_b","0",""
"null","","html-keyboard-response","158","268746","0.0-4.0-2.39","","<div style=""font-size:60px;"">+</div>","null","","","","","","",""
"802.3550000507385","","image-keyboard-response","159","269549","0.0-4.0-0.40","","img/orange.png","32","trial","32","true","0.8,0.2","1:go_a","",""
"null","","html-keyboard-response","160","270555","0.0-4.0-1.40","","<img src=""img/orange-n.png"" border=""10"">","null","trial","32","","0.8,0.2","1:go_a","0",""
"null","","html-keyboard-response","161","271571","0.0-4.0-2.40","","<div style=""font-size:60px;"">+</div>","null","","","","","","",""
"877.9149999609217","","image-keyboard-response","162","272450","0.0-4.0-0.41","","img/pink.png","32","trial","null","false","0.2,0.8","2:nogo_b","",""
"null","","html-keyboard-response","163","273466","0.0-4.0-1.41","","<img src=""img/pink-n.png"" border=""10"">","null","trial","null","","0.2,0.8","2:nogo_b","0",""
"null","","html-keyboard-response","164","274476","0.0-4.0-2.41","","<div style=""font-size:60px;"">+</div>","null","","","","","","",""
"643.6049999902025","","image-keyboard-response","165","275120","0.0-4.0-0.42","","img/pink.png","32","trial","null","false","0.2,0.8","2:nogo_b","",""
"null","","html-keyboard-response","166","276121","0.0-4.0-1.42","","<img src=""img/pink-n.png"" border=""10"">","null","trial","null","","0.2,0.8","2:nogo_b","0",""
"null","","html-keyboard-response","167","277135","0.0-4.0-2.42","","<div style=""font-size:60px;"">+</div>","null","","","","","","",""
"735.2800000226125","","image-keyboard-response","168","277871","0.0-4.0-0.43","","img/orange.png","32","trial","32","true","0.8,0.2","1:go_a","",""
"null","","html-keyboard-response","169","278884","0.0-4.0-1.43","","<img src=""img/orange-r.png"" border=""10"">","null","trial","32","","0.8,0.2","1:go_a","1",""
"null","","html-keyboard-response","170","279892","0.0-4.0-2.43","","<div style=""font-size:60px;"">+</div>","null","","","","","","",""
"460.61499998904765","","image-keyboard-response","171","280354","0.0-4.0-0.44","","img/pink.png","32","trial","null","false","0.2,0.8","2:nogo_b","",""
"null","","html-keyboard-response","172","281358","0.0-4.0-1.44","","<img src=""img/pink-n.png"" border=""10"">","null","trial","null","","0.2,0.8","2:nogo_b","0",""
"null","","html-keyboard-response","173","282372","0.0-4.0-2.44","","<div style=""font-size:60px;"">+</div>","null","","","","","","",""
"623.3050000155345","","image-keyboard-response","174","282996","0.0-4.0-0.45","","img/orange.png","32","trial","32","true","0.8,0.2","1:go_a","",""
"null","","html-keyboard-response","175","283998","0.0-4.0-1.45","","<img src=""img/orange-r.png"" border=""10"">","null","trial","32","","0.8,0.2","1:go_a","1",""
"null","","html-keyboard-response","176","285011","0.0-4.0-2.45","","<div style=""font-size:60px;"">+</div>","null","","","","","","",""
"null","","image-keyboard-response","177","286521","0.0-4.0-0.46","","img/pink.png","null","trial","null","true","0.2,0.8","2:nogo_b","",""
"null","","html-keyboard-response","178","287535","0.0-4.0-1.46","","<img src=""img/pink-r.png"">","null","trial","null","","0.2,0.8","2:nogo_b","1",""
"null","","html-keyboard-response","179","288547","0.0-4.0-2.46","","<div style=""font-size:60px;"">+</div>","null","","","","","","",""
"578.1200000783429","","image-keyboard-response","180","289126","0.0-4.0-0.47","","img/orange.png","32","trial","32","true","0.8,0.2","1:go_a","",""
"null","","html-keyboard-response","181","290139","0.0-4.0-1.47","","<img src=""img/orange-r.png"" border=""10"">","null","trial","32","","0.8,0.2","1:go_a","1",""
"null","","html-keyboard-response","182","291141","0.0-4.0-2.47","","<div style=""font-size:60px;"">+</div>","null","","","","","","",""
"null","","image-keyboard-response","183","292654","0.0-4.0-0.48","","img/orange.png","null","trial","32","false","0.8,0.2","1:go_a","",""
"null","","html-keyboard-response","184","293666","0.0-4.0-1.48","","<img src=""img/orange-n.png"">","null","trial","32","","0.8,0.2","1:go_a","0",""
"null","","html-keyboard-response","185","294677","0.0-4.0-2.48","","<div style=""font-size:60px;"">+</div>","null","","","","","","",""
"478.7299999734387","","image-keyboard-response","186","295157","0.0-4.0-0.49","","img/pink.png","32","trial","null","false","0.2,0.8","2:nogo_b","",""
"null","","html-keyboard-response","187","296170","0.0-4.0-1.49","","<img src=""img/pink-r.png"" border=""10"">","null","trial","null","","0.2,0.8","2:nogo_b","1",""
"null","","html-keyboard-response","188","297177","0.0-4.0-2.49","","<div style=""font-size:60px;"">+</div>","null","","","","","","",""
"932.53500002902","","image-keyboard-response","189","298109","0.0-4.0-0.50","","img/pink.png","32","trial","null","false","0.2,0.8","2:nogo_b","",""
"null","","html-keyboard-response","190","299115","0.0-4.0-1.50","","<img src=""img/pink-n.png"" border=""10"">","null","trial","null","","0.2,0.8","2:nogo_b","0",""
"null","","html-keyboard-response","191","300129","0.0-4.0-2.50","","<div style=""font-size:60px;"">+</div>","null","","","","","","",""
"887.1049999725074","","image-keyboard-response","192","301016","0.0-4.0-0.51","","img/orange.png","32","trial","32","true","0.8,0.2","1:go_a","",""
"null","","html-keyboard-response","193","302032","0.0-4.0-1.51","","<img src=""img/orange-r.png"" border=""10"">","null","trial","32","","0.8,0.2","1:go_a","1",""
"null","","html-keyboard-response","194","303045","0.0-4.0-2.51","","<div style=""font-size:60px;"">+</div>","null","","","","","","",""
"null","","image-keyboard-response","195","304555","0.0-4.0-0.52","","img/pink.png","null","trial","null","true","0.2,0.8","2:nogo_b","",""
"null","","html-keyboard-response","196","305569","0.0-4.0-1.52","","<img src=""img/pink-r.png"">","null","trial","null","","0.2,0.8","2:nogo_b","1",""
"null","","html-keyboard-response","197","306573","0.0-4.0-2.52","","<div style=""font-size:60px;"">+</div>","null","","","","","","",""
"645.5100000603124","","image-keyboard-response","198","307219","0.0-4.0-0.53","","img/orange.png","32","trial","32","true","0.8,0.2","1:go_a","",""
"null","","html-keyboard-response","199","308227","0.0-4.0-1.53","","<img src=""img/orange-r.png"" border=""10"">","null","trial","32","","0.8,0.2","1:go_a","1",""
"null","","html-keyboard-response","200","309230","0.0-4.0-2.53","","<div style=""font-size:60px;"">+</div>","null","","","","","","",""
"null","","image-keyboard-response","201","310738","0.0-4.0-0.54","","img/orange.png","null","trial","32","false","0.8,0.2","1:go_a","",""
"null","","html-keyboard-response","202","311748","0.0-4.0-1.54","","<img src=""img/orange-n.png"">","null","trial","32","","0.8,0.2","1:go_a","0",""
"null","","html-keyboard-response","203","312762","0.0-4.0-2.54","","<div style=""font-size:60px;"">+</div>","null","","","","","","",""
"498.1599999591708","","image-keyboard-response","204","313261","0.0-4.0-0.55","","img/pink.png","32","trial","null","false","0.2,0.8","2:nogo_b","",""
"null","","html-keyboard-response","205","314275","0.0-4.0-1.55","","<img src=""img/pink-n.png"" border=""10"">","null","trial","null","","0.2,0.8","2:nogo_b","0",""
"null","","html-keyboard-response","206","315275","0.0-4.0-2.55","","<div style=""font-size:60px;"">+</div>","null","","","","","","",""
"900.6499999668449","","image-keyboard-response","207","316177","0.0-4.0-0.56","","img/orange.png","32","trial","32","true","0.8,0.2","1:go_a","",""
"null","","html-keyboard-response","208","317179","0.0-4.0-1.56","","<img src=""img/orange-n.png"" border=""10"">","null","trial","32","","0.8,0.2","1:go_a","0",""
"null","","html-keyboard-response","209","318180","0.0-4.0-2.56","","<div style=""font-size:60px;"">+</div>","null","","","","","","",""
"806.4999999478459","","image-keyboard-response","210","318987","0.0-4.0-0.57","","img/pink.png","32","trial","null","false","0.2,0.8","2:nogo_b","",""
"null","","html-keyboard-response","211","319989","0.0-4.0-1.57","","<img src=""img/pink-r.png"" border=""10"">","null","trial","null","","0.2,0.8","2:nogo_b","1",""
"null","","html-keyboard-response","212","320997","0.0-4.0-2.57","","<div style=""font-size:60px;"">+</div>","null","","","","","","",""
"491.8949999846518","","image-keyboard-response","213","321490","0.0-4.0-0.58","","img/pink.png","32","trial","null","false","0.2,0.8","2:nogo_b","",""
"null","","html-keyboard-response","214","322500","0.0-4.0-1.58","","<img src=""img/pink-n.png"" border=""10"">","null","trial","null","","0.2,0.8","2:nogo_b","0",""
"null","","html-keyboard-response","215","323505","0.0-4.0-2.58","","<div style=""font-size:60px;"">+</div>","null","","","","","","",""
"551.5450000530109","","image-keyboard-response","216","324057","0.0-4.0-0.59","","img/orange.png","32","trial","32","true","0.8,0.2","1:go_a","",""
"null","","html-keyboard-response","217","325068","0.0-4.0-1.59","","<img src=""img/orange-r.png"" border=""10"">","null","trial","32","","0.8,0.2","1:go_a","1",""
"null","","html-keyboard-response","218","326070","0.0-4.0-2.59","","<div style=""font-size:60px;"">+</div>","null","","","","","","",""
"41567.03499995638","","instructions","219","367638","0.0-5.0","[{""page_index"":0,""viewing_time"":41566.77000003401}]","","","","","","","","",""
"1478.5749999573454","","image-keyboard-response","220","369117","0.0-6.0-0.0","","img/yellow.png","32","trial","null","false","0.2,0.8","4:nogo_d","",""
"null","","html-keyboard-response","221","370127","0.0-6.0-1.0","","<img src=""img/yellow-r.png"" border=""10"">","null","trial","null","","0.2,0.8","4:nogo_d","1",""
"null","","html-keyboard-response","222","371127","0.0-6.0-2.0","","<div style=""font-size:60px;"">+</div>","null","","","","","","",""
"522.110000019893","","image-keyboard-response","223","371650","0.0-6.0-0.1","","img/green.png","32","trial","32","true","0.8,0.2","3:go_c","",""
"null","","html-keyboard-response","224","372666","0.0-6.0-1.1","","<img src=""img/green-r.png"" border=""10"">","null","trial","32","","0.8,0.2","3:go_c","1",""
"null","","html-keyboard-response","225","373669","0.0-6.0-2.1","","<div style=""font-size:60px;"">+</div>","null","","","","","","",""
"649.3849999969825","","image-keyboard-response","226","374319","0.0-6.0-0.2","","img/purple.png","32","trial","32","true","0.8,0.2","1:go_a","",""
"null","","html-keyboard-response","227","375329","0.0-6.0-1.2","","<img src=""img/purple-r.png"" border=""10"">","null","trial","32","","0.8,0.2","1:go_a","1",""
"null","","html-keyboard-response","228","376340","0.0-6.0-2.2","","<div style=""font-size:60px;"">+</div>","null","","","","","","",""
"620.5949999857694","","image-keyboard-response","229","376961","0.0-6.0-0.3","","img/pink.png","32","trial","null","false","0.2,0.8","2:nogo_b","",""
"null","","html-keyboard-response","230","377966","0.0-6.0-1.3","","<img src=""img/pink-n.png"" border=""10"">","null","trial","null","","0.2,0.8","2:nogo_b","0",""
"null","","html-keyboard-response","231","378973","0.0-6.0-2.3","","<div style=""font-size:60px;"">+</div>","null","","","","","","",""
"898.7999999662861","","image-keyboard-response","232","379873","0.0-6.0-0.4","","img/purple.png","32","trial","32","true","0.8,0.2","1:go_a","",""
"null","","html-keyboard-response","233","380881","0.0-6.0-1.4","","<img src=""img/purple-n.png"" border=""10"">","null","trial","32","","0.8,0.2","1:go_a","0",""
"null","","html-keyboard-response","234","381896","0.0-6.0-2.4","","<div style=""font-size:60px;"">+</div>","null","","","","","","",""
"null","","image-keyboard-response","235","383400","0.0-6.0-0.5","","img/green.png","null","trial","32","false","0.8,0.2","3:go_c","",""
"null","","html-keyboard-response","236","384403","0.0-6.0-1.5","","<img src=""img/green-n.png"">","null","trial","32","","0.8,0.2","3:go_c","0",""
"null","","html-keyboard-response","237","385405","0.0-6.0-2.5","","<div style=""font-size:60px;"">+</div>","null","","","","","","",""
"null","","image-keyboard-response","238","386908","0.0-6.0-0.6","","img/yellow.png","null","trial","null","true","0.2,0.8","4:nogo_d","",""
"null","","html-keyboard-response","239","387910","0.0-6.0-1.6","","<img src=""img/yellow-r.png"">","null","trial","null","","0.2,0.8","4:nogo_d","1",""
"null","","html-keyboard-response","240","388922","0.0-6.0-2.6","","<div style=""font-size:60px;"">+</div>","null","","","","","","",""
"null","","image-keyboard-response","241","390428","0.0-6.0-0.7","","img/pink.png","null","trial","null","true","0.2,0.8","2:nogo_b","",""
"null","","html-keyboard-response","242","391429","0.0-6.0-1.7","","<img src=""img/pink-r.png"">","null","trial","null","","0.2,0.8","2:nogo_b","1",""
"null","","html-keyboard-response","243","392437","0.0-6.0-2.7","","<div style=""font-size:60px;"">+</div>","null","","","","","","",""
"909.0599999763072","","image-keyboard-response","244","393346","0.0-6.0-0.8","","img/green.png","32","trial","32","true","0.8,0.2","3:go_c","",""
"null","","html-keyboard-response","245","394352","0.0-6.0-1.8","","<img src=""img/green-n.png"" border=""10"">","null","trial","32","","0.8,0.2","3:go_c","0",""
"null","","html-keyboard-response","246","395364","0.0-6.0-2.8","","<div style=""font-size:60px;"">+</div>","null","","","","","","",""
"1075.249999994412","","image-keyboard-response","247","396440","0.0-6.0-0.9","","img/pink.png","32","trial","null","false","0.2,0.8","2:nogo_b","",""
"null","","html-keyboard-response","248","397451","0.0-6.0-1.9","","<img src=""img/pink-n.png"" border=""10"">","null","trial","null","","0.2,0.8","2:nogo_b","0",""
"null","","html-keyboard-response","249","398466","0.0-6.0-2.9","","<div style=""font-size:60px;"">+</div>","null","","","","","","",""
"709.5749999862164","","image-keyboard-response","250","399176","0.0-6.0-0.10","","img/yellow.png","32","trial","null","false","0.2,0.8","4:nogo_d","",""
"null","","html-keyboard-response","251","400185","0.0-6.0-1.10","","<img src=""img/yellow-n.png"" border=""10"">","null","trial","null","","0.2,0.8","4:nogo_d","0",""
"null","","html-keyboard-response","252","401196","0.0-6.0-2.10","","<div style=""font-size:60px;"">+</div>","null","","","","","","",""
"826.119999983348","","image-keyboard-response","253","402023","0.0-6.0-0.11","","img/purple.png","32","trial","32","true","0.8,0.2","1:go_a","",""
"null","","html-keyboard-response","254","403034","0.0-6.0-1.11","","<img src=""img/purple-r.png"" border=""10"">","null","trial","32","","0.8,0.2","1:go_a","1",""
"null","","html-keyboard-response","255","404044","0.0-6.0-2.11","","<div style=""font-size:60px;"">+</div>","null","","","","","","",""
"547.8199999779463","","image-keyboard-response","256","404593","0.0-6.0-0.12","","img/yellow.png","32","trial","null","false","0.2,0.8","4:nogo_d","",""
"null","","html-keyboard-response","257","405600","0.0-6.0-1.12","","<img src=""img/yellow-n.png"" border=""10"">","null","trial","null","","0.2,0.8","4:nogo_d","0",""
"null","","html-keyboard-response","258","406613","0.0-6.0-2.12","","<div style=""font-size:60px;"">+</div>","null","","","","","","",""
"null","","image-keyboard-response","259","408128","0.0-6.0-0.13","","img/green.png","null","trial","32","false","0.8,0.2","3:go_c","",""
"null","","html-keyboard-response","260","409142","0.0-6.0-1.13","","<img src=""img/green-n.png"">","null","trial","32","","0.8,0.2","3:go_c","0",""
"null","","html-keyboard-response","261","410151","0.0-6.0-2.13","","<div style=""font-size:60px;"">+</div>","null","","","","","","",""
"null","","image-keyboard-response","262","411662","0.0-6.0-0.14","","img/purple.png","null","trial","32","false","0.8,0.2","1:go_a","",""
"null","","html-keyboard-response","263","412674","0.0-6.0-1.14","","<img src=""img/purple-r.png"">","null","trial","32","","0.8,0.2","1:go_a","1",""
"null","","html-keyboard-response","264","413688","0.0-6.0-2.14","","<div style=""font-size:60px;"">+</div>","null","","","","","","",""
"null","","image-keyboard-response","265","415201","0.0-6.0-0.15","","img/pink.png","null","trial","null","true","0.2,0.8","2:nogo_b","",""
"null","","html-keyboard-response","266","416217","0.0-6.0-1.15","","<img src=""img/pink-n.png"">","null","trial","null","","0.2,0.8","2:nogo_b","0",""
"null","","html-keyboard-response","267","417228","0.0-6.0-2.15","","<div style=""font-size:60px;"">+</div>","null","","","","","","",""
"1408.5250000935048","","image-keyboard-response","268","418637","0.0-6.0-0.16","","img/green.png","32","trial","32","true","0.8,0.2","3:go_c","",""
"null","","html-keyboard-response","269","419642","0.0-6.0-1.16","","<img src=""img/green-r.png"" border=""10"">","null","trial","32","","0.8,0.2","3:go_c","1",""
"null","","html-keyboard-response","270","420655","0.0-6.0-2.16","","<div style=""font-size:60px;"">+</div>","null","","","","","","",""
"778.4900000551715","","image-keyboard-response","271","421434","0.0-6.0-0.17","","img/yellow.png","32","trial","null","false","0.2,0.8","4:nogo_d","",""
"null","","html-keyboard-response","272","422445","0.0-6.0-1.17","","<img src=""img/yellow-n.png"" border=""10"">","null","trial","null","","0.2,0.8","4:nogo_d","0",""
"null","","html-keyboard-response","273","423458","0.0-6.0-2.17","","<div style=""font-size:60px;"">+</div>","null","","","","","","",""
"1287.209999980405","","image-keyboard-response","274","424746","0.0-6.0-0.18","","img/pink.png","32","trial","null","false","0.2,0.8","2:nogo_b","",""
"null","","html-keyboard-response","275","425761","0.0-6.0-1.18","","<img src=""img/pink-n.png"" border=""10"">","null","trial","null","","0.2,0.8","2:nogo_b","0",""
"null","","html-keyboard-response","276","426762","0.0-6.0-2.18","","<div style=""font-size:60px;"">+</div>","null","","","","","","",""
"624.1449998924509","","image-keyboard-response","277","427387","0.0-6.0-0.19","","img/purple.png","32","trial","32","true","0.8,0.2","1:go_a","",""
"null","","html-keyboard-response","278","428397","0.0-6.0-1.19","","<img src=""img/purple-r.png"" border=""10"">","null","trial","32","","0.8,0.2","1:go_a","1",""
"null","","html-keyboard-response","279","429406","0.0-6.0-2.19","","<div style=""font-size:60px;"">+</div>","null","","","","","","",""
"754.7050000866875","","image-keyboard-response","280","430161","0.0-6.0-0.20","","img/green.png","32","trial","32","true","0.8,0.2","3:go_c","",""
"null","","html-keyboard-response","281","431168","0.0-6.0-1.20","","<img src=""img/green-r.png"" border=""10"">","null","trial","32","","0.8,0.2","3:go_c","1",""
"null","","html-keyboard-response","282","432183","0.0-6.0-2.20","","<div style=""font-size:60px;"">+</div>","null","","","","","","",""
"697.26000004448","","image-keyboard-response","283","432881","0.0-6.0-0.21","","img/purple.png","32","trial","32","true","0.8,0.2","1:go_a","",""
"null","","html-keyboard-response","284","433883","0.0-6.0-1.21","","<img src=""img/purple-r.png"" border=""10"">","null","trial","32","","0.8,0.2","1:go_a","1",""
"null","","html-keyboard-response","285","434897","0.0-6.0-2.21","","<div style=""font-size:60px;"">+</div>","null","","","","","","",""
"953.3150000497699","","image-keyboard-response","286","435851","0.0-6.0-0.22","","img/yellow.png","32","trial","null","false","0.2,0.8","4:nogo_d","",""
"null","","html-keyboard-response","287","436857","0.0-6.0-1.22","","<img src=""img/yellow-n.png"" border=""10"">","null","trial","null","","0.2,0.8","4:nogo_d","0",""
"null","","html-keyboard-response","288","437871","0.0-6.0-2.22","","<div style=""font-size:60px;"">+</div>","null","","","","","","",""
"null","","image-keyboard-response","289","439374","0.0-6.0-0.23","","img/pink.png","null","trial","null","true","0.2,0.8","2:nogo_b","",""
"null","","html-keyboard-response","290","440388","0.0-6.0-1.23","","<img src=""img/pink-r.png"">","null","trial","null","","0.2,0.8","2:nogo_b","1",""
"null","","html-keyboard-response","291","441402","0.0-6.0-2.23","","<div style=""font-size:60px;"">+</div>","null","","","","","","",""
"null","","image-keyboard-response","292","442915","0.0-6.0-0.24","","img/pink.png","null","trial","null","true","0.2,0.8","2:nogo_b","",""
"null","","html-keyboard-response","293","443920","0.0-6.0-1.24","","<img src=""img/pink-r.png"">","null","trial","null","","0.2,0.8","2:nogo_b","1",""
"null","","html-keyboard-response","294","444923","0.0-6.0-2.24","","<div style=""font-size:60px;"">+</div>","null","","","","","","",""
"1027.7050000149757","","image-keyboard-response","295","445951","0.0-6.0-0.25","","img/yellow.png","32","trial","null","false","0.2,0.8","4:nogo_d","",""
"null","","html-keyboard-response","296","446952","0.0-6.0-1.25","","<img src=""img/yellow-n.png"" border=""10"">","null","trial","null","","0.2,0.8","4:nogo_d","0",""
"null","","html-keyboard-response","297","447954","0.0-6.0-2.25","","<div style=""font-size:60px;"">+</div>","null","","","","","","",""
"686.6499999305233","","image-keyboard-response","298","448641","0.0-6.0-0.26","","img/green.png","32","trial","32","true","0.8,0.2","3:go_c","",""
"null","","html-keyboard-response","299","449651","0.0-6.0-1.26","","<img src=""img/green-n.png"" border=""10"">","null","trial","32","","0.8,0.2","3:go_c","0",""
"null","","html-keyboard-response","300","450667","0.0-6.0-2.26","","<div style=""font-size:60px;"">+</div>","null","","","","","","",""
"null","","image-keyboard-response","301","452177","0.0-6.0-0.27","","img/purple.png","null","trial","32","false","0.8,0.2","1:go_a","",""
"null","","html-keyboard-response","302","453185","0.0-6.0-1.27","","<img src=""img/purple-r.png"">","null","trial","32","","0.8,0.2","1:go_a","1",""
"null","","html-keyboard-response","303","454199","0.0-6.0-2.27","","<div style=""font-size:60px;"">+</div>","null","","","","","","",""
"650.5950000137091","","image-keyboard-response","304","454850","0.0-6.0-0.28","","img/yellow.png","32","trial","null","false","0.2,0.8","4:nogo_d","",""
"null","","html-keyboard-response","305","455855","0.0-6.0-1.28","","<img src=""img/yellow-r.png"" border=""10"">","null","trial","null","","0.2,0.8","4:nogo_d","1",""
"null","","html-keyboard-response","306","456867","0.0-6.0-2.28","","<div style=""font-size:60px;"">+</div>","null","","","","","","",""
"740.8650000579655","","image-keyboard-response","307","457609","0.0-6.0-0.29","","img/pink.png","32","trial","null","false","0.2,0.8","2:nogo_b","",""
"null","","html-keyboard-response","308","458616","0.0-6.0-1.29","","<img src=""img/pink-r.png"" border=""10"">","null","trial","null","","0.2,0.8","2:nogo_b","1",""
"null","","html-keyboard-response","309","459628","0.0-6.0-2.29","","<div style=""font-size:60px;"">+</div>","null","","","","","","",""
"441.785000031814","","image-keyboard-response","310","460070","0.0-6.0-0.30","","img/green.png","32","trial","32","true","0.8,0.2","3:go_c","",""
"null","","html-keyboard-response","311","461077","0.0-6.0-1.30","","<img src=""img/green-n.png"" border=""10"">","null","trial","32","","0.8,0.2","3:go_c","0",""
"null","","html-keyboard-response","312","462091","0.0-6.0-2.30","","<div style=""font-size:60px;"">+</div>","null","","","","","","",""
"896.1899999994785","","image-keyboard-response","313","462988","0.0-6.0-0.31","","img/purple.png","32","trial","32","true","0.8,0.2","1:go_a","",""
"null","","html-keyboard-response","314","463999","0.0-6.0-1.31","","<img src=""img/purple-r.png"" border=""10"">","null","trial","32","","0.8,0.2","1:go_a","1",""
"null","","html-keyboard-response","315","465014","0.0-6.0-2.31","","<div style=""font-size:60px;"">+</div>","null","","","","","","",""
"null","","image-keyboard-response","316","466516","0.0-6.0-0.32","","img/purple.png","null","trial","32","false","0.8,0.2","1:go_a","",""
"null","","html-keyboard-response","317","467517","0.0-6.0-1.32","","<img src=""img/purple-n.png"">","null","trial","32","","0.8,0.2","1:go_a","0",""
"null","","html-keyboard-response","318","468530","0.0-6.0-2.32","","<div style=""font-size:60px;"">+</div>","null","","","","","","",""
"522.4800000432879","","image-keyboard-response","319","469053","0.0-6.0-0.33","","img/green.png","32","trial","32","true","0.8,0.2","3:go_c","",""
"null","","html-keyboard-response","320","470059","0.0-6.0-1.33","","<img src=""img/green-n.png"" border=""10"">","null","trial","32","","0.8,0.2","3:go_c","0",""
"null","","html-keyboard-response","321","471073","0.0-6.0-2.33","","<div style=""font-size:60px;"">+</div>","null","","","","","","",""
"null","","image-keyboard-response","322","472575","0.0-6.0-0.34","","img/pink.png","null","trial","null","true","0.2,0.8","2:nogo_b","",""
"null","","html-keyboard-response","323","473577","0.0-6.0-1.34","","<img src=""img/pink-r.png"">","null","trial","null","","0.2,0.8","2:nogo_b","1",""
"null","","html-keyboard-response","324","474591","0.0-6.0-2.34","","<div style=""font-size:60px;"">+</div>","null","","","","","","",""
"674.8450000304729","","image-keyboard-response","325","475267","0.0-6.0-0.35","","img/yellow.png","32","trial","null","false","0.2,0.8","4:nogo_d","",""
"null","","html-keyboard-response","326","476280","0.0-6.0-1.35","","<img src=""img/yellow-n.png"" border=""10"">","null","trial","null","","0.2,0.8","4:nogo_d","0",""
"null","","html-keyboard-response","327","477295","0.0-6.0-2.35","","<div style=""font-size:60px;"">+</div>","null","","","","","","",""
"845.4299999866635","","image-keyboard-response","328","478141","0.0-6.0-0.36","","img/purple.png","32","trial","32","true","0.8,0.2","1:go_a","",""
"null","","html-keyboard-response","329","479149","0.0-6.0-1.36","","<img src=""img/purple-r.png"" border=""10"">","null","trial","32","","0.8,0.2","1:go_a","1",""
"null","","html-keyboard-response","330","480151","0.0-6.0-2.36","","<div style=""font-size:60px;"">+</div>","null","","","","","","",""
"480.0700000487268","","image-keyboard-response","331","480632","0.0-6.0-0.37","","img/yellow.png","32","trial","null","false","0.2,0.8","4:nogo_d","",""
"null","","html-keyboard-response","332","481635","0.0-6.0-1.37","","<img src=""img/yellow-n.png"" border=""10"">","null","trial","null","","0.2,0.8","4:nogo_d","0",""
"null","","html-keyboard-response","333","482647","0.0-6.0-2.37","","<div style=""font-size:60px;"">+</div>","null","","","","","","",""
"822.7750000078231","","image-keyboard-response","334","483471","0.0-6.0-0.38","","img/pink.png","32","trial","null","false","0.2,0.8","2:nogo_b","",""
"null","","html-keyboard-response","335","484476","0.0-6.0-1.38","","<img src=""img/pink-n.png"" border=""10"">","null","trial","null","","0.2,0.8","2:nogo_b","0",""
"null","","html-keyboard-response","336","485492","0.0-6.0-2.38","","<div style=""font-size:60px;"">+</div>","null","","","","","","",""
"567.9500000551343","","image-keyboard-response","337","486060","0.0-6.0-0.39","","img/green.png","32","trial","32","true","0.8,0.2","3:go_c","",""
"null","","html-keyboard-response","338","487069","0.0-6.0-1.39","","<img src=""img/green-r.png"" border=""10"">","null","trial","32","","0.8,0.2","3:go_c","1",""
"null","","html-keyboard-response","339","488081","0.0-6.0-2.39","","<div style=""font-size:60px;"">+</div>","null","","","","","","",""
"null","","image-keyboard-response","340","489588","0.0-6.0-0.40","","img/pink.png","null","trial","null","true","0.2,0.8","2:nogo_b","",""
"null","","html-keyboard-response","341","490604","0.0-6.0-1.40","","<img src=""img/pink-r.png"">","null","trial","null","","0.2,0.8","2:nogo_b","1",""
"null","","html-keyboard-response","342","491608","0.0-6.0-2.40","","<div style=""font-size:60px;"">+</div>","null","","","","","","",""
"656.5100000007078","","image-keyboard-response","343","492265","0.0-6.0-0.41","","img/purple.png","32","trial","32","true","0.8,0.2","1:go_a","",""
"null","","html-keyboard-response","344","493279","0.0-6.0-1.41","","<img src=""img/purple-r.png"" border=""10"">","null","trial","32","","0.8,0.2","1:go_a","1",""
"null","","html-keyboard-response","345","494291","0.0-6.0-2.41","","<div style=""font-size:60px;"">+</div>","null","","","","","","",""
"558.0049999989569","","image-keyboard-response","346","494850","0.0-6.0-0.42","","img/green.png","32","trial","32","true","0.8,0.2","3:go_c","",""
"null","","html-keyboard-response","347","495857","0.0-6.0-1.42","","<img src=""img/green-r.png"" border=""10"">","null","trial","32","","0.8,0.2","3:go_c","1",""
"null","","html-keyboard-response","348","496868","0.0-6.0-2.42","","<div style=""font-size:60px;"">+</div>","null","","","","","","",""
"621.6100000310689","","image-keyboard-response","349","497490","0.0-6.0-0.43","","img/yellow.png","32","trial","null","false","0.2,0.8","4:nogo_d","",""
"null","","html-keyboard-response","350","498498","0.0-6.0-1.43","","<img src=""img/yellow-r.png"" border=""10"">","null","trial","null","","0.2,0.8","4:nogo_d","1",""
"null","","html-keyboard-response","351","499513","0.0-6.0-2.43","","<div style=""font-size:60px;"">+</div>","null","","","","","","",""
"464.5899999886751","","image-keyboard-response","352","499978","0.0-6.0-0.44","","img/pink.png","32","trial","null","false","0.2,0.8","2:nogo_b","",""
"null","","html-keyboard-response","353","500993","0.0-6.0-1.44","","<img src=""img/pink-r.png"" border=""10"">","null","trial","null","","0.2,0.8","2:nogo_b","1",""
"null","","html-keyboard-response","354","502004","0.0-6.0-2.44","","<div style=""font-size:60px;"">+</div>","null","","","","","","",""
"616.9499999377877","","image-keyboard-response","355","502622","0.0-6.0-0.45","","img/green.png","32","trial","32","true","0.8,0.2","3:go_c","",""
"null","","html-keyboard-response","356","503635","0.0-6.0-1.45","","<img src=""img/green-r.png"" border=""10"">","null","trial","32","","0.8,0.2","3:go_c","1",""
"null","","html-keyboard-response","357","504645","0.0-6.0-2.45","","<div style=""font-size:60px;"">+</div>","null","","","","","","",""
"817.7900000009686","","image-keyboard-response","358","505463","0.0-6.0-0.46","","img/yellow.png","32","trial","null","false","0.2,0.8","4:nogo_d","",""
"null","","html-keyboard-response","359","506473","0.0-6.0-1.46","","<img src=""img/yellow-n.png"" border=""10"">","null","trial","null","","0.2,0.8","4:nogo_d","0",""
"null","","html-keyboard-response","360","507490","0.0-6.0-2.46","","<div style=""font-size:60px;"">+</div>","null","","","","","","",""
"null","","image-keyboard-response","361","508996","0.0-6.0-0.47","","img/purple.png","null","trial","32","false","0.8,0.2","1:go_a","",""
"null","","html-keyboard-response","362","510012","0.0-6.0-1.47","","<img src=""img/purple-n.png"">","null","trial","32","","0.8,0.2","1:go_a","0",""
"null","","html-keyboard-response","363","511025","0.0-6.0-2.47","","<div style=""font-size:60px;"">+</div>","null","","","","","","",""
"null","","image-keyboard-response","364","512536","0.0-6.0-0.48","","img/pink.png","null","trial","null","true","0.2,0.8","2:nogo_b","",""
"null","","html-keyboard-response","365","513546","0.0-6.0-1.48","","<img src=""img/pink-r.png"">","null","trial","null","","0.2,0.8","2:nogo_b","1",""
"null","","html-keyboard-response","366","514550","0.0-6.0-2.48","","<div style=""font-size:60px;"">+</div>","null","","","","","","",""
"823.4999999403954","","image-keyboard-response","367","515374","0.0-6.0-0.49","","img/purple.png","32","trial","32","true","0.8,0.2","1:go_a","",""
"null","","html-keyboard-response","368","516378","0.0-6.0-1.49","","<img src=""img/purple-n.png"" border=""10"">","null","trial","32","","0.8,0.2","1:go_a","0",""
"null","","html-keyboard-response","369","517392","0.0-6.0-2.49","","<div style=""font-size:60px;"">+</div>","null","","","","","","",""
"488.5549999307841","","image-keyboard-response","370","517881","0.0-6.0-0.50","","img/yellow.png","32","trial","null","false","0.2,0.8","4:nogo_d","",""
"null","","html-keyboard-response","371","518897","0.0-6.0-1.50","","<img src=""img/yellow-r.png"" border=""10"">","null","trial","null","","0.2,0.8","4:nogo_d","1",""
"null","","html-keyboard-response","372","519912","0.0-6.0-2.50","","<div style=""font-size:60px;"">+</div>","null","","","","","","",""
"385.02000004518777","","image-keyboard-response","373","520298","0.0-6.0-0.51","","img/green.png","32","trial","32","true","0.8,0.2","3:go_c","",""
"null","","html-keyboard-response","374","521300","0.0-6.0-1.51","","<img src=""img/green-r.png"" border=""10"">","null","trial","32","","0.8,0.2","3:go_c","1",""
"null","","html-keyboard-response","375","522304","0.0-6.0-2.51","","<div style=""font-size:60px;"">+</div>","null","","","","","","",""
"560.1899999892339","","image-keyboard-response","376","522865","0.0-6.0-0.52","","img/pink.png","32","trial","null","false","0.2,0.8","2:nogo_b","",""
"null","","html-keyboard-response","377","523875","0.0-6.0-1.52","","<img src=""img/pink-n.png"" border=""10"">","null","trial","null","","0.2,0.8","2:nogo_b","0",""
"null","","html-keyboard-response","378","524878","0.0-6.0-2.52","","<div style=""font-size:60px;"">+</div>","null","","","","","","",""
"800.8799999952316","","image-keyboard-response","379","525679","0.0-6.0-0.53","","img/yellow.png","32","trial","null","false","0.2,0.8","4:nogo_d","",""
"null","","html-keyboard-response","380","526684","0.0-6.0-1.53","","<img src=""img/yellow-r.png"" border=""10"">","null","trial","null","","0.2,0.8","4:nogo_d","1",""
"null","","html-keyboard-response","381","527689","0.0-6.0-2.53","","<div style=""font-size:60px;"">+</div>","null","","","","","","",""
"480.6149998912588","","image-keyboard-response","382","528170","0.0-6.0-0.54","","img/purple.png","32","trial","32","true","0.8,0.2","1:go_a","",""
"null","","html-keyboard-response","383","529185","0.0-6.0-1.54","","<img src=""img/purple-r.png"" border=""10"">","null","trial","32","","0.8,0.2","1:go_a","1",""
"null","","html-keyboard-response","384","530200","0.0-6.0-2.54","","<div style=""font-size:60px;"">+</div>","null","","","","","","",""
"552.6300000492483","","image-keyboard-response","385","530754","0.0-6.0-0.55","","img/green.png","32","trial","32","true","0.8,0.2","3:go_c","",""
"null","","html-keyboard-response","386","531761","0.0-6.0-1.55","","<img src=""img/green-r.png"" border=""10"">","null","trial","32","","0.8,0.2","3:go_c","1",""
"null","","html-keyboard-response","387","532763","0.0-6.0-2.55","","<div style=""font-size:60px;"">+</div>","null","","","","","","",""
"null","","image-keyboard-response","388","534277","0.0-6.0-0.56","","img/yellow.png","null","trial","null","true","0.2,0.8","4:nogo_d","",""
"null","","html-keyboard-response","389","535283","0.0-6.0-1.56","","<img src=""img/yellow-r.png"">","null","trial","null","","0.2,0.8","4:nogo_d","1",""
"null","","html-keyboard-response","390","536294","0.0-6.0-2.56","","<div style=""font-size:60px;"">+</div>","null","","","","","","",""
"619.9999999953434","","image-keyboard-response","391","536915","0.0-6.0-0.57","","img/purple.png","32","trial","32","true","0.8,0.2","1:go_a","",""
"null","","html-keyboard-response","392","537931","0.0-6.0-1.57","","<img src=""img/purple-r.png"" border=""10"">","null","trial","32","","0.8,0.2","1:go_a","1",""
"null","","html-keyboard-response","393","538943","0.0-6.0-2.57","","<div style=""font-size:60px;"">+</div>","null","","","","","","",""
"null","","image-keyboard-response","394","540454","0.0-6.0-0.58","","img/pink.png","null","trial","null","true","0.2,0.8","2:nogo_b","",""
"null","","html-keyboard-response","395","541468","0.0-6.0-1.58","","<img src=""img/pink-r.png"">","null","trial","null","","0.2,0.8","2:nogo_b","1",""
"null","","html-keyboard-response","396","542484","0.0-6.0-2.58","","<div style=""font-size:60px;"">+</div>","null","","","","","","",""
"660.5650000274181","","image-keyboard-response","397","543145","0.0-6.0-0.59","","img/green.png","32","trial","32","true","0.8,0.2","3:go_c","",""
"null","","html-keyboard-response","398","544150","0.0-6.0-1.59","","<img src=""img/green-n.png"" border=""10"">","null","trial","32","","0.8,0.2","3:go_c","0",""
"null","","html-keyboard-response","399","545151","0.0-6.0-2.59","","<div style=""font-size:60px;"">+</div>","null","","","","","","",""
"null","","image-keyboard-response","400","546660","0.0-6.0-0.60","","img/purple.png","null","trial","32","false","0.8,0.2","1:go_a","",""
"null","","html-keyboard-response","401","547669","0.0-6.0-1.60","","<img src=""img/purple-n.png"">","null","trial","32","","0.8,0.2","1:go_a","0",""
"null","","html-keyboard-response","402","548682","0.0-6.0-2.60","","<div style=""font-size:60px;"">+</div>","null","","","","","","",""
"1135.4000000283122","","image-keyboard-response","403","549818","0.0-6.0-0.61","","img/green.png","32","trial","32","true","0.8,0.2","3:go_c","",""
"null","","html-keyboard-response","404","550830","0.0-6.0-1.61","","<img src=""img/green-r.png"" border=""10"">","null","trial","32","","0.8,0.2","3:go_c","1",""
"null","","html-keyboard-response","405","551840","0.0-6.0-2.61","","<div style=""font-size:60px;"">+</div>","null","","","","","","",""
"635.4950000531971","","image-keyboard-response","406","552476","0.0-6.0-0.62","","img/yellow.png","32","trial","null","false","0.2,0.8","4:nogo_d","",""
"null","","html-keyboard-response","407","553479","0.0-6.0-1.62","","<img src=""img/yellow-n.png"" border=""10"">","null","trial","null","","0.2,0.8","4:nogo_d","0",""
"null","","html-keyboard-response","408","554482","0.0-6.0-2.62","","<div style=""font-size:60px;"">+</div>","null","","","","","","",""
"1104.5600000070408","","image-keyboard-response","409","555587","0.0-6.0-0.63","","img/pink.png","32","trial","null","false","0.2,0.8","2:nogo_b","",""
"null","","html-keyboard-response","410","556599","0.0-6.0-1.63","","<img src=""img/pink-n.png"" border=""10"">","null","trial","null","","0.2,0.8","2:nogo_b","0",""
"null","","html-keyboard-response","411","557608","0.0-6.0-2.63","","<div style=""font-size:60px;"">+</div>","null","","","","","","",""
"742.4800000153482","","image-keyboard-response","412","558351","0.0-6.0-0.64","","img/pink.png","32","trial","null","false","0.2,0.8","2:nogo_b","",""
"null","","html-keyboard-response","413","559361","0.0-6.0-1.64","","<img src=""img/pink-n.png"" border=""10"">","null","trial","null","","0.2,0.8","2:nogo_b","0",""
"null","","html-keyboard-response","414","560373","0.0-6.0-2.64","","<div style=""font-size:60px;"">+</div>","null","","","","","","",""
"null","","image-keyboard-response","415","561883","0.0-6.0-0.65","","img/purple.png","null","trial","32","false","0.8,0.2","1:go_a","",""
"null","","html-keyboard-response","416","562884","0.0-6.0-1.65","","<img src=""img/purple-n.png"">","null","trial","32","","0.8,0.2","1:go_a","0",""
"null","","html-keyboard-response","417","563891","0.0-6.0-2.65","","<div style=""font-size:60px;"">+</div>","null","","","","","","",""
"967.8250000579283","","image-keyboard-response","418","564859","0.0-6.0-0.66","","img/yellow.png","32","trial","null","false","0.2,0.8","4:nogo_d","",""
"null","","html-keyboard-response","419","565864","0.0-6.0-1.66","","<img src=""img/yellow-n.png"" border=""10"">","null","trial","null","","0.2,0.8","4:nogo_d","0",""
"null","","html-keyboard-response","420","566879","0.0-6.0-2.66","","<div style=""font-size:60px;"">+</div>","null","","","","","","",""
"null","","image-keyboard-response","421","568390","0.0-6.0-0.67","","img/green.png","null","trial","32","false","0.8,0.2","3:go_c","",""
"null","","html-keyboard-response","422","569401","0.0-6.0-1.67","","<img src=""img/green-n.png"">","null","trial","32","","0.8,0.2","3:go_c","0",""
"null","","html-keyboard-response","423","570416","0.0-6.0-2.67","","<div style=""font-size:60px;"">+</div>","null","","","","","","",""
"1270.7700000610203","","image-keyboard-response","424","571687","0.0-6.0-0.68","","img/green.png","32","trial","32","true","0.8,0.2","3:go_c","",""
"null","","html-keyboard-response","425","572702","0.0-6.0-1.68","","<img src=""img/green-r.png"" border=""10"">","null","trial","32","","0.8,0.2","3:go_c","1",""
"null","","html-keyboard-response","426","573716","0.0-6.0-2.68","","<div style=""font-size:60px;"">+</div>","null","","","","","","",""
"739.7950000595301","","image-keyboard-response","427","574456","0.0-6.0-0.69","","img/purple.png","32","trial","32","true","0.8,0.2","1:go_a","",""
"null","","html-keyboard-response","428","575463","0.0-6.0-1.69","","<img src=""img/purple-r.png"" border=""10"">","null","trial","32","","0.8,0.2","1:go_a","1",""
"null","","html-keyboard-response","429","576477","0.0-6.0-2.69","","<div style=""font-size:60px;"">+</div>","null","","","","","","",""
"430.14499999117106","","image-keyboard-response","430","576907","0.0-6.0-0.70","","img/pink.png","32","trial","null","false","0.2,0.8","2:nogo_b","",""
"null","","html-keyboard-response","431","577921","0.0-6.0-1.70","","<img src=""img/pink-n.png"" border=""10"">","null","trial","null","","0.2,0.8","2:nogo_b","0",""
"null","","html-keyboard-response","432","578936","0.0-6.0-2.70","","<div style=""font-size:60px;"">+</div>","null","","","","","","",""
"780.4799999576062","","image-keyboard-response","433","579718","0.0-6.0-0.71","","img/yellow.png","32","trial","null","false","0.2,0.8","4:nogo_d","",""
"null","","html-keyboard-response","434","580729","0.0-6.0-1.71","","<img src=""img/yellow-n.png"" border=""10"">","null","trial","null","","0.2,0.8","4:nogo_d","0",""
"null","","html-keyboard-response","435","581741","0.0-6.0-2.71","","<div style=""font-size:60px;"">+</div>","null","","","","","","",""
"952.6249999180436","","image-keyboard-response","436","582694","0.0-6.0-0.72","","img/yellow.png","32","trial","null","false","0.2,0.8","4:nogo_d","",""
"null","","html-keyboard-response","437","583700","0.0-6.0-1.72","","<img src=""img/yellow-r.png"" border=""10"">","null","trial","null","","0.2,0.8","4:nogo_d","1",""
"null","","html-keyboard-response","438","584703","0.0-6.0-2.72","","<div style=""font-size:60px;"">+</div>","null","","","","","","",""
"452.69499998539686","","image-keyboard-response","439","585157","0.0-6.0-0.73","","img/purple.png","32","trial","32","true","0.8,0.2","1:go_a","",""
"null","","html-keyboard-response","440","586169","0.0-6.0-1.73","","<img src=""img/purple-r.png"" border=""10"">","null","trial","32","","0.8,0.2","1:go_a","1",""
"null","","html-keyboard-response","441","587183","0.0-6.0-2.73","","<div style=""font-size:60px;"">+</div>","null","","","","","","",""
"null","","image-keyboard-response","442","588696","0.0-6.0-0.74","","img/pink.png","null","trial","null","true","0.2,0.8","2:nogo_b","",""
"null","","html-keyboard-response","443","589704","0.0-6.0-1.74","","<img src=""img/pink-r.png"">","null","trial","null","","0.2,0.8","2:nogo_b","1",""
"null","","html-keyboard-response","444","590719","0.0-6.0-2.74","","<div style=""font-size:60px;"">+</div>","null","","","","","","",""
"544.6849999716505","","image-keyboard-response","445","591264","0.0-6.0-0.75","","img/green.png","32","trial","32","true","0.8,0.2","3:go_c","",""
"null","","html-keyboard-response","446","592276","0.0-6.0-1.75","","<img src=""img/green-n.png"" border=""10"">","null","trial","32","","0.8,0.2","3:go_c","0",""
"null","","html-keyboard-response","447","593290","0.0-6.0-2.75","","<div style=""font-size:60px;"">+</div>","null","","","","","","",""
"613.3050000062212","","image-keyboard-response","448","593904","0.0-6.0-0.76","","img/green.png","32","trial","32","true","0.8,0.2","3:go_c","",""
"null","","html-keyboard-response","449","594908","0.0-6.0-1.76","","<img src=""img/green-r.png"" border=""10"">","null","trial","32","","0.8,0.2","3:go_c","1",""
"null","","html-keyboard-response","450","595924","0.0-6.0-2.76","","<div style=""font-size:60px;"">+</div>","null","","","","","","",""
"490.03999994602054","","image-keyboard-response","451","596415","0.0-6.0-0.77","","img/pink.png","32","trial","null","false","0.2,0.8","2:nogo_b","",""
"null","","html-keyboard-response","452","597417","0.0-6.0-1.77","","<img src=""img/pink-n.png"" border=""10"">","null","trial","null","","0.2,0.8","2:nogo_b","0",""
"null","","html-keyboard-response","453","598421","0.0-6.0-2.77","","<div style=""font-size:60px;"">+</div>","null","","","","","","",""
"994.4550000363961","","image-keyboard-response","454","599416","0.0-6.0-0.78","","img/purple.png","32","trial","32","true","0.8,0.2","1:go_a","",""
"null","","html-keyboard-response","455","600423","0.0-6.0-1.78","","<img src=""img/purple-n.png"" border=""10"">","null","trial","32","","0.8,0.2","1:go_a","0",""
"null","","html-keyboard-response","456","601438","0.0-6.0-2.78","","<div style=""font-size:60px;"">+</div>","null","","","","","","",""
"null","","image-keyboard-response","457","602949","0.0-6.0-0.79","","img/yellow.png","null","trial","null","true","0.2,0.8","4:nogo_d","",""
"null","","html-keyboard-response","458","603950","0.0-6.0-1.79","","<img src=""img/yellow-r.png"">","null","trial","null","","0.2,0.8","4:nogo_d","1",""
"null","","html-keyboard-response","459","604960","0.0-6.0-2.79","","<div style=""font-size:60px;"">+</div>","null","","","","","","",""
"429.050000035204","","image-keyboard-response","460","605389","0.0-6.0-0.80","","img/green.png","32","trial","32","true","0.8,0.2","3:go_c","",""
"null","","html-keyboard-response","461","606395","0.0-6.0-1.80","","<img src=""img/green-r.png"" border=""10"">","null","trial","32","","0.8,0.2","3:go_c","1",""
"null","","html-keyboard-response","462","607410","0.0-6.0-2.80","","<div style=""font-size:60px;"">+</div>","null","","","","","","",""
"448.38999991770834","","image-keyboard-response","463","607859","0.0-6.0-0.81","","img/purple.png","32","trial","32","true","0.8,0.2","1:go_a","",""
"null","","html-keyboard-response","464","608874","0.0-6.0-1.81","","<img src=""img/purple-r.png"" border=""10"">","null","trial","32","","0.8,0.2","1:go_a","1",""
"null","","html-keyboard-response","465","609877","0.0-6.0-2.81","","<div style=""font-size:60px;"">+</div>","null","","","","","","",""
"null","","image-keyboard-response","466","611389","0.0-6.0-0.82","","img/pink.png","null","trial","null","true","0.2,0.8","2:nogo_b","",""
"null","","html-keyboard-response","467","612390","0.0-6.0-1.82","","<img src=""img/pink-r.png"">","null","trial","null","","0.2,0.8","2:nogo_b","1",""
"null","","html-keyboard-response","468","613398","0.0-6.0-2.82","","<div style=""font-size:60px;"">+</div>","null","","","","","","",""
"695.2099999180064","","image-keyboard-response","469","614094","0.0-6.0-0.83","","img/yellow.png","32","trial","null","false","0.2,0.8","4:nogo_d","",""
"null","","html-keyboard-response","470","615100","0.0-6.0-1.83","","<img src=""img/yellow-n.png"" border=""10"">","null","trial","null","","0.2,0.8","4:nogo_d","0",""
"null","","html-keyboard-response","471","616102","0.0-6.0-2.83","","<div style=""font-size:60px;"">+</div>","null","","","","","","",""
"null","","image-keyboard-response","472","617617","0.0-6.0-0.84","","img/green.png","null","trial","32","false","0.8,0.2","3:go_c","",""
"null","","html-keyboard-response","473","618628","0.0-6.0-1.84","","<img src=""img/green-r.png"">","null","trial","32","","0.8,0.2","3:go_c","1",""
"null","","html-keyboard-response","474","619629","0.0-6.0-2.84","","<div style=""font-size:60px;"">+</div>","null","","","","","","",""
"624.515000032261","","image-keyboard-response","475","620254","0.0-6.0-0.85","","img/pink.png","32","trial","null","false","0.2,0.8","2:nogo_b","",""
"null","","html-keyboard-response","476","621264","0.0-6.0-1.85","","<img src=""img/pink-n.png"" border=""10"">","null","trial","null","","0.2,0.8","2:nogo_b","0",""
"null","","html-keyboard-response","477","622279","0.0-6.0-2.85","","<div style=""font-size:60px;"">+</div>","null","","","","","","",""
"1069.290000014007","","image-keyboard-response","478","623349","0.0-6.0-0.86","","img/yellow.png","32","trial","null","false","0.2,0.8","4:nogo_d","",""
"null","","html-keyboard-response","479","624351","0.0-6.0-1.86","","<img src=""img/yellow-n.png"" border=""10"">","null","trial","null","","0.2,0.8","4:nogo_d","0",""
"null","","html-keyboard-response","480","625363","0.0-6.0-2.86","","<div style=""font-size:60px;"">+</div>","null","","","","","","",""
"null","","image-keyboard-response","481","626869","0.0-6.0-0.87","","img/purple.png","null","trial","32","false","0.8,0.2","1:go_a","",""
"null","","html-keyboard-response","482","627885","0.0-6.0-1.87","","<img src=""img/purple-r.png"">","null","trial","32","","0.8,0.2","1:go_a","1",""
"null","","html-keyboard-response","483","628899","0.0-6.0-2.87","","<div style=""font-size:60px;"">+</div>","null","","","","","","",""
"null","","image-keyboard-response","484","630407","0.0-6.0-0.88","","img/purple.png","null","trial","32","false","0.8,0.2","1:go_a","",""
"null","","html-keyboard-response","485","631418","0.0-6.0-1.88","","<img src=""img/purple-n.png"">","null","trial","32","","0.8,0.2","1:go_a","0",""
"null","","html-keyboard-response","486","632434","0.0-6.0-2.88","","<div style=""font-size:60px;"">+</div>","null","","","","","","",""
"933.8050000369549","","image-keyboard-response","487","633368","0.0-6.0-0.89","","img/yellow.png","32","trial","null","false","0.2,0.8","4:nogo_d","",""
"null","","html-keyboard-response","488","634383","0.0-6.0-1.89","","<img src=""img/yellow-n.png"" border=""10"">","null","trial","null","","0.2,0.8","4:nogo_d","0",""
"null","","html-keyboard-response","489","635396","0.0-6.0-2.89","","<div style=""font-size:60px;"">+</div>","null","","","","","","",""
"942.2349999658763","","image-keyboard-response","490","636339","0.0-6.0-0.90","","img/pink.png","32","trial","null","false","0.2,0.8","2:nogo_b","",""
"null","","html-keyboard-response","491","637341","0.0-6.0-1.90","","<img src=""img/pink-n.png"" border=""10"">","null","trial","null","","0.2,0.8","2:nogo_b","0",""
"null","","html-keyboard-response","492","638355","0.0-6.0-2.90","","<div style=""font-size:60px;"">+</div>","null","","","","","","",""
"790.7750000013039","","image-keyboard-response","493","639146","0.0-6.0-0.91","","img/green.png","32","trial","32","true","0.8,0.2","3:go_c","",""
"null","","html-keyboard-response","494","640158","0.0-6.0-1.91","","<img src=""img/green-r.png"" border=""10"">","null","trial","32","","0.8,0.2","3:go_c","1",""
"null","","html-keyboard-response","495","641167","0.0-6.0-2.91","","<div style=""font-size:60px;"">+</div>","null","","","","","","",""
"1284.8150000208989","","image-keyboard-response","496","642452","0.0-6.0-0.92","","img/pink.png","32","trial","null","false","0.2,0.8","2:nogo_b","",""
"null","","html-keyboard-response","497","643454","0.0-6.0-1.92","","<img src=""img/pink-n.png"" border=""10"">","null","trial","null","","0.2,0.8","2:nogo_b","0",""
"null","","html-keyboard-response","498","644456","0.0-6.0-2.92","","<div style=""font-size:60px;"">+</div>","null","","","","","","",""
"689.5500000100583","","image-keyboard-response","499","645147","0.0-6.0-0.93","","img/purple.png","32","trial","32","true","0.8,0.2","1:go_a","",""
"null","","html-keyboard-response","500","646156","0.0-6.0-1.93","","<img src=""img/purple-r.png"" border=""10"">","null","trial","32","","0.8,0.2","1:go_a","1",""
"null","","html-keyboard-response","501","647168","0.0-6.0-2.93","","<div style=""font-size:60px;"">+</div>","null","","","","","","",""
"1077.2000000579283","","image-keyboard-response","502","648246","0.0-6.0-0.94","","img/yellow.png","32","trial","null","false","0.2,0.8","4:nogo_d","",""
"null","","html-keyboard-response","503","649256","0.0-6.0-1.94","","<img src=""img/yellow-n.png"" border=""10"">","null","trial","null","","0.2,0.8","4:nogo_d","0",""
"null","","html-keyboard-response","504","650267","0.0-6.0-2.94","","<div style=""font-size:60px;"">+</div>","null","","","","","","",""
"624.5600000256673","","image-keyboard-response","505","650893","0.0-6.0-0.95","","img/green.png","32","trial","32","true","0.8,0.2","3:go_c","",""
"null","","html-keyboard-response","506","651896","0.0-6.0-1.95","","<img src=""img/green-r.png"" border=""10"">","null","trial","32","","0.8,0.2","3:go_c","1",""
"null","","html-keyboard-response","507","652903","0.0-6.0-2.95","","<div style=""font-size:60px;"">+</div>","null","","","","","","",""
"1290.584999951534","","image-keyboard-response","508","654194","0.0-6.0-0.96","","img/pink.png","32","trial","null","false","0.2,0.8","2:nogo_b","",""
"null","","html-keyboard-response","509","655200","0.0-6.0-1.96","","<img src=""img/pink-n.png"" border=""10"">","null","trial","null","","0.2,0.8","2:nogo_b","0",""
"null","","html-keyboard-response","510","656212","0.0-6.0-2.96","","<div style=""font-size:60px;"">+</div>","null","","","","","","",""
"1377.3599999258295","","image-keyboard-response","511","657590","0.0-6.0-0.97","","img/green.png","32","trial","32","true","0.8,0.2","3:go_c","",""
"null","","html-keyboard-response","512","658598","0.0-6.0-1.97","","<img src=""img/green-r.png"" border=""10"">","null","trial","32","","0.8,0.2","3:go_c","1",""
"null","","html-keyboard-response","513","659599","0.0-6.0-2.97","","<div style=""font-size:60px;"">+</div>","null","","","","","","",""
"null","","image-keyboard-response","514","661107","0.0-6.0-0.98","","img/purple.png","null","trial","32","false","0.8,0.2","1:go_a","",""
"null","","html-keyboard-response","515","662120","0.0-6.0-1.98","","<img src=""img/purple-n.png"">","null","trial","32","","0.8,0.2","1:go_a","0",""
"null","","html-keyboard-response","516","663136","0.0-6.0-2.98","","<div style=""font-size:60px;"">+</div>","null","","","","","","",""
"807.6599999330938","","image-keyboard-response","517","663944","0.0-6.0-0.99","","img/yellow.png","32","trial","null","false","0.2,0.8","4:nogo_d","",""
"null","","html-keyboard-response","518","664959","0.0-6.0-1.99","","<img src=""img/yellow-n.png"" border=""10"">","null","trial","null","","0.2,0.8","4:nogo_d","0",""
"null","","html-keyboard-response","519","665974","0.0-6.0-2.99","","<div style=""font-size:60px;"">+</div>","null","","","","","","",""
"820.6999999238178","","image-keyboard-response","520","666795","0.0-6.0-0.100","","img/yellow.png","32","trial","null","false","0.2,0.8","4:nogo_d","",""
"null","","html-keyboard-response","521","667798","0.0-6.0-1.100","","<img src=""img/yellow-r.png"" border=""10"">","null","trial","null","","0.2,0.8","4:nogo_d","1",""
"null","","html-keyboard-response","522","668809","0.0-6.0-2.100","","<div style=""font-size:60px;"">+</div>","null","","","","","","",""
"435.68500003311783","","image-keyboard-response","523","669246","0.0-6.0-0.101","","img/green.png","32","trial","32","true","0.8,0.2","3:go_c","",""
"null","","html-keyboard-response","524","670254","0.0-6.0-1.101","","<img src=""img/green-r.png"" border=""10"">","null","trial","32","","0.8,0.2","3:go_c","1",""
"null","","html-keyboard-response","525","671264","0.0-6.0-2.101","","<div style=""font-size:60px;"">+</div>","null","","","","","","",""
"403.4199999878183","","image-keyboard-response","526","671668","0.0-6.0-0.102","","img/purple.png","32","trial","32","true","0.8,0.2","1:go_a","",""
"null","","html-keyboard-response","527","672683","0.0-6.0-1.102","","<img src=""img/purple-r.png"" border=""10"">","null","trial","32","","0.8,0.2","1:go_a","1",""
"null","","html-keyboard-response","528","673692","0.0-6.0-2.102","","<div style=""font-size:60px;"">+</div>","null","","","","","","",""
"426.05000000912696","","image-keyboard-response","529","674119","0.0-6.0-0.103","","img/pink.png","32","trial","null","false","0.2,0.8","2:nogo_b","",""
"null","","html-keyboard-response","530","675125","0.0-6.0-1.103","","<img src=""img/pink-n.png"" border=""10"">","null","trial","null","","0.2,0.8","2:nogo_b","0",""
"null","","html-keyboard-response","531","676140","0.0-6.0-2.103","","<div style=""font-size:60px;"">+</div>","null","","","","","","",""
"null","","image-keyboard-response","532","677649","0.0-6.0-0.104","","img/purple.png","null","trial","32","false","0.8,0.2","1:go_a","",""
"null","","html-keyboard-response","533","678657","0.0-6.0-1.104","","<img src=""img/purple-r.png"">","null","trial","32","","0.8,0.2","1:go_a","1",""
"null","","html-keyboard-response","534","679669","0.0-6.0-2.104","","<div style=""font-size:60px;"">+</div>","null","","","","","","",""
"null","","image-keyboard-response","535","681175","0.0-6.0-0.105","","img/yellow.png","null","trial","null","true","0.2,0.8","4:nogo_d","",""
"null","","html-keyboard-response","536","682179","0.0-6.0-1.105","","<img src=""img/yellow-r.png"">","null","trial","null","","0.2,0.8","4:nogo_d","1",""
"null","","html-keyboard-response","537","683192","0.0-6.0-2.105","","<div style=""font-size:60px;"">+</div>","null","","","","","","",""
"407.55499992519617","","image-keyboard-response","538","683600","0.0-6.0-0.106","","img/green.png","32","trial","32","true","0.8,0.2","3:go_c","",""
"null","","html-keyboard-response","539","684614","0.0-6.0-1.106","","<img src=""img/green-r.png"" border=""10"">","null","trial","32","","0.8,0.2","3:go_c","1",""
"null","","html-keyboard-response","540","685618","0.0-6.0-2.106","","<div style=""font-size:60px;"">+</div>","null","","","","","","",""
"612.1699999785051","","image-keyboard-response","541","686231","0.0-6.0-0.107","","img/pink.png","32","trial","null","false","0.2,0.8","2:nogo_b","",""
"null","","html-keyboard-response","542","687242","0.0-6.0-1.107","","<img src=""img/pink-n.png"" border=""10"">","null","trial","null","","0.2,0.8","2:nogo_b","0",""
"null","","html-keyboard-response","543","688253","0.0-6.0-2.107","","<div style=""font-size:60px;"">+</div>","null","","","","","","",""
"950.4200000083074","","image-keyboard-response","544","689205","0.0-6.0-0.108","","img/green.png","32","trial","32","true","0.8,0.2","3:go_c","",""
"null","","html-keyboard-response","545","690213","0.0-6.0-1.108","","<img src=""img/green-r.png"" border=""10"">","null","trial","32","","0.8,0.2","3:go_c","1",""
"null","","html-keyboard-response","546","691224","0.0-6.0-2.108","","<div style=""font-size:60px;"">+</div>","null","","","","","","",""
"612.8650000318885","","image-keyboard-response","547","691837","0.0-6.0-0.109","","img/purple.png","32","trial","32","true","0.8,0.2","1:go_a","",""
"null","","html-keyboard-response","548","692839","0.0-6.0-1.109","","<img src=""img/purple-r.png"" border=""10"">","null","trial","32","","0.8,0.2","1:go_a","1",""
"null","","html-keyboard-response","549","693843","0.0-6.0-2.109","","<div style=""font-size:60px;"">+</div>","null","","","","","","",""
"null","","image-keyboard-response","550","695351","0.0-6.0-0.110","","img/pink.png","null","trial","null","true","0.2,0.8","2:nogo_b","",""
"null","","html-keyboard-response","551","696368","0.0-6.0-1.110","","<img src=""img/pink-r.png"">","null","trial","null","","0.2,0.8","2:nogo_b","1",""
"null","","html-keyboard-response","552","697375","0.0-6.0-2.110","","<div style=""font-size:60px;"">+</div>","null","","","","","","",""
"731.774999992922","","image-keyboard-response","553","698107","0.0-6.0-0.111","","img/yellow.png","32","trial","null","false","0.2,0.8","4:nogo_d","",""
"null","","html-keyboard-response","554","699121","0.0-6.0-1.111","","<img src=""img/yellow-n.png"" border=""10"">","null","trial","null","","0.2,0.8","4:nogo_d","0",""
"null","","html-keyboard-response","555","700133","0.0-6.0-2.111","","<div style=""font-size:60px;"">+</div>","null","","","","","","",""
"808.930000057444","","image-keyboard-response","556","700942","0.0-6.0-0.112","","img/purple.png","32","trial","32","true","0.8,0.2","1:go_a","",""
"null","","html-keyboard-response","557","701954","0.0-6.0-1.112","","<img src=""img/purple-r.png"" border=""10"">","null","trial","32","","0.8,0.2","1:go_a","1",""
"null","","html-keyboard-response","558","702961","0.0-6.0-2.112","","<div style=""font-size:60px;"">+</div>","null","","","","","","",""
"534.4000000040978","","image-keyboard-response","559","703496","0.0-6.0-0.113","","img/pink.png","32","trial","null","false","0.2,0.8","2:nogo_b","",""
"null","","html-keyboard-response","560","704506","0.0-6.0-1.113","","<img src=""img/pink-r.png"" border=""10"">","null","trial","null","","0.2,0.8","2:nogo_b","1",""
"null","","html-keyboard-response","561","705519","0.0-6.0-2.113","","<div style=""font-size:60px;"">+</div>","null","","","","","","",""
"578.8150000153109","","image-keyboard-response","562","706098","0.0-6.0-0.114","","img/green.png","32","trial","32","true","0.8,0.2","3:go_c","",""
"null","","html-keyboard-response","563","707108","0.0-6.0-1.114","","<img src=""img/green-r.png"" border=""10"">","null","trial","32","","0.8,0.2","3:go_c","1",""
"null","","html-keyboard-response","564","708121","0.0-6.0-2.114","","<div style=""font-size:60px;"">+</div>","null","","","","","","",""
"823.8950000377372","","image-keyboard-response","565","708946","0.0-6.0-0.115","","img/yellow.png","32","trial","null","false","0.2,0.8","4:nogo_d","",""
"null","","html-keyboard-response","566","709955","0.0-6.0-1.115","","<img src=""img/yellow-r.png"" border=""10"">","null","trial","null","","0.2,0.8","4:nogo_d","1",""
"null","","html-keyboard-response","567","710971","0.0-6.0-2.115","","<div style=""font-size:60px;"">+</div>","null","","","","","","",""
"488.96999994758517","","image-keyboard-response","568","711461","0.0-6.0-0.116","","img/pink.png","32","trial","null","false","0.2,0.8","2:nogo_b","",""
"null","","html-keyboard-response","569","712470","0.0-6.0-1.116","","<img src=""img/pink-r.png"" border=""10"">","null","trial","null","","0.2,0.8","2:nogo_b","1",""
"null","","html-keyboard-response","570","713482","0.0-6.0-2.116","","<div style=""font-size:60px;"">+</div>","null","","","","","","",""
"509.334999951534","","image-keyboard-response","571","713992","0.0-6.0-0.117","","img/yellow.png","32","trial","null","false","0.2,0.8","4:nogo_d","",""
"null","","html-keyboard-response","572","714995","0.0-6.0-1.117","","<img src=""img/yellow-r.png"" border=""10"">","null","trial","null","","0.2,0.8","4:nogo_d","1",""
"null","","html-keyboard-response","573","716006","0.0-6.0-2.117","","<div style=""font-size:60px;"">+</div>","null","","","","","","",""
"456.99999993667006","","image-keyboard-response","574","716464","0.0-6.0-0.118","","img/green.png","32","trial","32","true","0.8,0.2","3:go_c","",""
"null","","html-keyboard-response","575","717470","0.0-6.0-1.118","","<img src=""img/green-r.png"" border=""10"">","null","trial","32","","0.8,0.2","3:go_c","1",""
"null","","html-keyboard-response","576","718483","0.0-6.0-2.118","","<div style=""font-size:60px;"">+</div>","null","","","","","","",""
"424.02999999467283","","image-keyboard-response","577","718907","0.0-6.0-0.119","","img/purple.png","32","trial","32","true","0.8,0.2","1:go_a","",""
"null","","html-keyboard-response","578","719916","0.0-6.0-1.119","","<img src=""img/purple-n.png"" border=""10"">","null","trial","32","","0.8,0.2","1:go_a","0",""
"null","","html-keyboard-response","579","720925","0.0-6.0-2.119","","<div style=""font-size:60px;"">+</div>","null","","","","","","",""
"145620.15500001144","","instructions","580","866545","0.0-7.0","[{""page_index"":0,""viewing_time"":145619.85999997705}]","","","","","","","","",""
"null","","image-keyboard-response","581","868052","0.0-8.0-0.0","","img/purple.png","null","trial","32","false","0.6,0.4","1:go_a","",""
"null","","html-keyboard-response","582","869056","0.0-8.0-1.0","","<img src=""img/purple-n.png"">","null","trial","32","","0.6,0.4","1:go_a","0",""
"null","","html-keyboard-response","583","870072","0.0-8.0-2.0","","<div style=""font-size:60px;"">+</div>","null","","","","","","",""
"447.0199999632314","","image-keyboard-response","584","870520","0.0-8.0-0.1","","img/orange.png","32","trial","null","false","0.4,0.6","4:nogo_d","",""
"null","","html-keyboard-response","585","871521","0.0-8.0-1.1","","<img src=""img/orange-n.png"" border=""10"">","null","trial","null","","0.4,0.6","4:nogo_d","0",""
"null","","html-keyboard-response","586","872529","0.0-8.0-2.1","","<div style=""font-size:60px;"">+</div>","null","","","","","","",""
"null","","image-keyboard-response","587","874034","0.0-8.0-0.2","","img/blue.png","null","trial","null","true","0.4,0.6","2:nogo_b","",""
"null","","html-keyboard-response","588","875046","0.0-8.0-1.2","","<img src=""img/blue-r.png"">","null","trial","null","","0.4,0.6","2:nogo_b","1",""
"null","","html-keyboard-response","589","876060","0.0-8.0-2.2","","<div style=""font-size:60px;"">+</div>","null","","","","","","",""
"980.1750000333413","","image-keyboard-response","590","877041","0.0-8.0-0.3","","img/yellow.png","32","trial","32","true","0.6,0.4","3:go_c","",""
"null","","html-keyboard-response","591","878054","0.0-8.0-1.3","","<img src=""img/yellow-r.png"" border=""10"">","null","trial","32","","0.6,0.4","3:go_c","1",""
"null","","html-keyboard-response","592","879068","0.0-8.0-2.3","","<div style=""font-size:60px;"">+</div>","null","","","","","","",""
"835.069999913685","","image-keyboard-response","593","879904","0.0-8.0-0.4","","img/purple.png","32","trial","32","true","0.6,0.4","1:go_a","",""
"null","","html-keyboard-response","594","880910","0.0-8.0-1.4","","<img src=""img/purple-r.png"" border=""10"">","null","trial","32","","0.6,0.4","1:go_a","1",""
"null","","html-keyboard-response","595","881926","0.0-8.0-2.4","","<div style=""font-size:60px;"">+</div>","null","","","","","","",""
"986.254999996163","","image-keyboard-response","596","882913","0.0-8.0-0.5","","img/blue.png","32","trial","null","false","0.4,0.6","2:nogo_b","",""
"null","","html-keyboard-response","597","883920","0.0-8.0-1.5","","<img src=""img/blue-r.png"" border=""10"">","null","trial","null","","0.4,0.6","2:nogo_b","1",""
"null","","html-keyboard-response","598","884922","0.0-8.0-2.5","","<div style=""font-size:60px;"">+</div>","null","","","","","","",""
"590.4149999842048","","image-keyboard-response","599","885514","0.0-8.0-0.6","","img/orange.png","32","trial","null","false","0.4,0.6","4:nogo_d","",""
"null","","html-keyboard-response","600","886526","0.0-8.0-1.6","","<img src=""img/orange-n.png"" border=""10"">","null","trial","null","","0.4,0.6","4:nogo_d","0",""
"null","","html-keyboard-response","601","887541","0.0-8.0-2.6","","<div style=""font-size:60px;"">+</div>","null","","","","","","",""
"1275.5500000203028","","image-keyboard-response","602","888817","0.0-8.0-0.7","","img/yellow.png","32","trial","32","true","0.6,0.4","3:go_c","",""
"null","","html-keyboard-response","603","889823","0.0-8.0-1.7","","<img src=""img/yellow-r.png"" border=""10"">","null","trial","32","","0.6,0.4","3:go_c","1",""
"null","","html-keyboard-response","604","890835","0.0-8.0-2.7","","<div style=""font-size:60px;"">+</div>","null","","","","","","",""
"null","","image-keyboard-response","605","892342","0.0-8.0-0.8","","img/blue.png","null","trial","null","true","0.4,0.6","2:nogo_b","",""
"null","","html-keyboard-response","606","893356","0.0-8.0-1.8","","<img src=""img/blue-r.png"">","null","trial","null","","0.4,0.6","2:nogo_b","1",""
"null","","html-keyboard-response","607","894370","0.0-8.0-2.8","","<div style=""font-size:60px;"">+</div>","null","","","","","","",""
"null","","image-keyboard-response","608","895877","0.0-8.0-0.9","","img/purple.png","null","trial","32","false","0.6,0.4","1:go_a","",""
"null","","html-keyboard-response","609","896888","0.0-8.0-1.9","","<img src=""img/purple-r.png"">","null","trial","32","","0.6,0.4","1:go_a","1",""
"null","","html-keyboard-response","610","897902","0.0-8.0-2.9","","<div style=""font-size:60px;"">+</div>","null","","","","","","",""
"null","","image-keyboard-response","611","899417","0.0-8.0-0.10","","img/yellow.png","null","trial","32","false","0.6,0.4","3:go_c","",""
"null","","html-keyboard-response","612","900428","0.0-8.0-1.10","","<img src=""img/yellow-n.png"">","null","trial","32","","0.6,0.4","3:go_c","0",""
"null","","html-keyboard-response","613","901443","0.0-8.0-2.10","","<div style=""font-size:60px;"">+</div>","null","","","","","","",""
"1150.0450000166893","","image-keyboard-response","614","902593","0.0-8.0-0.11","","img/orange.png","32","trial","null","false","0.4,0.6","4:nogo_d","",""
"null","","html-keyboard-response","615","903606","0.0-8.0-1.11","","<img src=""img/orange-n.png"" border=""10"">","null","trial","null","","0.4,0.6","4:nogo_d","0",""
"null","","html-keyboard-response","616","904616","0.0-8.0-2.11","","<div style=""font-size:60px;"">+</div>","null","","","","","","",""
"null","","image-keyboard-response","617","906125","0.0-8.0-0.12","","img/purple.png","null","trial","32","false","0.6,0.4","1:go_a","",""
"null","","html-keyboard-response","618","907141","0.0-8.0-1.12","","<img src=""img/purple-r.png"">","null","trial","32","","0.6,0.4","1:go_a","1",""
"null","","html-keyboard-response","619","908153","0.0-8.0-2.12","","<div style=""font-size:60px;"">+</div>","null","","","","","","",""
"null","","image-keyboard-response","620","909660","0.0-8.0-0.13","","img/yellow.png","null","trial","32","false","0.6,0.4","3:go_c","",""
"null","","html-keyboard-response","621","910673","0.0-8.0-1.13","","<img src=""img/yellow-n.png"">","null","trial","32","","0.6,0.4","3:go_c","0",""
"null","","html-keyboard-response","622","911688","0.0-8.0-2.13","","<div style=""font-size:60px;"">+</div>","null","","","","","","",""
"790.1599999750033","","image-keyboard-response","623","912479","0.0-8.0-0.14","","img/orange.png","32","trial","null","false","0.4,0.6","4:nogo_d","",""
"null","","html-keyboard-response","624","913494","0.0-8.0-1.14","","<img src=""img/orange-r.png"" border=""10"">","null","trial","null","","0.4,0.6","4:nogo_d","1",""
"null","","html-keyboard-response","625","914495","0.0-8.0-2.14","","<div style=""font-size:60px;"">+</div>","null","","","","","","",""
"933.6899999761954","","image-keyboard-response","626","915429","0.0-8.0-0.15","","img/blue.png","32","trial","null","false","0.4,0.6","2:nogo_b","",""
"null","","html-keyboard-response","627","916437","0.0-8.0-1.15","","<img src=""img/blue-n.png"" border=""10"">","null","trial","null","","0.4,0.6","2:nogo_b","0",""
"null","","html-keyboard-response","628","917439","0.0-8.0-2.15","","<div style=""font-size:60px;"">+</div>","null","","","","","","",""
"764.0750000718981","","image-keyboard-response","629","918204","0.0-8.0-0.16","","img/yellow.png","32","trial","32","true","0.6,0.4","3:go_c","",""
"null","","html-keyboard-response","630","919212","0.0-8.0-1.16","","<img src=""img/yellow-n.png"" border=""10"">","null","trial","32","","0.6,0.4","3:go_c","0",""
"null","","html-keyboard-response","631","920217","0.0-8.0-2.16","","<div style=""font-size:60px;"">+</div>","null","","","","","","",""
"888.1050000200048","","image-keyboard-response","632","921105","0.0-8.0-0.17","","img/purple.png","32","trial","32","true","0.6,0.4","1:go_a","",""
"null","","html-keyboard-response","633","922115","0.0-8.0-1.17","","<img src=""img/purple-r.png"" border=""10"">","null","trial","32","","0.6,0.4","1:go_a","1",""
"null","","html-keyboard-response","634","923117","0.0-8.0-2.17","","<div style=""font-size:60px;"">+</div>","null","","","","","","",""
"null","","image-keyboard-response","635","924623","0.0-8.0-0.18","","img/orange.png","null","trial","null","true","0.4,0.6","4:nogo_d","",""
"null","","html-keyboard-response","636","925639","0.0-8.0-1.18","","<img src=""img/orange-r.png"">","null","trial","null","","0.4,0.6","4:nogo_d","1",""
"null","","html-keyboard-response","637","926653","0.0-8.0-2.18","","<div style=""font-size:60px;"">+</div>","null","","","","","","",""
"1248.3350000111386","","image-keyboard-response","638","927902","0.0-8.0-0.19","","img/blue.png","32","trial","null","false","0.4,0.6","2:nogo_b","",""
"null","","html-keyboard-response","639","928907","0.0-8.0-1.19","","<img src=""img/blue-n.png"" border=""10"">","null","trial","null","","0.4,0.6","2:nogo_b","0",""
"null","","html-keyboard-response","640","929914","0.0-8.0-2.19","","<div style=""font-size:60px;"">+</div>","null","","","","","","",""
"null","","image-keyboard-response","641","931431","0.0-8.0-0.20","","img/purple.png","null","trial","32","false","0.6,0.4","1:go_a","",""
"null","","html-keyboard-response","642","932447","0.0-8.0-1.20","","<img src=""img/purple-r.png"">","null","trial","32","","0.6,0.4","1:go_a","1",""
"null","","html-keyboard-response","643","933460","0.0-8.0-2.20","","<div style=""font-size:60px;"">+</div>","null","","","","","","",""
"null","","image-keyboard-response","644","934969","0.0-8.0-0.21","","img/orange.png","null","trial","null","true","0.4,0.6","4:nogo_d","",""
"null","","html-keyboard-response","645","935971","0.0-8.0-1.21","","<img src=""img/orange-r.png"">","null","trial","null","","0.4,0.6","4:nogo_d","1",""
"null","","html-keyboard-response","646","936983","0.0-8.0-2.21","","<div style=""font-size:60px;"">+</div>","null","","","","","","",""
"null","","image-keyboard-response","647","938496","0.0-8.0-0.22","","img/blue.png","null","trial","null","true","0.4,0.6","2:nogo_b","",""
"null","","html-keyboard-response","648","939512","0.0-8.0-1.22","","<img src=""img/blue-r.png"">","null","trial","null","","0.4,0.6","2:nogo_b","1",""
"null","","html-keyboard-response","649","940524","0.0-8.0-2.22","","<div style=""font-size:60px;"">+</div>","null","","","","","","",""
"452.614999958314","","image-keyboard-response","650","940977","0.0-8.0-0.23","","img/yellow.png","32","trial","32","true","0.6,0.4","3:go_c","",""
"null","","html-keyboard-response","651","941990","0.0-8.0-1.23","","<img src=""img/yellow-r.png"" border=""10"">","null","trial","32","","0.6,0.4","3:go_c","1",""
"null","","html-keyboard-response","652","943003","0.0-8.0-2.23","","<div style=""font-size:60px;"">+</div>","null","","","","","","",""
"607.700000051409","","image-keyboard-response","653","943611","0.0-8.0-0.24","","img/purple.png","32","trial","32","true","0.6,0.4","1:go_a","",""
"null","","html-keyboard-response","654","944624","0.0-8.0-1.24","","<img src=""img/purple-r.png"" border=""10"">","null","trial","32","","0.6,0.4","1:go_a","1",""
"null","","html-keyboard-response","655","945632","0.0-8.0-2.24","","<div style=""font-size:60px;"">+</div>","null","","","","","","",""
"410.01500003039837","","image-keyboard-response","656","946043","0.0-8.0-0.25","","img/orange.png","32","trial","null","false","0.4,0.6","4:nogo_d","",""
"null","","html-keyboard-response","657","947050","0.0-8.0-1.25","","<img src=""img/orange-r.png"" border=""10"">","null","trial","null","","0.4,0.6","4:nogo_d","1",""
"null","","html-keyboard-response","658","948060","0.0-8.0-2.25","","<div style=""font-size:60px;"">+</div>","null","","","","","","",""
"417.9550000699237","","image-keyboard-response","659","948479","0.0-8.0-0.26","","img/blue.png","32","trial","null","false","0.4,0.6","2:nogo_b","",""
"null","","html-keyboard-response","660","949494","0.0-8.0-1.26","","<img src=""img/blue-r.png"" border=""10"">","null","trial","null","","0.4,0.6","2:nogo_b","1",""
"null","","html-keyboard-response","661","950504","0.0-8.0-2.26","","<div style=""font-size:60px;"">+</div>","null","","","","","","",""
"520.9750001085922","","image-keyboard-response","662","951026","0.0-8.0-0.27","","img/yellow.png","32","trial","32","true","0.6,0.4","3:go_c","",""
"null","","html-keyboard-response","663","952036","0.0-8.0-1.27","","<img src=""img/yellow-r.png"" border=""10"">","null","trial","32","","0.6,0.4","3:go_c","1",""
"null","","html-keyboard-response","664","953044","0.0-8.0-2.27","","<div style=""font-size:60px;"">+</div>","null","","","","","","",""
"null","","image-keyboard-response","665","954555","0.0-8.0-0.28","","img/blue.png","null","trial","null","true","0.4,0.6","2:nogo_b","",""
"null","","html-keyboard-response","666","955567","0.0-8.0-1.28","","<img src=""img/blue-n.png"">","null","trial","null","","0.4,0.6","2:nogo_b","0",""
"null","","html-keyboard-response","667","956580","0.0-8.0-2.28","","<div style=""font-size:60px;"">+</div>","null","","","","","","",""
"null","","image-keyboard-response","668","958087","0.0-8.0-0.29","","img/purple.png","null","trial","32","false","0.6,0.4","1:go_a","",""
"null","","html-keyboard-response","669","959097","0.0-8.0-1.29","","<img src=""img/purple-n.png"">","null","trial","32","","0.6,0.4","1:go_a","0",""
"null","","html-keyboard-response","670","960106","0.0-8.0-2.29","","<div style=""font-size:60px;"">+</div>","null","","","","","","",""
"null","","image-keyboard-response","671","961621","0.0-8.0-0.30","","img/yellow.png","null","trial","32","false","0.6,0.4","3:go_c","",""
