"rt","url","trial_type","trial_index","time_elapsed","internal_node_id","view_history","stimulus","key_press","test_part","correct_response","correct","use_rew","which_stim","reward","responses"
"5915.915000005043","consent.html","external-html","0","5966","0.0-0.0","","","","","","","","","",""
"67615.04000000423","","instructions","1","73584","0.0-1.0","[{""page_index"":0,""viewing_time"":5827.460000000428},{""page_index"":1,""viewing_time"":11415.704999999434},{""page_index"":2,""viewing_time"":6700.864999998885},{""page_index"":3,""viewing_time"":7534.160000002885},{""page_index"":4,""viewing_time"":11377.24000000162},{""page_index"":5,""viewing_time"":6912.969999997586},{""page_index"":6,""viewing_time"":17845.195000001695}]","","","","","","","","",""
"null","","image-keyboard-response","2","75101","0.0-2.0-0.0","","img/test2.PNG","null","practice","null","true","","","",""
"null","","html-keyboard-response","3","76115","0.0-2.0-1.0","","<img src=""img/test2-reward.PNG"">","null","","","","","","",""
"null","","html-keyboard-response","4","77120","0.0-2.0-2.0","","<div style=""font-size:60px;"">+</div>","null","","","","","","",""
"538.0799999984447","","image-keyboard-response","5","77659","0.0-2.0-0.1","","img/test1.PNG","32","practice","32","true","","","",""
"null","","html-keyboard-response","6","78662","0.0-2.0-1.1","","<img src=""img/test1-reward.PNG"" border=""10px; grey"">","null","","","","","","",""
"null","","html-keyboard-response","7","79670","0.0-2.0-2.1","","<div style=""font-size:60px;"">+</div>","null","","","","","","",""
"null","","image-keyboard-response","8","81171","0.0-2.0-0.2","","img/test3.PNG","null","practice","null","true","","","",""
"null","","html-keyboard-response","9","82187","0.0-2.0-1.2","","<img src=""img/test3-reward.PNG"">","null","","","","","","",""
"null","","html-keyboard-response","10","83194","0.0-2.0-2.2","","<div style=""font-size:60px;"">+</div>","null","","","","","","",""
"479.32000000582775","","image-keyboard-response","11","83675","0.0-2.0-0.3","","img/test1.PNG","32","practice","32","true","","","",""
"null","","html-keyboard-response","12","84683","0.0-2.0-1.3","","<img src=""img/test1-reward.PNG"" border=""10px; grey"">","null","","","","","","",""
"null","","html-keyboard-response","13","85697","0.0-2.0-2.3","","<div style=""font-size:60px;"">+</div>","null","","","","","","",""
"null","","image-keyboard-response","14","87214","0.0-2.0-0.4","","img/test3.PNG","null","practice","null","true","","","",""
"null","","html-keyboard-response","15","88215","0.0-2.0-1.4","","<img src=""img/test3-reward.PNG"">","null","","","","","","",""
"null","","html-keyboard-response","16","89218","0.0-2.0-2.4","","<div style=""font-size:60px;"">+</div>","null","","","","","","",""
"null","","image-keyboard-response","17","90735","0.0-2.0-0.5","","img/test2.PNG","null","practice","null","true","","","",""
"null","","html-keyboard-response","18","91761","0.0-2.0-1.5","","<img src=""img/test2-reward.PNG"">","null","","","","","","",""
"null","","html-keyboard-response","19","92780","0.0-2.0-2.5","","<div style=""font-size:60px;"">+</div>","null","","","","","","",""
"null","","image-keyboard-response","20","94283","0.0-2.0-0.6","","img/test2.PNG","null","practice","null","true","","","",""
"null","","html-keyboard-response","21","95287","0.0-2.0-1.6","","<img src=""img/test2-reward.PNG"">","null","","","","","","",""
"null","","html-keyboard-response","22","96300","0.0-2.0-2.6","","<div style=""font-size:60px;"">+</div>","null","","","","","","",""
"null","","image-keyboard-response","23","97808","0.0-2.0-0.7","","img/test3.PNG","null","practice","null","true","","","",""
"null","","html-keyboard-response","24","98809","0.0-2.0-1.7","","<img src=""img/test3-reward.PNG"">","null","","","","","","",""
"null","","html-keyboard-response","25","99814","0.0-2.0-2.7","","<div style=""font-size:60px;"">+</div>","null","","","","","","",""
"400.63999999983935","","image-keyboard-response","26","100216","0.0-2.0-0.8","","img/test1.PNG","32","practice","32","true","","","",""
"null","","html-keyboard-response","27","101221","0.0-2.0-1.8","","<img src=""img/test1-reward.PNG"" border=""10px; grey"">","null","","","","","","",""
"null","","html-keyboard-response","28","102236","0.0-2.0-2.8","","<div style=""font-size:60px;"">+</div>","null","","","","","","",""
"557.2600000014063","","image-keyboard-response","29","102795","0.0-2.0-0.9","","img/test1.PNG","32","practice","32","true","","","",""
"null","","html-keyboard-response","30","103804","0.0-2.0-1.9","","<img src=""img/test1-reward.PNG"" border=""10px; grey"">","null","","","","","","",""
"null","","html-keyboard-response","31","104809","0.0-2.0-2.9","","<div style=""font-size:60px;"">+</div>","null","","","","","","",""
"null","","image-keyboard-response","32","106321","0.0-2.0-0.10","","img/test3.PNG","null","practice","null","true","","","",""
"null","","html-keyboard-response","33","107337","0.0-2.0-1.10","","<img src=""img/test3-reward.PNG"">","null","","","","","","",""
"null","","html-keyboard-response","34","108338","0.0-2.0-2.10","","<div style=""font-size:60px;"">+</div>","null","","","","","","",""
"null","","image-keyboard-response","35","109844","0.0-2.0-0.11","","img/test2.PNG","null","practice","null","true","","","",""
"null","","html-keyboard-response","36","110859","0.0-2.0-1.11","","<img src=""img/test2-reward.PNG"">","null","","","","","","",""
"null","","html-keyboard-response","37","111862","0.0-2.0-2.11","","<div style=""font-size:60px;"">+</div>","null","","","","","","",""
"2253.7200000006123","","instructions","38","114117","0.0-3.0","[{""page_index"":0,""viewing_time"":2253.4450000021025}]","","","","","","","","",""
"null","","image-keyboard-response","39","115623","0.0-4.0-0.0","","img/blue.png","null","trial","32","false","0.8,0.2","1:go_a","",""
"null","","html-keyboard-response","40","116640","0.0-4.0-1.0","","<img src=""img/blue-n.png"">","null","trial","32","","0.8,0.2","1:go_a","0",""
"null","","html-keyboard-response","41","117644","0.0-4.0-2.0","","<div style=""font-size:60px;"">+</div>","null","","","","","","",""
"null","","image-keyboard-response","42","119158","0.0-4.0-0.1","","img/grey.png","null","trial","null","true","0.2,0.8","2:nogo_b","",""
"null","","html-keyboard-response","43","120166","0.0-4.0-1.1","","<img src=""img/grey-r.png"">","null","trial","null","","0.2,0.8","2:nogo_b","1",""
"null","","html-keyboard-response","44","121178","0.0-4.0-2.1","","<div style=""font-size:60px;"">+</div>","null","","","","","","",""
"null","","image-keyboard-response","45","122681","0.0-4.0-0.2","","img/blue.png","null","trial","32","false","0.8,0.2","1:go_a","",""
"null","","html-keyboard-response","46","123683","0.0-4.0-1.2","","<img src=""img/blue-n.png"">","null","trial","32","","0.8,0.2","1:go_a","0",""
"null","","html-keyboard-response","47","124695","0.0-4.0-2.2","","<div style=""font-size:60px;"">+</div>","null","","","","","","",""
"null","","image-keyboard-response","48","126209","0.0-4.0-0.3","","img/grey.png","null","trial","null","true","0.2,0.8","2:nogo_b","",""
"null","","html-keyboard-response","49","127216","0.0-4.0-1.3","","<img src=""img/grey-r.png"">","null","trial","null","","0.2,0.8","2:nogo_b","1",""
"null","","html-keyboard-response","50","128229","0.0-4.0-2.3","","<div style=""font-size:60px;"">+</div>","null","","","","","","",""
"null","","image-keyboard-response","51","129737","0.0-4.0-0.4","","img/blue.png","null","trial","32","false","0.8,0.2","1:go_a","",""
"null","","html-keyboard-response","52","130742","0.0-4.0-1.4","","<img src=""img/blue-n.png"">","null","trial","32","","0.8,0.2","1:go_a","0",""
"null","","html-keyboard-response","53","131756","0.0-4.0-2.4","","<div style=""font-size:60px;"">+</div>","null","","","","","","",""
"null","","image-keyboard-response","54","133271","0.0-4.0-0.5","","img/grey.png","null","trial","null","true","0.2,0.8","2:nogo_b","",""
"null","","html-keyboard-response","55","134282","0.0-4.0-1.5","","<img src=""img/grey-r.png"">","null","trial","null","","0.2,0.8","2:nogo_b","1",""
"null","","html-keyboard-response","56","135292","0.0-4.0-2.5","","<div style=""font-size:60px;"">+</div>","null","","","","","","",""
"null","","image-keyboard-response","57","136805","0.0-4.0-0.6","","img/blue.png","null","trial","32","false","0.8,0.2","1:go_a","",""
"null","","html-keyboard-response","58","137811","0.0-4.0-1.6","","<img src=""img/blue-n.png"">","null","trial","32","","0.8,0.2","1:go_a","0",""
"null","","html-keyboard-response","59","138825","0.0-4.0-2.6","","<div style=""font-size:60px;"">+</div>","null","","","","","","",""
"null","","image-keyboard-response","60","140332","0.0-4.0-0.7","","img/grey.png","null","trial","null","true","0.2,0.8","2:nogo_b","",""
"null","","html-keyboard-response","61","141348","0.0-4.0-1.7","","<img src=""img/grey-r.png"">","null","trial","null","","0.2,0.8","2:nogo_b","1",""
"null","","html-keyboard-response","62","142354","0.0-4.0-2.7","","<div style=""font-size:60px;"">+</div>","null","","","","","","",""
"null","","image-keyboard-response","63","143858","0.0-4.0-0.8","","img/grey.png","null","trial","null","true","0.2,0.8","2:nogo_b","",""
"null","","html-keyboard-response","64","144867","0.0-4.0-1.8","","<img src=""img/grey-r.png"">","null","trial","null","","0.2,0.8","2:nogo_b","1",""
"null","","html-keyboard-response","65","145871","0.0-4.0-2.8","","<div style=""font-size:60px;"">+</div>","null","","","","","","",""
"744.5650000008754","","image-keyboard-response","66","146617","0.0-4.0-0.9","","img/blue.png","32","trial","32","true","0.8,0.2","1:go_a","",""
"null","","html-keyboard-response","67","147626","0.0-4.0-1.9","","<img src=""img/blue-r.png"" border=""10"">","null","trial","32","","0.8,0.2","1:go_a","1",""
"null","","html-keyboard-response","68","148645","0.0-4.0-2.9","","<div style=""font-size:60px;"">+</div>","null","","","","","","",""
"433.16500000219094","","image-keyboard-response","69","149079","0.0-4.0-0.10","","img/blue.png","32","trial","32","true","0.8,0.2","1:go_a","",""
"null","","html-keyboard-response","70","150088","0.0-4.0-1.10","","<img src=""img/blue-n.png"" border=""10"">","null","trial","32","","0.8,0.2","1:go_a","0",""
"null","","html-keyboard-response","71","151093","0.0-4.0-2.10","","<div style=""font-size:60px;"">+</div>","null","","","","","","",""
"733.169999999518","","image-keyboard-response","72","151827","0.0-4.0-0.11","","img/grey.png","32","trial","null","false","0.2,0.8","2:nogo_b","",""
"null","","html-keyboard-response","73","152840","0.0-4.0-1.11","","<img src=""img/grey-n.png"" border=""10"">","null","trial","null","","0.2,0.8","2:nogo_b","0",""
"null","","html-keyboard-response","74","153844","0.0-4.0-2.11","","<div style=""font-size:60px;"">+</div>","null","","","","","","",""
"491.96999999549007","","image-keyboard-response","75","154337","0.0-4.0-0.12","","img/grey.png","32","trial","null","false","0.2,0.8","2:nogo_b","",""
"null","","html-keyboard-response","76","155339","0.0-4.0-1.12","","<img src=""img/grey-n.png"" border=""10"">","null","trial","null","","0.2,0.8","2:nogo_b","0",""
"null","","html-keyboard-response","77","156355","0.0-4.0-2.12","","<div style=""font-size:60px;"">+</div>","null","","","","","","",""
"471.06000000349013","","image-keyboard-response","78","156827","0.0-4.0-0.13","","img/blue.png","32","trial","32","true","0.8,0.2","1:go_a","",""
"null","","html-keyboard-response","79","157840","0.0-4.0-1.13","","<img src=""img/blue-r.png"" border=""10"">","null","trial","32","","0.8,0.2","1:go_a","1",""
"null","","html-keyboard-response","80","158853","0.0-4.0-2.13","","<div style=""font-size:60px;"">+</div>","null","","","","","","",""
"null","","image-keyboard-response","81","160367","0.0-4.0-0.14","","img/grey.png","null","trial","null","true","0.2,0.8","2:nogo_b","",""
"null","","html-keyboard-response","82","161383","0.0-4.0-1.14","","<img src=""img/grey-r.png"">","null","trial","null","","0.2,0.8","2:nogo_b","1",""
"null","","html-keyboard-response","83","162396","0.0-4.0-2.14","","<div style=""font-size:60px;"">+</div>","null","","","","","","",""
"519.7499999994761","","image-keyboard-response","84","162916","0.0-4.0-0.15","","img/blue.png","32","trial","32","true","0.8,0.2","1:go_a","",""
"null","","html-keyboard-response","85","163926","0.0-4.0-1.15","","<img src=""img/blue-n.png"" border=""10"">","null","trial","32","","0.8,0.2","1:go_a","0",""
"null","","html-keyboard-response","86","164935","0.0-4.0-2.15","","<div style=""font-size:60px;"">+</div>","null","","","","","","",""
"null","","image-keyboard-response","87","166439","0.0-4.0-0.16","","img/grey.png","null","trial","null","true","0.2,0.8","2:nogo_b","",""
"null","","html-keyboard-response","88","167445","0.0-4.0-1.16","","<img src=""img/grey-r.png"">","null","trial","null","","0.2,0.8","2:nogo_b","1",""
"null","","html-keyboard-response","89","168457","0.0-4.0-2.16","","<div style=""font-size:60px;"">+</div>","null","","","","","","",""
"436.24999999883585","","image-keyboard-response","90","168894","0.0-4.0-0.17","","img/blue.png","32","trial","32","true","0.8,0.2","1:go_a","",""
"null","","html-keyboard-response","91","169906","0.0-4.0-1.17","","<img src=""img/blue-r.png"" border=""10"">","null","trial","32","","0.8,0.2","1:go_a","1",""
"null","","html-keyboard-response","92","170908","0.0-4.0-2.17","","<div style=""font-size:60px;"">+</div>","null","","","","","","",""
"null","","image-keyboard-response","93","172417","0.0-4.0-0.18","","img/grey.png","null","trial","null","true","0.2,0.8","2:nogo_b","",""
"null","","html-keyboard-response","94","173434","0.0-4.0-1.18","","<img src=""img/grey-r.png"">","null","trial","null","","0.2,0.8","2:nogo_b","1",""
"null","","html-keyboard-response","95","174449","0.0-4.0-2.18","","<div style=""font-size:60px;"">+</div>","null","","","","","","",""
"509.18499999534106","","image-keyboard-response","96","174959","0.0-4.0-0.19","","img/blue.png","32","trial","32","true","0.8,0.2","1:go_a","",""
"null","","html-keyboard-response","97","175970","0.0-4.0-1.19","","<img src=""img/blue-r.png"" border=""10"">","null","trial","32","","0.8,0.2","1:go_a","1",""
"null","","html-keyboard-response","98","176980","0.0-4.0-2.19","","<div style=""font-size:60px;"">+</div>","null","","","","","","",""
"null","","image-keyboard-response","99","178497","0.0-4.0-0.20","","img/blue.png","null","trial","32","false","0.8,0.2","1:go_a","",""
"null","","html-keyboard-response","100","179504","0.0-4.0-1.20","","<img src=""img/blue-r.png"">","null","trial","32","","0.8,0.2","1:go_a","1",""
"null","","html-keyboard-response","101","180518","0.0-4.0-2.20","","<div style=""font-size:60px;"">+</div>","null","","","","","","",""
"783.1099999966682","","image-keyboard-response","102","181303","0.0-4.0-0.21","","img/grey.png","32","trial","null","false","0.2,0.8","2:nogo_b","",""
"null","","html-keyboard-response","103","182319","0.0-4.0-1.21","","<img src=""img/grey-r.png"" border=""10"">","null","trial","null","","0.2,0.8","2:nogo_b","1",""
"null","","html-keyboard-response","104","183324","0.0-4.0-2.21","","<div style=""font-size:60px;"">+</div>","null","","","","","","",""
"639.1849999999977","","image-keyboard-response","105","183966","0.0-4.0-0.22","","img/grey.png","32","trial","null","false","0.2,0.8","2:nogo_b","",""
"null","","html-keyboard-response","106","184983","0.0-4.0-1.22","","<img src=""img/grey-r.png"" border=""10"">","null","trial","null","","0.2,0.8","2:nogo_b","1",""
"null","","html-keyboard-response","107","185996","0.0-4.0-2.22","","<div style=""font-size:60px;"">+</div>","null","","","","","","",""
"618.4500000017579","","image-keyboard-response","108","186615","0.0-4.0-0.23","","img/blue.png","32","trial","32","true","0.8,0.2","1:go_a","",""
"null","","html-keyboard-response","109","187617","0.0-4.0-1.23","","<img src=""img/blue-r.png"" border=""10"">","null","trial","32","","0.8,0.2","1:go_a","1",""
"null","","html-keyboard-response","110","188632","0.0-4.0-2.23","","<div style=""font-size:60px;"">+</div>","null","","","","","","",""
"617.4649999957182","","image-keyboard-response","111","189251","0.0-4.0-0.24","","img/blue.png","32","trial","32","true","0.8,0.2","1:go_a","",""
"null","","html-keyboard-response","112","190267","0.0-4.0-1.24","","<img src=""img/blue-r.png"" border=""10"">","null","trial","32","","0.8,0.2","1:go_a","1",""
"null","","html-keyboard-response","113","191273","0.0-4.0-2.24","","<div style=""font-size:60px;"">+</div>","null","","","","","","",""
"null","","image-keyboard-response","114","192779","0.0-4.0-0.25","","img/grey.png","null","trial","null","true","0.2,0.8","2:nogo_b","",""
"null","","html-keyboard-response","115","193787","0.0-4.0-1.25","","<img src=""img/grey-r.png"">","null","trial","null","","0.2,0.8","2:nogo_b","1",""
"null","","html-keyboard-response","116","194794","0.0-4.0-2.25","","<div style=""font-size:60px;"">+</div>","null","","","","","","",""
"466.9499999945401","","image-keyboard-response","117","195262","0.0-4.0-0.26","","img/blue.png","32","trial","32","true","0.8,0.2","1:go_a","",""
"null","","html-keyboard-response","118","196279","0.0-4.0-1.26","","<img src=""img/blue-r.png"" border=""10"">","null","trial","32","","0.8,0.2","1:go_a","1",""
"null","","html-keyboard-response","119","197294","0.0-4.0-2.26","","<div style=""font-size:60px;"">+</div>","null","","","","","","",""
"900.099999998929","","image-keyboard-response","120","198195","0.0-4.0-0.27","","img/grey.png","32","trial","null","false","0.2,0.8","2:nogo_b","",""
"null","","html-keyboard-response","121","199210","0.0-4.0-1.27","","<img src=""img/grey-n.png"" border=""10"">","null","trial","null","","0.2,0.8","2:nogo_b","0",""
"null","","html-keyboard-response","122","200226","0.0-4.0-2.27","","<div style=""font-size:60px;"">+</div>","null","","","","","","",""
"331.79000000382075","","image-keyboard-response","123","200559","0.0-4.0-0.28","","img/blue.png","32","trial","32","true","0.8,0.2","1:go_a","",""
"null","","html-keyboard-response","124","201561","0.0-4.0-1.28","","<img src=""img/blue-n.png"" border=""10"">","null","trial","32","","0.8,0.2","1:go_a","0",""
"null","","html-keyboard-response","125","202577","0.0-4.0-2.28","","<div style=""font-size:60px;"">+</div>","null","","","","","","",""
"874.9700000043958","","image-keyboard-response","126","203453","0.0-4.0-0.29","","img/grey.png","32","trial","null","false","0.2,0.8","2:nogo_b","",""
"null","","html-keyboard-response","127","204459","0.0-4.0-1.29","","<img src=""img/grey-n.png"" border=""10"">","null","trial","null","","0.2,0.8","2:nogo_b","0",""
"null","","html-keyboard-response","128","205470","0.0-4.0-2.29","","<div style=""font-size:60px;"">+</div>","null","","","","","","",""
"353.6999999996624","","image-keyboard-response","129","205825","0.0-4.0-0.30","","img/blue.png","32","trial","32","true","0.8,0.2","1:go_a","",""
"null","","html-keyboard-response","130","206840","0.0-4.0-1.30","","<img src=""img/blue-r.png"" border=""10"">","null","trial","32","","0.8,0.2","1:go_a","1",""
"null","","html-keyboard-response","131","207843","0.0-4.0-2.30","","<div style=""font-size:60px;"">+</div>","null","","","","","","",""
"550.054999999702","","image-keyboard-response","132","208394","0.0-4.0-0.31","","img/grey.png","32","trial","null","false","0.2,0.8","2:nogo_b","",""
"null","","html-keyboard-response","133","209412","0.0-4.0-1.31","","<img src=""img/grey-r.png"" border=""10"">","null","trial","null","","0.2,0.8","2:nogo_b","1",""
"null","","html-keyboard-response","134","210420","0.0-4.0-2.31","","<div style=""font-size:60px;"">+</div>","null","","","","","","",""
"315.04499999573454","","image-keyboard-response","135","210736","0.0-4.0-0.32","","img/blue.png","32","trial","32","true","0.8,0.2","1:go_a","",""
"null","","html-keyboard-response","136","211754","0.0-4.0-1.32","","<img src=""img/blue-r.png"" border=""10"">","null","trial","32","","0.8,0.2","1:go_a","1",""
"null","","html-keyboard-response","137","212760","0.0-4.0-2.32","","<div style=""font-size:60px;"">+</div>","null","","","","","","",""
"null","","image-keyboard-response","138","214275","0.0-4.0-0.33","","img/grey.png","null","trial","null","true","0.2,0.8","2:nogo_b","",""
"null","","html-keyboard-response","139","215287","0.0-4.0-1.33","","<img src=""img/grey-n.png"">","null","trial","null","","0.2,0.8","2:nogo_b","0",""
"null","","html-keyboard-response","140","216296","0.0-4.0-2.33","","<div style=""font-size:60px;"">+</div>","null","","","","","","",""
"523.8450000033481","","image-keyboard-response","141","216821","0.0-4.0-0.34","","img/blue.png","32","trial","32","true","0.8,0.2","1:go_a","",""
"null","","html-keyboard-response","142","217825","0.0-4.0-1.34","","<img src=""img/blue-r.png"" border=""10"">","null","trial","32","","0.8,0.2","1:go_a","1",""
"null","","html-keyboard-response","143","218834","0.0-4.0-2.34","","<div style=""font-size:60px;"">+</div>","null","","","","","","",""
"712.1249999981956","","image-keyboard-response","144","219547","0.0-4.0-0.35","","img/grey.png","32","trial","null","false","0.2,0.8","2:nogo_b","",""
"null","","html-keyboard-response","145","220552","0.0-4.0-1.35","","<img src=""img/grey-n.png"" border=""10"">","null","trial","null","","0.2,0.8","2:nogo_b","0",""
"null","","html-keyboard-response","146","221567","0.0-4.0-2.35","","<div style=""font-size:60px;"">+</div>","null","","","","","","",""
"387.47000000148546","","image-keyboard-response","147","221955","0.0-4.0-0.36","","img/blue.png","32","trial","32","true","0.8,0.2","1:go_a","",""
"null","","html-keyboard-response","148","222964","0.0-4.0-1.36","","<img src=""img/blue-r.png"" border=""10"">","null","trial","32","","0.8,0.2","1:go_a","1",""
"null","","html-keyboard-response","149","223980","0.0-4.0-2.36","","<div style=""font-size:60px;"">+</div>","null","","","","","","",""
"null","","image-keyboard-response","150","225499","0.0-4.0-0.37","","img/grey.png","null","trial","null","true","0.2,0.8","2:nogo_b","",""
"null","","html-keyboard-response","151","226505","0.0-4.0-1.37","","<img src=""img/grey-r.png"">","null","trial","null","","0.2,0.8","2:nogo_b","1",""
"null","","html-keyboard-response","152","227521","0.0-4.0-2.37","","<div style=""font-size:60px;"">+</div>","null","","","","","","",""
"332.8750000000582","","image-keyboard-response","153","227855","0.0-4.0-0.38","","img/blue.png","32","trial","32","true","0.8,0.2","1:go_a","",""
"null","","html-keyboard-response","154","228868","0.0-4.0-1.38","","<img src=""img/blue-n.png"" border=""10"">","null","trial","32","","0.8,0.2","1:go_a","0",""
"null","","html-keyboard-response","155","229870","0.0-4.0-2.38","","<div style=""font-size:60px;"">+</div>","null","","","","","","",""
"539.5150000040303","","image-keyboard-response","156","230410","0.0-4.0-0.39","","img/grey.png","32","trial","null","false","0.2,0.8","2:nogo_b","",""
"null","","html-keyboard-response","157","231420","0.0-4.0-1.39","","<img src=""img/grey-n.png"" border=""10"">","null","trial","null","","0.2,0.8","2:nogo_b","0",""
"null","","html-keyboard-response","158","232436","0.0-4.0-2.39","","<div style=""font-size:60px;"">+</div>","null","","","","","","",""
"379.76999999955297","","image-keyboard-response","159","232817","0.0-4.0-0.40","","img/blue.png","32","trial","32","true","0.8,0.2","1:go_a","",""
"null","","html-keyboard-response","160","233824","0.0-4.0-1.40","","<img src=""img/blue-n.png"" border=""10"">","null","trial","32","","0.8,0.2","1:go_a","0",""
"null","","html-keyboard-response","161","234840","0.0-4.0-2.40","","<div style=""font-size:60px;"">+</div>","null","","","","","","",""
"411.2299999978859","","image-keyboard-response","162","235252","0.0-4.0-0.41","","img/grey.png","32","trial","null","false","0.2,0.8","2:nogo_b","",""
"null","","html-keyboard-response","163","236261","0.0-4.0-1.41","","<img src=""img/grey-n.png"" border=""10"">","null","trial","null","","0.2,0.8","2:nogo_b","0",""
"null","","html-keyboard-response","164","237267","0.0-4.0-2.41","","<div style=""font-size:60px;"">+</div>","null","","","","","","",""
"409.9950000017998","","image-keyboard-response","165","237678","0.0-4.0-0.42","","img/blue.png","32","trial","32","true","0.8,0.2","1:go_a","",""
"null","","html-keyboard-response","166","238694","0.0-4.0-1.42","","<img src=""img/blue-n.png"" border=""10"">","null","trial","32","","0.8,0.2","1:go_a","0",""
"null","","html-keyboard-response","167","239708","0.0-4.0-2.42","","<div style=""font-size:60px;"">+</div>","null","","","","","","",""
"340.7450000013341","","image-keyboard-response","168","240049","0.0-4.0-0.43","","img/grey.png","32","trial","null","false","0.2,0.8","2:nogo_b","",""
"null","","html-keyboard-response","169","241061","0.0-4.0-1.43","","<img src=""img/grey-n.png"" border=""10"">","null","trial","null","","0.2,0.8","2:nogo_b","0",""
"null","","html-keyboard-response","170","242071","0.0-4.0-2.43","","<div style=""font-size:60px;"">+</div>","null","","","","","","",""
"790.7199999972363","","image-keyboard-response","171","242863","0.0-4.0-0.44","","img/grey.png","32","trial","null","false","0.2,0.8","2:nogo_b","",""
"null","","html-keyboard-response","172","243875","0.0-4.0-1.44","","<img src=""img/grey-n.png"" border=""10"">","null","trial","null","","0.2,0.8","2:nogo_b","0",""
"null","","html-keyboard-response","173","244889","0.0-4.0-2.44","","<div style=""font-size:60px;"">+</div>","null","","","","","","",""
"576.6349999976228","","image-keyboard-response","174","245467","0.0-4.0-0.45","","img/blue.png","32","trial","32","true","0.8,0.2","1:go_a","",""
"null","","html-keyboard-response","175","246483","0.0-4.0-1.45","","<img src=""img/blue-r.png"" border=""10"">","null","trial","32","","0.8,0.2","1:go_a","1",""
"null","","html-keyboard-response","176","247499","0.0-4.0-2.45","","<div style=""font-size:60px;"">+</div>","null","","","","","","",""
"null","","image-keyboard-response","177","249005","0.0-4.0-0.46","","img/grey.png","null","trial","null","true","0.2,0.8","2:nogo_b","",""
"null","","html-keyboard-response","178","250028","0.0-4.0-1.46","","<img src=""img/grey-r.png"">","null","trial","null","","0.2,0.8","2:nogo_b","1",""
"null","","html-keyboard-response","179","251039","0.0-4.0-2.46","","<div style=""font-size:60px;"">+</div>","null","","","","","","",""
"414.36999999859836","","image-keyboard-response","180","251454","0.0-4.0-0.47","","img/blue.png","32","trial","32","true","0.8,0.2","1:go_a","",""
"null","","html-keyboard-response","181","252465","0.0-4.0-1.47","","<img src=""img/blue-r.png"" border=""10"">","null","trial","32","","0.8,0.2","1:go_a","1",""
"null","","html-keyboard-response","182","253475","0.0-4.0-2.47","","<div style=""font-size:60px;"">+</div>","null","","","","","","",""
"461.91499999986263","","image-keyboard-response","183","253938","0.0-4.0-0.48","","img/blue.png","32","trial","32","true","0.8,0.2","1:go_a","",""
"null","","html-keyboard-response","184","254945","0.0-4.0-1.48","","<img src=""img/blue-r.png"" border=""10"">","null","trial","32","","0.8,0.2","1:go_a","1",""
"null","","html-keyboard-response","185","255948","0.0-4.0-2.48","","<div style=""font-size:60px;"">+</div>","null","","","","","","",""
"null","","image-keyboard-response","186","257450","0.0-4.0-0.49","","img/grey.png","null","trial","null","true","0.2,0.8","2:nogo_b","",""
"null","","html-keyboard-response","187","258473","0.0-4.0-1.49","","<img src=""img/grey-r.png"">","null","trial","null","","0.2,0.8","2:nogo_b","1",""
"null","","html-keyboard-response","188","259484","0.0-4.0-2.49","","<div style=""font-size:60px;"">+</div>","null","","","","","","",""
"null","","image-keyboard-response","189","260998","0.0-4.0-0.50","","img/grey.png","null","trial","null","true","0.2,0.8","2:nogo_b","",""
"null","","html-keyboard-response","190","262012","0.0-4.0-1.50","","<img src=""img/grey-r.png"">","null","trial","null","","0.2,0.8","2:nogo_b","1",""
"null","","html-keyboard-response","191","263014","0.0-4.0-2.50","","<div style=""font-size:60px;"">+</div>","null","","","","","","",""
"633.590000004915","","image-keyboard-response","192","263649","0.0-4.0-0.51","","img/blue.png","32","trial","32","true","0.8,0.2","1:go_a","",""
"null","","html-keyboard-response","193","264652","0.0-4.0-1.51","","<img src=""img/blue-r.png"" border=""10"">","null","trial","32","","0.8,0.2","1:go_a","1",""
"null","","html-keyboard-response","194","265656","0.0-4.0-2.51","","<div style=""font-size:60px;"">+</div>","null","","","","","","",""
"550.1850000000559","","image-keyboard-response","195","266207","0.0-4.0-0.52","","img/blue.png","32","trial","32","true","0.8,0.2","1:go_a","",""
"null","","html-keyboard-response","196","267218","0.0-4.0-1.52","","<img src=""img/blue-n.png"" border=""10"">","null","trial","32","","0.8,0.2","1:go_a","0",""
"null","","html-keyboard-response","197","268219","0.0-4.0-2.52","","<div style=""font-size:60px;"">+</div>","null","","","","","","",""
"null","","image-keyboard-response","198","269726","0.0-4.0-0.53","","img/grey.png","null","trial","null","true","0.2,0.8","2:nogo_b","",""
"null","","html-keyboard-response","199","270742","0.0-4.0-1.53","","<img src=""img/grey-r.png"">","null","trial","null","","0.2,0.8","2:nogo_b","1",""
"null","","html-keyboard-response","200","271749","0.0-4.0-2.53","","<div style=""font-size:60px;"">+</div>","null","","","","","","",""
"null","","image-keyboard-response","201","273262","0.0-4.0-0.54","","img/grey.png","null","trial","null","true","0.2,0.8","2:nogo_b","",""
"null","","html-keyboard-response","202","274267","0.0-4.0-1.54","","<img src=""img/grey-r.png"">","null","trial","null","","0.2,0.8","2:nogo_b","1",""
"null","","html-keyboard-response","203","275268","0.0-4.0-2.54","","<div style=""font-size:60px;"">+</div>","null","","","","","","",""
"323.17999999941094","","image-keyboard-response","204","275593","0.0-4.0-0.55","","img/blue.png","32","trial","32","true","0.8,0.2","1:go_a","",""
"null","","html-keyboard-response","205","276607","0.0-4.0-1.55","","<img src=""img/blue-r.png"" border=""10"">","null","trial","32","","0.8,0.2","1:go_a","1",""
"null","","html-keyboard-response","206","277615","0.0-4.0-2.55","","<div style=""font-size:60px;"">+</div>","null","","","","","","",""
"null","","image-keyboard-response","207","279122","0.0-4.0-0.56","","img/grey.png","null","trial","null","true","0.2,0.8","2:nogo_b","",""
"null","","html-keyboard-response","208","280128","0.0-4.0-1.56","","<img src=""img/grey-r.png"">","null","trial","null","","0.2,0.8","2:nogo_b","1",""
"null","","html-keyboard-response","209","281139","0.0-4.0-2.56","","<div style=""font-size:60px;"">+</div>","null","","","","","","",""
"449.18999999936204","","image-keyboard-response","210","281589","0.0-4.0-0.57","","img/blue.png","32","trial","32","true","0.8,0.2","1:go_a","",""
"null","","html-keyboard-response","211","282602","0.0-4.0-1.57","","<img src=""img/blue-n.png"" border=""10"">","null","trial","32","","0.8,0.2","1:go_a","0",""
"null","","html-keyboard-response","212","283618","0.0-4.0-2.57","","<div style=""font-size:60px;"">+</div>","null","","","","","","",""
"387.510000000475","","image-keyboard-response","213","284007","0.0-4.0-0.58","","img/blue.png","32","trial","32","true","0.8,0.2","1:go_a","",""
"null","","html-keyboard-response","214","285008","0.0-4.0-1.58","","<img src=""img/blue-r.png"" border=""10"">","null","trial","32","","0.8,0.2","1:go_a","1",""
"null","","html-keyboard-response","215","286010","0.0-4.0-2.58","","<div style=""font-size:60px;"">+</div>","null","","","","","","",""
"null","","image-keyboard-response","216","287522","0.0-4.0-0.59","","img/grey.png","null","trial","null","true","0.2,0.8","2:nogo_b","",""
"null","","html-keyboard-response","217","288531","0.0-4.0-1.59","","<img src=""img/grey-r.png"">","null","trial","null","","0.2,0.8","2:nogo_b","1",""
"null","","html-keyboard-response","218","289533","0.0-4.0-2.59","","<div style=""font-size:60px;"">+</div>","null","","","","","","",""
"3061.9500000029802","","instructions","219","292595","0.0-5.0","[{""page_index"":0,""viewing_time"":3061.6550000049756}]","","","","","","","","",""
"876.8649999983609","","image-keyboard-response","220","293474","0.0-6.0-0.0","","img/yellow.png","32","trial","32","true","0.6,0.4","3:go_c","",""
"null","","html-keyboard-response","221","294490","0.0-6.0-1.0","","<img src=""img/yellow-r.png"" border=""10"">","null","trial","32","","0.6,0.4","3:go_c","1",""
"null","","html-keyboard-response","222","295506","0.0-6.0-2.0","","<div style=""font-size:60px;"">+</div>","null","","","","","","",""
"532.1100000001024","","image-keyboard-response","223","296039","0.0-6.0-0.1","","img/orange.png","32","trial","32","true","0.6,0.4","1:go_a","",""
"null","","html-keyboard-response","224","297047","0.0-6.0-1.1","","<img src=""img/orange-n.png"" border=""10"">","null","trial","32","","0.6,0.4","1:go_a","0",""
"null","","html-keyboard-response","225","298055","0.0-6.0-2.1","","<div style=""font-size:60px;"">+</div>","null","","","","","","",""
"601.7849999989267","","image-keyboard-response","226","298658","0.0-6.0-0.2","","img/green.png","32","trial","null","false","0.4,0.6","2:nogo_b","",""
"null","","html-keyboard-response","227","299660","0.0-6.0-1.2","","<img src=""img/green-n.png"" border=""10"">","null","trial","null","","0.4,0.6","2:nogo_b","0",""
"null","","html-keyboard-response","228","300676","0.0-6.0-2.2","","<div style=""font-size:60px;"">+</div>","null","","","","","","",""
"570.9749999950873","","image-keyboard-response","229","301248","0.0-6.0-0.3","","img/red.png","32","trial","null","false","0.4,0.6","4:nogo_d","",""
"null","","html-keyboard-response","230","302265","0.0-6.0-1.3","","<img src=""img/red-n.png"" border=""10"">","null","trial","null","","0.4,0.6","4:nogo_d","0",""
"null","","html-keyboard-response","231","303267","0.0-6.0-2.3","","<div style=""font-size:60px;"">+</div>","null","","","","","","",""
"534.509999997681","","image-keyboard-response","232","303803","0.0-6.0-0.4","","img/red.png","32","trial","null","false","0.4,0.6","4:nogo_d","",""
"null","","html-keyboard-response","233","304806","0.0-6.0-1.4","","<img src=""img/red-n.png"" border=""10"">","null","trial","null","","0.4,0.6","4:nogo_d","0",""
"null","","html-keyboard-response","234","305810","0.0-6.0-2.4","","<div style=""font-size:60px;"">+</div>","null","","","","","","",""
"null","","image-keyboard-response","235","307314","0.0-6.0-0.5","","img/orange.png","null","trial","32","false","0.6,0.4","1:go_a","",""
"null","","html-keyboard-response","236","308326","0.0-6.0-1.5","","<img src=""img/orange-r.png"">","null","trial","32","","0.6,0.4","1:go_a","1",""
"null","","html-keyboard-response","237","309330","0.0-6.0-2.5","","<div style=""font-size:60px;"">+</div>","null","","","","","","",""
"444.2699999999604","","image-keyboard-response","238","309775","0.0-6.0-0.6","","img/yellow.png","32","trial","32","true","0.6,0.4","3:go_c","",""
"null","","html-keyboard-response","239","310784","0.0-6.0-1.6","","<img src=""img/yellow-r.png"" border=""10"">","null","trial","32","","0.6,0.4","3:go_c","1",""
"null","","html-keyboard-response","240","311794","0.0-6.0-2.6","","<div style=""font-size:60px;"">+</div>","null","","","","","","",""
"null","","image-keyboard-response","241","313310","0.0-6.0-0.7","","img/green.png","null","trial","null","true","0.4,0.6","2:nogo_b","",""
"null","","html-keyboard-response","242","314314","0.0-6.0-1.7","","<img src=""img/green-r.png"">","null","trial","null","","0.4,0.6","2:nogo_b","1",""
"null","","html-keyboard-response","243","315328","0.0-6.0-2.7","","<div style=""font-size:60px;"">+</div>","null","","","","","","",""
"null","","image-keyboard-response","244","316833","0.0-6.0-0.8","","img/red.png","null","trial","null","true","0.4,0.6","4:nogo_d","",""
"null","","html-keyboard-response","245","317844","0.0-6.0-1.8","","<img src=""img/red-r.png"">","null","trial","null","","0.4,0.6","4:nogo_d","1",""
"null","","html-keyboard-response","246","318845","0.0-6.0-2.8","","<div style=""font-size:60px;"">+</div>","null","","","","","","",""
"628.499999998894","","image-keyboard-response","247","319475","0.0-6.0-0.9","","img/yellow.png","32","trial","32","true","0.6,0.4","3:go_c","",""
"null","","html-keyboard-response","248","320484","0.0-6.0-1.9","","<img src=""img/yellow-n.png"" border=""10"">","null","trial","32","","0.6,0.4","3:go_c","0",""
"null","","html-keyboard-response","249","321496","0.0-6.0-2.9","","<div style=""font-size:60px;"">+</div>","null","","","","","","",""
"333.8750000038999","","image-keyboard-response","250","321831","0.0-6.0-0.10","","img/green.png","32","trial","null","false","0.4,0.6","2:nogo_b","",""
"null","","html-keyboard-response","251","322844","0.0-6.0-1.10","","<img src=""img/green-r.png"" border=""10"">","null","trial","null","","0.4,0.6","2:nogo_b","1",""
"null","","html-keyboard-response","252","323846","0.0-6.0-2.10","","<div style=""font-size:60px;"">+</div>","null","","","","","","",""
"433.7299999970128","","image-keyboard-response","253","324281","0.0-6.0-0.11","","img/orange.png","32","trial","32","true","0.6,0.4","1:go_a","",""
"null","","html-keyboard-response","254","325287","0.0-6.0-1.11","","<img src=""img/orange-n.png"" border=""10"">","null","trial","32","","0.6,0.4","1:go_a","0",""
"null","","html-keyboard-response","255","326292","0.0-6.0-2.11","","<div style=""font-size:60px;"">+</div>","null","","","","","","",""
"518.5600000040722","","image-keyboard-response","256","326812","0.0-6.0-0.12","","img/red.png","32","trial","null","false","0.4,0.6","4:nogo_d","",""
"null","","html-keyboard-response","257","327825","0.0-6.0-1.12","","<img src=""img/red-n.png"" border=""10"">","null","trial","null","","0.4,0.6","4:nogo_d","0",""
"null","","html-keyboard-response","258","328828","0.0-6.0-2.12","","<div style=""font-size:60px;"">+</div>","null","","","","","","",""
"892.5600000002305","","image-keyboard-response","259","329722","0.0-6.0-0.13","","img/orange.png","32","trial","32","true","0.6,0.4","1:go_a","",""
"null","","html-keyboard-response","260","330732","0.0-6.0-1.13","","<img src=""img/orange-r.png"" border=""10"">","null","trial","32","","0.6,0.4","1:go_a","1",""
"null","","html-keyboard-response","261","331733","0.0-6.0-2.13","","<div style=""font-size:60px;"">+</div>","null","","","","","","",""
"498.06500000704546","","image-keyboard-response","262","332233","0.0-6.0-0.14","","img/yellow.png","32","trial","32","true","0.6,0.4","3:go_c","",""
"null","","html-keyboard-response","263","333241","0.0-6.0-1.14","","<img src=""img/yellow-r.png"" border=""10"">","null","trial","32","","0.6,0.4","3:go_c","1",""
"null","","html-keyboard-response","264","334253","0.0-6.0-2.14","","<div style=""font-size:60px;"">+</div>","null","","","","","","",""
"779.4700000013108","","image-keyboard-response","265","335033","0.0-6.0-0.15","","img/green.png","32","trial","null","false","0.4,0.6","2:nogo_b","",""
"null","","html-keyboard-response","266","336039","0.0-6.0-1.15","","<img src=""img/green-n.png"" border=""10"">","null","trial","null","","0.4,0.6","2:nogo_b","0",""
"null","","html-keyboard-response","267","337049","0.0-6.0-2.15","","<div style=""font-size:60px;"">+</div>","null","","","","","","",""
"474.09999999945285","","image-keyboard-response","268","337524","0.0-6.0-0.16","","img/red.png","32","trial","null","false","0.4,0.6","4:nogo_d","",""
"null","","html-keyboard-response","269","338528","0.0-6.0-1.16","","<img src=""img/red-n.png"" border=""10"">","null","trial","null","","0.4,0.6","4:nogo_d","0",""
"null","","html-keyboard-response","270","339535","0.0-6.0-2.16","","<div style=""font-size:60px;"">+</div>","null","","","","","","",""
"445.82500000251457","","image-keyboard-response","271","339982","0.0-6.0-0.17","","img/yellow.png","32","trial","32","true","0.6,0.4","3:go_c","",""
"null","","html-keyboard-response","272","340997","0.0-6.0-1.17","","<img src=""img/yellow-n.png"" border=""10"">","null","trial","32","","0.6,0.4","3:go_c","0",""
"null","","html-keyboard-response","273","342001","0.0-6.0-2.17","","<div style=""font-size:60px;"">+</div>","null","","","","","","",""
"310.4200000016135","","image-keyboard-response","274","342312","0.0-6.0-0.18","","img/orange.png","32","trial","32","true","0.6,0.4","1:go_a","",""
"null","","html-keyboard-response","275","343327","0.0-6.0-1.18","","<img src=""img/orange-r.png"" border=""10"">","null","trial","32","","0.6,0.4","1:go_a","1",""
"null","","html-keyboard-response","276","344335","0.0-6.0-2.18","","<div style=""font-size:60px;"">+</div>","null","","","","","","",""
"980.8249999987311","","image-keyboard-response","277","345317","0.0-6.0-0.19","","img/green.png","32","trial","null","false","0.4,0.6","2:nogo_b","",""
"null","","html-keyboard-response","278","346325","0.0-6.0-1.19","","<img src=""img/green-n.png"" border=""10"">","null","trial","null","","0.4,0.6","2:nogo_b","0",""
"null","","html-keyboard-response","279","347333","0.0-6.0-2.19","","<div style=""font-size:60px;"">+</div>","null","","","","","","",""
"null","","image-keyboard-response","280","348847","0.0-6.0-0.20","","img/green.png","null","trial","null","true","0.4,0.6","2:nogo_b","",""
"null","","html-keyboard-response","281","349851","0.0-6.0-1.20","","<img src=""img/green-r.png"">","null","trial","null","","0.4,0.6","2:nogo_b","1",""
"null","","html-keyboard-response","282","350856","0.0-6.0-2.20","","<div style=""font-size:60px;"">+</div>","null","","","","","","",""
"710.640000004787","","image-keyboard-response","283","351568","0.0-6.0-0.21","","img/orange.png","32","trial","32","true","0.6,0.4","1:go_a","",""
"null","","html-keyboard-response","284","352584","0.0-6.0-1.21","","<img src=""img/orange-n.png"" border=""10"">","null","trial","32","","0.6,0.4","1:go_a","0",""
"null","","html-keyboard-response","285","353595","0.0-6.0-2.21","","<div style=""font-size:60px;"">+</div>","null","","","","","","",""
"697.2299999979441","","image-keyboard-response","286","354293","0.0-6.0-0.22","","img/yellow.png","32","trial","32","true","0.6,0.4","3:go_c","",""
"null","","html-keyboard-response","287","355297","0.0-6.0-1.22","","<img src=""img/yellow-r.png"" border=""10"">","null","trial","32","","0.6,0.4","3:go_c","1",""
"null","","html-keyboard-response","288","356314","0.0-6.0-2.22","","<div style=""font-size:60px;"">+</div>","null","","","","","","",""
"541.3949999929173","","image-keyboard-response","289","356856","0.0-6.0-0.23","","img/red.png","32","trial","null","false","0.4,0.6","4:nogo_d","",""
"null","","html-keyboard-response","290","357871","0.0-6.0-1.23","","<img src=""img/red-n.png"" border=""10"">","null","trial","null","","0.4,0.6","4:nogo_d","0",""
"null","","html-keyboard-response","291","358883","0.0-6.0-2.23","","<div style=""font-size:60px;"">+</div>","null","","","","","","",""
"null","","image-keyboard-response","292","360388","0.0-6.0-0.24","","img/green.png","null","trial","null","true","0.4,0.6","2:nogo_b","",""
"null","","html-keyboard-response","293","361400","0.0-6.0-1.24","","<img src=""img/green-n.png"">","null","trial","null","","0.4,0.6","2:nogo_b","0",""
"null","","html-keyboard-response","294","362416","0.0-6.0-2.24","","<div style=""font-size:60px;"">+</div>","null","","","","","","",""
"665.4449999987264","","image-keyboard-response","295","363083","0.0-6.0-0.25","","img/red.png","32","trial","null","false","0.4,0.6","4:nogo_d","",""
"null","","html-keyboard-response","296","364099","0.0-6.0-1.25","","<img src=""img/red-n.png"" border=""10"">","null","trial","null","","0.4,0.6","4:nogo_d","0",""
"null","","html-keyboard-response","297","365111","0.0-6.0-2.25","","<div style=""font-size:60px;"">+</div>","null","","","","","","",""
"655.415000001085","","image-keyboard-response","298","365767","0.0-6.0-0.26","","img/orange.png","32","trial","32","true","0.6,0.4","1:go_a","",""
"null","","html-keyboard-response","299","366779","0.0-6.0-1.26","","<img src=""img/orange-r.png"" border=""10"">","null","trial","32","","0.6,0.4","1:go_a","1",""
"null","","html-keyboard-response","300","367782","0.0-6.0-2.26","","<div style=""font-size:60px;"">+</div>","null","","","","","","",""
"521.534999999858","","image-keyboard-response","301","368305","0.0-6.0-0.27","","img/yellow.png","32","trial","32","true","0.6,0.4","3:go_c","",""
"null","","html-keyboard-response","302","369315","0.0-6.0-1.27","","<img src=""img/yellow-r.png"" border=""10"">","null","trial","32","","0.6,0.4","3:go_c","1",""
"null","","html-keyboard-response","303","370323","0.0-6.0-2.27","","<div style=""font-size:60px;"">+</div>","null","","","","","","",""
"null","","image-keyboard-response","304","371836","0.0-6.0-0.28","","img/yellow.png","null","trial","32","false","0.6,0.4","3:go_c","",""
"null","","html-keyboard-response","305","372854","0.0-6.0-1.28","","<img src=""img/yellow-n.png"">","null","trial","32","","0.6,0.4","3:go_c","0",""
"null","","html-keyboard-response","306","373867","0.0-6.0-2.28","","<div style=""font-size:60px;"">+</div>","null","","","","","","",""
"null","","image-keyboard-response","307","375371","0.0-6.0-0.29","","img/orange.png","null","trial","32","false","0.6,0.4","1:go_a","",""
"null","","html-keyboard-response","308","376377","0.0-6.0-1.29","","<img src=""img/orange-n.png"">","null","trial","32","","0.6,0.4","1:go_a","0",""
"null","","html-keyboard-response","309","377386","0.0-6.0-2.29","","<div style=""font-size:60px;"">+</div>","null","","","","","","",""
"698.2250000000931","","image-keyboard-response","310","378085","0.0-6.0-0.30","","img/red.png","32","trial","null","false","0.4,0.6","4:nogo_d","",""
"null","","html-keyboard-response","311","379094","0.0-6.0-1.30","","<img src=""img/red-r.png"" border=""10"">","null","trial","null","","0.4,0.6","4:nogo_d","1",""
"null","","html-keyboard-response","312","380107","0.0-6.0-2.30","","<div style=""font-size:60px;"">+</div>","null","","","","","","",""
"null","","image-keyboard-response","313","381612","0.0-6.0-0.31","","img/green.png","null","trial","null","true","0.4,0.6","2:nogo_b","",""
"null","","html-keyboard-response","314","382614","0.0-6.0-1.31","","<img src=""img/green-n.png"">","null","trial","null","","0.4,0.6","2:nogo_b","0",""
"null","","html-keyboard-response","315","383616","0.0-6.0-2.31","","<div style=""font-size:60px;"">+</div>","null","","","","","","",""
"604.1750000003958","","image-keyboard-response","316","384221","0.0-6.0-0.32","","img/green.png","32","trial","null","false","0.4,0.6","2:nogo_b","",""
"null","","html-keyboard-response","317","385234","0.0-6.0-1.32","","<img src=""img/green-n.png"" border=""10"">","null","trial","null","","0.4,0.6","2:nogo_b","0",""
"null","","html-keyboard-response","318","386247","0.0-6.0-2.32","","<div style=""font-size:60px;"">+</div>","null","","","","","","",""
"614.6399999997811","","image-keyboard-response","319","386863","0.0-6.0-0.33","","img/red.png","32","trial","null","false","0.4,0.6","4:nogo_d","",""
"null","","html-keyboard-response","320","387866","0.0-6.0-1.33","","<img src=""img/red-r.png"" border=""10"">","null","trial","null","","0.4,0.6","4:nogo_d","1",""
"null","","html-keyboard-response","321","388875","0.0-6.0-2.33","","<div style=""font-size:60px;"">+</div>","null","","","","","","",""
"432.8700000041863","","image-keyboard-response","322","389309","0.0-6.0-0.34","","img/orange.png","32","trial","32","true","0.6,0.4","1:go_a","",""
"null","","html-keyboard-response","323","390328","0.0-6.0-1.34","","<img src=""img/orange-n.png"" border=""10"">","null","trial","32","","0.6,0.4","1:go_a","0",""
"null","","html-keyboard-response","324","391338","0.0-6.0-2.34","","<div style=""font-size:60px;"">+</div>","null","","","","","","",""
"485.58500000217464","","image-keyboard-response","325","391825","0.0-6.0-0.35","","img/yellow.png","32","trial","32","true","0.6,0.4","3:go_c","",""
"null","","html-keyboard-response","326","392841","0.0-6.0-1.35","","<img src=""img/yellow-r.png"" border=""10"">","null","trial","32","","0.6,0.4","3:go_c","1",""
"null","","html-keyboard-response","327","393851","0.0-6.0-2.35","","<div style=""font-size:60px;"">+</div>","null","","","","","","",""
"null","","image-keyboard-response","328","395358","0.0-6.0-0.36","","img/red.png","null","trial","null","true","0.4,0.6","4:nogo_d","",""
"null","","html-keyboard-response","329","396373","0.0-6.0-1.36","","<img src=""img/red-r.png"">","null","trial","null","","0.4,0.6","4:nogo_d","1",""
"null","","html-keyboard-response","330","397381","0.0-6.0-2.36","","<div style=""font-size:60px;"">+</div>","null","","","","","","",""
"529.1500000021188","","image-keyboard-response","331","397911","0.0-6.0-0.37","","img/orange.png","32","trial","32","true","0.6,0.4","1:go_a","",""
"null","","html-keyboard-response","332","398920","0.0-6.0-1.37","","<img src=""img/orange-r.png"" border=""10"">","null","trial","32","","0.6,0.4","1:go_a","1",""
"null","","html-keyboard-response","333","399925","0.0-6.0-2.37","","<div style=""font-size:60px;"">+</div>","null","","","","","","",""
"null","","image-keyboard-response","334","401427","0.0-6.0-0.38","","img/green.png","null","trial","null","true","0.4,0.6","2:nogo_b","",""
"null","","html-keyboard-response","335","402432","0.0-6.0-1.38","","<img src=""img/green-r.png"">","null","trial","null","","0.4,0.6","2:nogo_b","1",""
"null","","html-keyboard-response","336","403453","0.0-6.0-2.38","","<div style=""font-size:60px;"">+</div>","null","","","","","","",""
"449.19499999377877","","image-keyboard-response","337","403903","0.0-6.0-0.39","","img/yellow.png","32","trial","32","true","0.6,0.4","3:go_c","",""
"null","","html-keyboard-response","338","404919","0.0-6.0-1.39","","<img src=""img/yellow-n.png"" border=""10"">","null","trial","32","","0.6,0.4","3:go_c","0",""
"null","","html-keyboard-response","339","405931","0.0-6.0-2.39","","<div style=""font-size:60px;"">+</div>","null","","","","","","",""
"null","","image-keyboard-response","340","407448","0.0-6.0-0.40","","img/red.png","null","trial","null","true","0.4,0.6","4:nogo_d","",""
"null","","html-keyboard-response","341","408461","0.0-6.0-1.40","","<img src=""img/red-n.png"">","null","trial","null","","0.4,0.6","4:nogo_d","0",""
"null","","html-keyboard-response","342","409477","0.0-6.0-2.40","","<div style=""font-size:60px;"">+</div>","null","","","","","","",""
"568.0349999965983","","image-keyboard-response","343","410046","0.0-6.0-0.41","","img/yellow.png","32","trial","32","true","0.6,0.4","3:go_c","",""
"null","","html-keyboard-response","344","411064","0.0-6.0-1.41","","<img src=""img/yellow-r.png"" border=""10"">","null","trial","32","","0.6,0.4","3:go_c","1",""
"null","","html-keyboard-response","345","412077","0.0-6.0-2.41","","<div style=""font-size:60px;"">+</div>","null","","","","","","",""
"null","","image-keyboard-response","346","413584","0.0-6.0-0.42","","img/green.png","null","trial","null","true","0.4,0.6","2:nogo_b","",""
"null","","html-keyboard-response","347","414591","0.0-6.0-1.42","","<img src=""img/green-n.png"">","null","trial","null","","0.4,0.6","2:nogo_b","0",""
"null","","html-keyboard-response","348","415603","0.0-6.0-2.42","","<div style=""font-size:60px;"">+</div>","null","","","","","","",""
"1424.2250000024796","","image-keyboard-response","349","417028","0.0-6.0-0.43","","img/orange.png","32","trial","32","true","0.6,0.4","1:go_a","",""
"null","","html-keyboard-response","350","418043","0.0-6.0-1.43","","<img src=""img/orange-r.png"" border=""10"">","null","trial","32","","0.6,0.4","1:go_a","1",""
"null","","html-keyboard-response","351","419057","0.0-6.0-2.43","","<div style=""font-size:60px;"">+</div>","null","","","","","","",""
"569.4950000033714","","image-keyboard-response","352","419627","0.0-6.0-0.44","","img/yellow.png","32","trial","32","true","0.6,0.4","3:go_c","",""
"null","","html-keyboard-response","353","420644","0.0-6.0-1.44","","<img src=""img/yellow-n.png"" border=""10"">","null","trial","32","","0.6,0.4","3:go_c","0",""
"null","","html-keyboard-response","354","421650","0.0-6.0-2.44","","<div style=""font-size:60px;"">+</div>","null","","","","","","",""
"387.87500000034925","","image-keyboard-response","355","422039","0.0-6.0-0.45","","img/red.png","32","trial","null","false","0.4,0.6","4:nogo_d","",""
"null","","html-keyboard-response","356","423048","0.0-6.0-1.45","","<img src=""img/red-r.png"" border=""10"">","null","trial","null","","0.4,0.6","4:nogo_d","1",""
"null","","html-keyboard-response","357","424055","0.0-6.0-2.45","","<div style=""font-size:60px;"">+</div>","null","","","","","","",""
"null","","image-keyboard-response","358","425569","0.0-6.0-0.46","","img/green.png","null","trial","null","true","0.4,0.6","2:nogo_b","",""
"null","","html-keyboard-response","359","426582","0.0-6.0-1.46","","<img src=""img/green-n.png"">","null","trial","null","","0.4,0.6","2:nogo_b","0",""
"null","","html-keyboard-response","360","427596","0.0-6.0-2.46","","<div style=""font-size:60px;"">+</div>","null","","","","","","",""
"532.7699999979814","","image-keyboard-response","361","428130","0.0-6.0-0.47","","img/orange.png","32","trial","32","true","0.6,0.4","1:go_a","",""
"null","","html-keyboard-response","362","429146","0.0-6.0-1.47","","<img src=""img/orange-r.png"" border=""10"">","null","trial","32","","0.6,0.4","1:go_a","1",""
"null","","html-keyboard-response","363","430160","0.0-6.0-2.47","","<div style=""font-size:60px;"">+</div>","null","","","","","","",""
"590.8249999993131","","image-keyboard-response","364","430752","0.0-6.0-0.48","","img/red.png","32","trial","null","false","0.4,0.6","4:nogo_d","",""
"null","","html-keyboard-response","365","431765","0.0-6.0-1.48","","<img src=""img/red-n.png"" border=""10"">","null","trial","null","","0.4,0.6","4:nogo_d","0",""
"null","","html-keyboard-response","366","432779","0.0-6.0-2.48","","<div style=""font-size:60px;"">+</div>","null","","","","","","",""
"310.62999999994645","","image-keyboard-response","367","433091","0.0-6.0-0.49","","img/yellow.png","32","trial","32","true","0.6,0.4","3:go_c","",""
"null","","html-keyboard-response","368","434097","0.0-6.0-1.49","","<img src=""img/yellow-n.png"" border=""10"">","null","trial","32","","0.6,0.4","3:go_c","0",""
"null","","html-keyboard-response","369","435106","0.0-6.0-2.49","","<div style=""font-size:60px;"">+</div>","null","","","","","","",""
"281.2100000010105","","image-keyboard-response","370","435388","0.0-6.0-0.50","","img/green.png","32","trial","null","false","0.4,0.6","2:nogo_b","",""
"null","","html-keyboard-response","371","436392","0.0-6.0-1.50","","<img src=""img/green-r.png"" border=""10"">","null","trial","null","","0.4,0.6","2:nogo_b","1",""
"null","","html-keyboard-response","372","437400","0.0-6.0-2.50","","<div style=""font-size:60px;"">+</div>","null","","","","","","",""
"null","","image-keyboard-response","373","438904","0.0-6.0-0.51","","img/orange.png","null","trial","32","false","0.6,0.4","1:go_a","",""
"null","","html-keyboard-response","374","439918","0.0-6.0-1.51","","<img src=""img/orange-n.png"">","null","trial","32","","0.6,0.4","1:go_a","0",""
"null","","html-keyboard-response","375","440930","0.0-6.0-2.51","","<div style=""font-size:60px;"">+</div>","null","","","","","","",""
"502.26500000280794","","image-keyboard-response","376","441433","0.0-6.0-0.52","","img/red.png","32","trial","null","false","0.4,0.6","4:nogo_d","",""
"null","","html-keyboard-response","377","442442","0.0-6.0-1.52","","<img src=""img/red-n.png"" border=""10"">","null","trial","null","","0.4,0.6","4:nogo_d","0",""
"null","","html-keyboard-response","378","443443","0.0-6.0-2.52","","<div style=""font-size:60px;"">+</div>","null","","","","","","",""
"450.10999999794876","","image-keyboard-response","379","443894","0.0-6.0-0.53","","img/yellow.png","32","trial","32","true","0.6,0.4","3:go_c","",""
"null","","html-keyboard-response","380","444908","0.0-6.0-1.53","","<img src=""img/yellow-n.png"" border=""10"">","null","trial","32","","0.6,0.4","3:go_c","0",""
"null","","html-keyboard-response","381","445919","0.0-6.0-2.53","","<div style=""font-size:60px;"">+</div>","null","","","","","","",""
"279.10500000143657","","image-keyboard-response","382","446200","0.0-6.0-0.54","","img/green.png","32","trial","null","false","0.4,0.6","2:nogo_b","",""
"null","","html-keyboard-response","383","447213","0.0-6.0-1.54","","<img src=""img/green-n.png"" border=""10"">","null","trial","null","","0.4,0.6","2:nogo_b","0",""
"null","","html-keyboard-response","384","448218","0.0-6.0-2.54","","<div style=""font-size:60px;"">+</div>","null","","","","","","",""
"246.96000000403728","","image-keyboard-response","385","448466","0.0-6.0-0.55","","img/orange.png","32","trial","32","true","0.6,0.4","1:go_a","",""
"null","","html-keyboard-response","386","449482","0.0-6.0-1.55","","<img src=""img/orange-r.png"" border=""10"">","null","trial","32","","0.6,0.4","1:go_a","1",""
"null","","html-keyboard-response","387","450506","0.0-6.0-2.55","","<div style=""font-size:60px;"">+</div>","null","","","","","","",""
"626.365000003716","","image-keyboard-response","388","451134","0.0-6.0-0.56","","img/green.png","32","trial","null","false","0.4,0.6","2:nogo_b","",""
"null","","html-keyboard-response","389","452149","0.0-6.0-1.56","","<img src=""img/green-n.png"" border=""10"">","null","trial","null","","0.4,0.6","2:nogo_b","0",""
"null","","html-keyboard-response","390","453151","0.0-6.0-2.56","","<div style=""font-size:60px;"">+</div>","null","","","","","","",""
"842.0849999965867","","image-keyboard-response","391","453994","0.0-6.0-0.57","","img/orange.png","32","trial","32","true","0.6,0.4","1:go_a","",""
"null","","html-keyboard-response","392","455005","0.0-6.0-1.57","","<img src=""img/orange-r.png"" border=""10"">","null","trial","32","","0.6,0.4","1:go_a","1",""
"null","","html-keyboard-response","393","456018","0.0-6.0-2.57","","<div style=""font-size:60px;"">+</div>","null","","","","","","",""
"738.2949999955599","","image-keyboard-response","394","456758","0.0-6.0-0.58","","img/red.png","32","trial","null","false","0.4,0.6","4:nogo_d","",""
"null","","html-keyboard-response","395","457781","0.0-6.0-1.58","","<img src=""img/red-r.png"" border=""10"">","null","trial","null","","0.4,0.6","4:nogo_d","1",""
"null","","html-keyboard-response","396","458795","0.0-6.0-2.58","","<div style=""font-size:60px;"">+</div>","null","","","","","","",""
"null","","image-keyboard-response","397","460302","0.0-6.0-0.59","","img/yellow.png","null","trial","32","false","0.6,0.4","3:go_c","",""
"null","","html-keyboard-response","398","461310","0.0-6.0-1.59","","<img src=""img/yellow-r.png"">","null","trial","32","","0.6,0.4","3:go_c","1",""
"null","","html-keyboard-response","399","462312","0.0-6.0-2.59","","<div style=""font-size:60px;"">+</div>","null","","","","","","",""
"null","","image-keyboard-response","400","463818","0.0-6.0-0.60","","img/yellow.png","null","trial","32","false","0.6,0.4","3:go_c","",""
"null","","html-keyboard-response","401","464825","0.0-6.0-1.60","","<img src=""img/yellow-n.png"">","null","trial","32","","0.6,0.4","3:go_c","0",""
"null","","html-keyboard-response","402","465836","0.0-6.0-2.60","","<div style=""font-size:60px;"">+</div>","null","","","","","","",""
"518.8449999986915","","image-keyboard-response","403","466356","0.0-6.0-0.61","","img/orange.png","32","trial","32","true","0.6,0.4","1:go_a","",""
"null","","html-keyboard-response","404","467380","0.0-6.0-1.61","","<img src=""img/orange-n.png"" border=""10"">","null","trial","32","","0.6,0.4","1:go_a","0",""
"null","","html-keyboard-response","405","468386","0.0-6.0-2.61","","<div style=""font-size:60px;"">+</div>","null","","","","","","",""
"319.21000000147615","","image-keyboard-response","406","468706","0.0-6.0-0.62","","img/red.png","32","trial","null","false","0.4,0.6","4:nogo_d","",""
"null","","html-keyboard-response","407","469716","0.0-6.0-1.62","","<img src=""img/red-r.png"" border=""10"">","null","trial","null","","0.4,0.6","4:nogo_d","1",""
"null","","html-keyboard-response","408","470729","0.0-6.0-2.62","","<div style=""font-size:60px;"">+</div>","null","","","","","","",""
"973.1950000059442","","image-keyboard-response","409","471704","0.0-6.0-0.63","","img/green.png","32","trial","null","false","0.4,0.6","2:nogo_b","",""
"null","","html-keyboard-response","410","472719","0.0-6.0-1.63","","<img src=""img/green-r.png"" border=""10"">","null","trial","null","","0.4,0.6","2:nogo_b","1",""
"null","","html-keyboard-response","411","473723","0.0-6.0-2.63","","<div style=""font-size:60px;"">+</div>","null","","","","","","",""
"null","","image-keyboard-response","412","475228","0.0-6.0-0.64","","img/red.png","null","trial","null","true","0.4,0.6","4:nogo_d","",""
"null","","html-keyboard-response","413","476239","0.0-6.0-1.64","","<img src=""img/red-r.png"">","null","trial","null","","0.4,0.6","4:nogo_d","1",""
"null","","html-keyboard-response","414","477252","0.0-6.0-2.64","","<div style=""font-size:60px;"">+</div>","null","","","","","","",""
"413.87500000564614","","image-keyboard-response","415","477667","0.0-6.0-0.65","","img/orange.png","32","trial","32","true","0.6,0.4","1:go_a","",""
"null","","html-keyboard-response","416","478673","0.0-6.0-1.65","","<img src=""img/orange-n.png"" border=""10"">","null","trial","32","","0.6,0.4","1:go_a","0",""
"null","","html-keyboard-response","417","479689","0.0-6.0-2.65","","<div style=""font-size:60px;"">+</div>","null","","","","","","",""
"516.4049999948475","","image-keyboard-response","418","480206","0.0-6.0-0.66","","img/yellow.png","32","trial","32","true","0.6,0.4","3:go_c","",""
"null","","html-keyboard-response","419","481213","0.0-6.0-1.66","","<img src=""img/yellow-n.png"" border=""10"">","null","trial","32","","0.6,0.4","3:go_c","0",""
"null","","html-keyboard-response","420","482227","0.0-6.0-2.66","","<div style=""font-size:60px;"">+</div>","null","","","","","","",""
"490.5999999973574","","image-keyboard-response","421","482719","0.0-6.0-0.67","","img/green.png","32","trial","null","false","0.4,0.6","2:nogo_b","",""
"null","","html-keyboard-response","422","483735","0.0-6.0-1.67","","<img src=""img/green-r.png"" border=""10"">","null","trial","null","","0.4,0.6","2:nogo_b","1",""
"null","","html-keyboard-response","423","484743","0.0-6.0-2.67","","<div style=""font-size:60px;"">+</div>","null","","","","","","",""
"413.3949999959441","","image-keyboard-response","424","485157","0.0-6.0-0.68","","img/orange.png","32","trial","32","true","0.6,0.4","1:go_a","",""
"null","","html-keyboard-response","425","486169","0.0-6.0-1.68","","<img src=""img/orange-n.png"" border=""10"">","null","trial","32","","0.6,0.4","1:go_a","0",""
"null","","html-keyboard-response","426","487180","0.0-6.0-2.68","","<div style=""font-size:60px;"">+</div>","null","","","","","","",""
"366.6799999991781","","image-keyboard-response","427","487547","0.0-6.0-0.69","","img/yellow.png","32","trial","32","true","0.6,0.4","3:go_c","",""
"null","","html-keyboard-response","428","488569","0.0-6.0-1.69","","<img src=""img/yellow-n.png"" border=""10"">","null","trial","32","","0.6,0.4","3:go_c","0",""
"null","","html-keyboard-response","429","489578","0.0-6.0-2.69","","<div style=""font-size:60px;"">+</div>","null","","","","","","",""
"380.38500000402564","","image-keyboard-response","430","489960","0.0-6.0-0.70","","img/green.png","32","trial","null","false","0.4,0.6","2:nogo_b","",""
"null","","html-keyboard-response","431","490967","0.0-6.0-1.70","","<img src=""img/green-n.png"" border=""10"">","null","trial","null","","0.4,0.6","2:nogo_b","0",""
"null","","html-keyboard-response","432","491983","0.0-6.0-2.70","","<div style=""font-size:60px;"">+</div>","null","","","","","","",""
"477.25999999966007","","image-keyboard-response","433","492461","0.0-6.0-0.71","","img/red.png","32","trial","null","false","0.4,0.6","4:nogo_d","",""
"null","","html-keyboard-response","434","493471","0.0-6.0-1.71","","<img src=""img/red-n.png"" border=""10"">","null","trial","null","","0.4,0.6","4:nogo_d","0",""
"null","","html-keyboard-response","435","494482","0.0-6.0-2.71","","<div style=""font-size:60px;"">+</div>","null","","","","","","",""
"387.2949999931734","","image-keyboard-response","436","494871","0.0-6.0-0.72","","img/green.png","32","trial","null","false","0.4,0.6","2:nogo_b","",""
"null","","html-keyboard-response","437","495882","0.0-6.0-1.72","","<img src=""img/green-n.png"" border=""10"">","null","trial","null","","0.4,0.6","2:nogo_b","0",""
"null","","html-keyboard-response","438","496891","0.0-6.0-2.72","","<div style=""font-size:60px;"">+</div>","null","","","","","","",""
"496.4950000066892","","image-keyboard-response","439","497388","0.0-6.0-0.73","","img/red.png","32","trial","null","false","0.4,0.6","4:nogo_d","",""
"null","","html-keyboard-response","440","498401","0.0-6.0-1.73","","<img src=""img/red-n.png"" border=""10"">","null","trial","null","","0.4,0.6","4:nogo_d","0",""
"null","","html-keyboard-response","441","499407","0.0-6.0-2.73","","<div style=""font-size:60px;"">+</div>","null","","","","","","",""
"359.49499999696855","","image-keyboard-response","442","499767","0.0-6.0-0.74","","img/orange.png","32","trial","32","true","0.6,0.4","1:go_a","",""
"null","","html-keyboard-response","443","500776","0.0-6.0-1.74","","<img src=""img/orange-r.png"" border=""10"">","null","trial","32","","0.6,0.4","1:go_a","1",""
"null","","html-keyboard-response","444","501778","0.0-6.0-2.74","","<div style=""font-size:60px;"">+</div>","null","","","","","","",""
"701.9650000002002","","image-keyboard-response","445","502482","0.0-6.0-0.75","","img/yellow.png","32","trial","32","true","0.6,0.4","3:go_c","",""
"null","","html-keyboard-response","446","503488","0.0-6.0-1.75","","<img src=""img/yellow-n.png"" border=""10"">","null","trial","32","","0.6,0.4","3:go_c","0",""
"null","","html-keyboard-response","447","504491","0.0-6.0-2.75","","<div style=""font-size:60px;"">+</div>","null","","","","","","",""
"null","","image-keyboard-response","448","506008","0.0-6.0-0.76","","img/red.png","null","trial","null","true","0.4,0.6","4:nogo_d","",""
"null","","html-keyboard-response","449","507016","0.0-6.0-1.76","","<img src=""img/red-r.png"">","null","trial","null","","0.4,0.6","4:nogo_d","1",""
"null","","html-keyboard-response","450","508028","0.0-6.0-2.76","","<div style=""font-size:60px;"">+</div>","null","","","","","","",""
"null","","image-keyboard-response","451","509532","0.0-6.0-0.77","","img/green.png","null","trial","null","true","0.4,0.6","2:nogo_b","",""
"null","","html-keyboard-response","452","510534","0.0-6.0-1.77","","<img src=""img/green-r.png"">","null","trial","null","","0.4,0.6","2:nogo_b","1",""
"null","","html-keyboard-response","453","511540","0.0-6.0-2.77","","<div style=""font-size:60px;"">+</div>","null","","","","","","",""
"613.790000003064","","image-keyboard-response","454","512155","0.0-6.0-0.78","","img/yellow.png","32","trial","32","true","0.6,0.4","3:go_c","",""
"null","","html-keyboard-response","455","513170","0.0-6.0-1.78","","<img src=""img/yellow-r.png"" border=""10"">","null","trial","32","","0.6,0.4","3:go_c","1",""
"null","","html-keyboard-response","456","514181","0.0-6.0-2.78","","<div style=""font-size:60px;"">+</div>","null","","","","","","",""
"null","","image-keyboard-response","457","515687","0.0-6.0-0.79","","img/orange.png","null","trial","32","false","0.6,0.4","1:go_a","",""
"null","","html-keyboard-response","458","516701","0.0-6.0-1.79","","<img src=""img/orange-r.png"">","null","trial","32","","0.6,0.4","1:go_a","1",""
"null","","html-keyboard-response","459","517714","0.0-6.0-2.79","","<div style=""font-size:60px;"">+</div>","null","","","","","","",""
"496.6549999953713","","image-keyboard-response","460","518212","0.0-6.0-0.80","","img/red.png","32","trial","null","false","0.4,0.6","4:nogo_d","",""
"null","","html-keyboard-response","461","519227","0.0-6.0-1.80","","<img src=""img/red-r.png"" border=""10"">","null","trial","null","","0.4,0.6","4:nogo_d","1",""
"null","","html-keyboard-response","462","520227","0.0-6.0-2.80","","<div style=""font-size:60px;"">+</div>","null","","","","","","",""
"452.9250000050524","","image-keyboard-response","463","520681","0.0-6.0-0.81","","img/green.png","32","trial","null","false","0.4,0.6","2:nogo_b","",""
"null","","html-keyboard-response","464","521696","0.0-6.0-1.81","","<img src=""img/green-n.png"" border=""10"">","null","trial","null","","0.4,0.6","2:nogo_b","0",""
"null","","html-keyboard-response","465","522699","0.0-6.0-2.81","","<div style=""font-size:60px;"">+</div>","null","","","","","","",""
"null","","image-keyboard-response","466","524201","0.0-6.0-0.82","","img/yellow.png","null","trial","32","false","0.6,0.4","3:go_c","",""
"null","","html-keyboard-response","467","525214","0.0-6.0-1.82","","<img src=""img/yellow-r.png"">","null","trial","32","","0.6,0.4","3:go_c","1",""
"null","","html-keyboard-response","468","526224","0.0-6.0-2.82","","<div style=""font-size:60px;"">+</div>","null","","","","","","",""
"732.0049999980256","","image-keyboard-response","469","526958","0.0-6.0-0.83","","img/orange.png","32","trial","32","true","0.6,0.4","1:go_a","",""
"null","","html-keyboard-response","470","527974","0.0-6.0-1.83","","<img src=""img/orange-r.png"" border=""10"">","null","trial","32","","0.6,0.4","1:go_a","1",""
"null","","html-keyboard-response","471","528982","0.0-6.0-2.83","","<div style=""font-size:60px;"">+</div>","null","","","","","","",""
"null","","image-keyboard-response","472","530496","0.0-6.0-0.84","","img/yellow.png","null","trial","32","false","0.6,0.4","3:go_c","",""
"null","","html-keyboard-response","473","531499","0.0-6.0-1.84","","<img src=""img/yellow-n.png"">","null","trial","32","","0.6,0.4","3:go_c","0",""
"null","","html-keyboard-response","474","532510","0.0-6.0-2.84","","<div style=""font-size:60px;"">+</div>","null","","","","","","",""
"587.3299999948358","","image-keyboard-response","475","533098","0.0-6.0-0.85","","img/green.png","32","trial","null","false","0.4,0.6","2:nogo_b","",""
"null","","html-keyboard-response","476","534110","0.0-6.0-1.85","","<img src=""img/green-n.png"" border=""10"">","null","trial","null","","0.4,0.6","2:nogo_b","0",""
"null","","html-keyboard-response","477","535125","0.0-6.0-2.85","","<div style=""font-size:60px;"">+</div>","null","","","","","","",""
"null","","image-keyboard-response","478","536626","0.0-6.0-0.86","","img/red.png","null","trial","null","true","0.4,0.6","4:nogo_d","",""
"null","","html-keyboard-response","479","537634","0.0-6.0-1.86","","<img src=""img/red-r.png"">","null","trial","null","","0.4,0.6","4:nogo_d","1",""
"null","","html-keyboard-response","480","538636","0.0-6.0-2.86","","<div style=""font-size:60px;"">+</div>","null","","","","","","",""
"null","","image-keyboard-response","481","540144","0.0-6.0-0.87","","img/orange.png","null","trial","32","false","0.6,0.4","1:go_a","",""
"null","","html-keyboard-response","482","541158","0.0-6.0-1.87","","<img src=""img/orange-n.png"">","null","trial","32","","0.6,0.4","1:go_a","0",""
"null","","html-keyboard-response","483","542162","0.0-6.0-2.87","","<div style=""font-size:60px;"">+</div>","null","","","","","","",""
"420.0300000011921","","image-keyboard-response","484","542583","0.0-6.0-0.88","","img/red.png","32","trial","null","false","0.4,0.6","4:nogo_d","",""
"null","","html-keyboard-response","485","543591","0.0-6.0-1.88","","<img src=""img/red-r.png"" border=""10"">","null","trial","null","","0.4,0.6","4:nogo_d","1",""
"null","","html-keyboard-response","486","544605","0.0-6.0-2.88","","<div style=""font-size:60px;"">+</div>","null","","","","","","",""
"688.800000003539","","image-keyboard-response","487","545295","0.0-6.0-0.89","","img/yellow.png","32","trial","32","true","0.6,0.4","3:go_c","",""
"null","","html-keyboard-response","488","546305","0.0-6.0-1.89","","<img src=""img/yellow-r.png"" border=""10"">","null","trial","32","","0.6,0.4","3:go_c","1",""
"null","","html-keyboard-response","489","547322","0.0-6.0-2.89","","<div style=""font-size:60px;"">+</div>","null","","","","","","",""
"null","","image-keyboard-response","490","548825","0.0-6.0-0.90","","img/orange.png","null","trial","32","false","0.6,0.4","1:go_a","",""
"null","","html-keyboard-response","491","549834","0.0-6.0-1.90","","<img src=""img/orange-n.png"">","null","trial","32","","0.6,0.4","1:go_a","0",""
"null","","html-keyboard-response","492","550857","0.0-6.0-2.90","","<div style=""font-size:60px;"">+</div>","null","","","","","","",""
"692.7450000003446","","image-keyboard-response","493","551550","0.0-6.0-0.91","","img/green.png","32","trial","null","false","0.4,0.6","2:nogo_b","",""
"null","","html-keyboard-response","494","552559","0.0-6.0-1.91","","<img src=""img/green-n.png"" border=""10"">","null","trial","null","","0.4,0.6","2:nogo_b","0",""
"null","","html-keyboard-response","495","553571","0.0-6.0-2.91","","<div style=""font-size:60px;"">+</div>","null","","","","","","",""
"964.2850000018952","","image-keyboard-response","496","554537","0.0-6.0-0.92","","img/orange.png","32","trial","32","true","0.6,0.4","1:go_a","",""
"null","","html-keyboard-response","497","555540","0.0-6.0-1.92","","<img src=""img/orange-n.png"" border=""10"">","null","trial","32","","0.6,0.4","1:go_a","0",""
"null","","html-keyboard-response","498","556541","0.0-6.0-2.92","","<div style=""font-size:60px;"">+</div>","null","","","","","","",""
"802.3200000025099","","image-keyboard-response","499","557345","0.0-6.0-0.93","","img/red.png","32","trial","null","false","0.4,0.6","4:nogo_d","",""
"null","","html-keyboard-response","500","558357","0.0-6.0-1.93","","<img src=""img/red-r.png"" border=""10"">","null","trial","null","","0.4,0.6","4:nogo_d","1",""
"null","","html-keyboard-response","501","559364","0.0-6.0-2.93","","<div style=""font-size:60px;"">+</div>","null","","","","","","",""
"null","","image-keyboard-response","502","560877","0.0-6.0-0.94","","img/green.png","null","trial","null","true","0.4,0.6","2:nogo_b","",""
"null","","html-keyboard-response","503","561888","0.0-6.0-1.94","","<img src=""img/green-r.png"">","null","trial","null","","0.4,0.6","2:nogo_b","1",""
"null","","html-keyboard-response","504","562905","0.0-6.0-2.94","","<div style=""font-size:60px;"">+</div>","null","","","","","","",""
"976.0050000040792","","image-keyboard-response","505","563882","0.0-6.0-0.95","","img/yellow.png","32","trial","32","true","0.6,0.4","3:go_c","",""
"null","","html-keyboard-response","506","564897","0.0-6.0-1.95","","<img src=""img/yellow-n.png"" border=""10"">","null","trial","32","","0.6,0.4","3:go_c","0",""
"null","","html-keyboard-response","507","565911","0.0-6.0-2.95","","<div style=""font-size:60px;"">+</div>","null","","","","","","",""
"486.24000000569504","","image-keyboard-response","508","566399","0.0-6.0-0.96","","img/green.png","32","trial","null","false","0.4,0.6","2:nogo_b","",""
"null","","html-keyboard-response","509","567410","0.0-6.0-1.96","","<img src=""img/green-r.png"" border=""10"">","null","trial","null","","0.4,0.6","2:nogo_b","1",""
"null","","html-keyboard-response","510","568425","0.0-6.0-2.96","","<div style=""font-size:60px;"">+</div>","null","","","","","","",""
"null","","image-keyboard-response","511","569929","0.0-6.0-0.97","","img/orange.png","null","trial","32","false","0.6,0.4","1:go_a","",""
"null","","html-keyboard-response","512","570943","0.0-6.0-1.97","","<img src=""img/orange-r.png"">","null","trial","32","","0.6,0.4","1:go_a","1",""
"null","","html-keyboard-response","513","571959","0.0-6.0-2.97","","<div style=""font-size:60px;"">+</div>","null","","","","","","",""
"1271.6450000007171","","image-keyboard-response","514","573231","0.0-6.0-0.98","","img/red.png","32","trial","null","false","0.4,0.6","4:nogo_d","",""
"null","","html-keyboard-response","515","574253","0.0-6.0-1.98","","<img src=""img/red-n.png"" border=""10"">","null","trial","null","","0.4,0.6","4:nogo_d","0",""
"null","","html-keyboard-response","516","575258","0.0-6.0-2.98","","<div style=""font-size:60px;"">+</div>","null","","","","","","",""
"316.3399999976391","","image-keyboard-response","517","575576","0.0-6.0-0.99","","img/yellow.png","32","trial","32","true","0.6,0.4","3:go_c","",""
"null","","html-keyboard-response","518","576599","0.0-6.0-1.99","","<img src=""img/yellow-r.png"" border=""10"">","null","trial","32","","0.6,0.4","3:go_c","1",""
"null","","html-keyboard-response","519","577613","0.0-6.0-2.99","","<div style=""font-size:60px;"">+</div>","null","","","","","","",""
"null","","image-keyboard-response","520","579117","0.0-6.0-0.100","","img/red.png","null","trial","null","true","0.4,0.6","4:nogo_d","",""
"null","","html-keyboard-response","521","580122","0.0-6.0-1.100","","<img src=""img/red-r.png"">","null","trial","null","","0.4,0.6","4:nogo_d","1",""
"null","","html-keyboard-response","522","581137","0.0-6.0-2.100","","<div style=""font-size:60px;"">+</div>","null","","","","","","",""
"535.1799999990035","","image-keyboard-response","523","581673","0.0-6.0-0.101","","img/green.png","32","trial","null","false","0.4,0.6","2:nogo_b","",""
"null","","html-keyboard-response","524","582676","0.0-6.0-1.101","","<img src=""img/green-r.png"" border=""10"">","null","trial","null","","0.4,0.6","2:nogo_b","1",""
"null","","html-keyboard-response","525","583685","0.0-6.0-2.101","","<div style=""font-size:60px;"">+</div>","null","","","","","","",""
"null","","image-keyboard-response","526","585187","0.0-6.0-0.102","","img/orange.png","null","trial","32","false","0.6,0.4","1:go_a","",""
"null","","html-keyboard-response","527","586203","0.0-6.0-1.102","","<img src=""img/orange-n.png"">","null","trial","32","","0.6,0.4","1:go_a","0",""
"null","","html-keyboard-response","528","587227","0.0-6.0-2.102","","<div style=""font-size:60px;"">+</div>","null","","","","","","",""
"null","","image-keyboard-response","529","588732","0.0-6.0-0.103","","img/yellow.png","null","trial","32","false","0.6,0.4","3:go_c","",""
"null","","html-keyboard-response","530","589742","0.0-6.0-1.103","","<img src=""img/yellow-r.png"">","null","trial","32","","0.6,0.4","3:go_c","1",""
"null","","html-keyboard-response","531","590747","0.0-6.0-2.103","","<div style=""font-size:60px;"">+</div>","null","","","","","","",""
"null","","image-keyboard-response","532","592253","0.0-6.0-0.104","","img/yellow.png","null","trial","32","false","0.6,0.4","3:go_c","",""
"null","","html-keyboard-response","533","593269","0.0-6.0-1.104","","<img src=""img/yellow-r.png"">","null","trial","32","","0.6,0.4","3:go_c","1",""
"null","","html-keyboard-response","534","594277","0.0-6.0-2.104","","<div style=""font-size:60px;"">+</div>","null","","","","","","",""
"263.12999999930616","","image-keyboard-response","535","594541","0.0-6.0-0.105","","img/orange.png","32","trial","32","true","0.6,0.4","1:go_a","",""
"null","","html-keyboard-response","536","595557","0.0-6.0-1.105","","<img src=""img/orange-r.png"" border=""10"">","null","trial","32","","0.6,0.4","1:go_a","1",""
"null","","html-keyboard-response","537","596560","0.0-6.0-2.105","","<div style=""font-size:60px;"">+</div>","null","","","","","","",""
"null","","image-keyboard-response","538","598073","0.0-6.0-0.106","","img/red.png","null","trial","null","true","0.4,0.6","4:nogo_d","",""
"null","","html-keyboard-response","539","599077","0.0-6.0-1.106","","<img src=""img/red-r.png"">","null","trial","null","","0.4,0.6","4:nogo_d","1",""
"null","","html-keyboard-response","540","600088","0.0-6.0-2.106","","<div style=""font-size:60px;"">+</div>","null","","","","","","",""
"null","","image-keyboard-response","541","601599","0.0-6.0-0.107","","img/green.png","null","trial","null","true","0.4,0.6","2:nogo_b","",""
"null","","html-keyboard-response","542","602612","0.0-6.0-1.107","","<img src=""img/green-n.png"">","null","trial","null","","0.4,0.6","2:nogo_b","0",""
"null","","html-keyboard-response","543","603617","0.0-6.0-2.107","","<div style=""font-size:60px;"">+</div>","null","","","","","","",""
"535.8800000031479","","image-keyboard-response","544","604154","0.0-6.0-0.108","","img/yellow.png","32","trial","32","true","0.6,0.4","3:go_c","",""
"null","","html-keyboard-response","545","605157","0.0-6.0-1.108","","<img src=""img/yellow-r.png"" border=""10"">","null","trial","32","","0.6,0.4","3:go_c","1",""
"null","","html-keyboard-response","546","606161","0.0-6.0-2.108","","<div style=""font-size:60px;"">+</div>","null","","","","","","",""
"null","","image-keyboard-response","547","607664","0.0-6.0-0.109","","img/green.png","null","trial","null","true","0.4,0.6","2:nogo_b","",""
"null","","html-keyboard-response","548","608678","0.0-6.0-1.109","","<img src=""img/green-r.png"">","null","trial","null","","0.4,0.6","2:nogo_b","1",""
"null","","html-keyboard-response","549","609682","0.0-6.0-2.109","","<div style=""font-size:60px;"">+</div>","null","","","","","","",""
"274.32000000413973","","image-keyboard-response","550","609957","0.0-6.0-0.110","","img/orange.png","32","trial","32","true","0.6,0.4","1:go_a","",""
"null","","html-keyboard-response","551","610969","0.0-6.0-1.110","","<img src=""img/orange-r.png"" border=""10"">","null","trial","32","","0.6,0.4","1:go_a","1",""
"null","","html-keyboard-response","552","611981","0.0-6.0-2.110","","<div style=""font-size:60px;"">+</div>","null","","","","","","",""
"null","","image-keyboard-response","553","613488","0.0-6.0-0.111","","img/red.png","null","trial","null","true","0.4,0.6","4:nogo_d","",""
"null","","html-keyboard-response","554","614505","0.0-6.0-1.111","","<img src=""img/red-n.png"">","null","trial","null","","0.4,0.6","4:nogo_d","0",""
"null","","html-keyboard-response","555","615510","0.0-6.0-2.111","","<div style=""font-size:60px;"">+</div>","null","","","","","","",""
"518.3899999974528","","image-keyboard-response","556","616030","0.0-6.0-0.112","","img/red.png","32","trial","null","false","0.4,0.6","4:nogo_d","",""
"null","","html-keyboard-response","557","617038","0.0-6.0-1.112","","<img src=""img/red-n.png"" border=""10"">","null","trial","null","","0.4,0.6","4:nogo_d","0",""
"null","","html-keyboard-response","558","618040","0.0-6.0-2.112","","<div style=""font-size:60px;"">+</div>","null","","","","","","",""
"727.1899999978486","","image-keyboard-response","559","618768","0.0-6.0-0.113","","img/orange.png","32","trial","32","true","0.6,0.4","1:go_a","",""
"null","","html-keyboard-response","560","619781","0.0-6.0-1.113","","<img src=""img/orange-r.png"" border=""10"">","null","trial","32","","0.6,0.4","1:go_a","1",""
"null","","html-keyboard-response","561","620795","0.0-6.0-2.113","","<div style=""font-size:60px;"">+</div>","null","","","","","","",""
"276.3100000009872","","image-keyboard-response","562","621072","0.0-6.0-0.114","","img/green.png","32","trial","null","false","0.4,0.6","2:nogo_b","",""
"null","","html-keyboard-response","563","622081","0.0-6.0-1.114","","<img src=""img/green-n.png"" border=""10"">","null","trial","null","","0.4,0.6","2:nogo_b","0",""
"null","","html-keyboard-response","564","623084","0.0-6.0-2.114","","<div style=""font-size:60px;"">+</div>","null","","","","","","",""
"272.334999994142","","image-keyboard-response","565","623357","0.0-6.0-0.115","","img/yellow.png","32","trial","32","true","0.6,0.4","3:go_c","",""
"null","","html-keyboard-response","566","624368","0.0-6.0-1.115","","<img src=""img/yellow-r.png"" border=""10"">","null","trial","32","","0.6,0.4","3:go_c","1",""
"null","","html-keyboard-response","567","625388","0.0-6.0-2.115","","<div style=""font-size:60px;"">+</div>","null","","","","","","",""
"null","","image-keyboard-response","568","626900","0.0-6.0-0.116","","img/yellow.png","null","trial","32","false","0.6,0.4","3:go_c","",""
"null","","html-keyboard-response","569","627906","0.0-6.0-1.116","","<img src=""img/yellow-r.png"">","null","trial","32","","0.6,0.4","3:go_c","1",""
"null","","html-keyboard-response","570","628907","0.0-6.0-2.116","","<div style=""font-size:60px;"">+</div>","null","","","","","","",""
"null","","image-keyboard-response","571","630425","0.0-6.0-0.117","","img/orange.png","null","trial","32","false","0.6,0.4","1:go_a","",""
"null","","html-keyboard-response","572","631439","0.0-6.0-1.117","","<img src=""img/orange-n.png"">","null","trial","32","","0.6,0.4","1:go_a","0",""
"null","","html-keyboard-response","573","632448","0.0-6.0-2.117","","<div style=""font-size:60px;"">+</div>","null","","","","","","",""
"361.41499999933876","","image-keyboard-response","574","632811","0.0-6.0-0.118","","img/green.png","32","trial","null","false","0.4,0.6","2:nogo_b","",""
"null","","html-keyboard-response","575","633822","0.0-6.0-1.118","","<img src=""img/green-r.png"" border=""10"">","null","trial","null","","0.4,0.6","2:nogo_b","1",""
"null","","html-keyboard-response","576","634832","0.0-6.0-2.118","","<div style=""font-size:60px;"">+</div>","null","","","","","","",""
"null","","image-keyboard-response","577","636341","0.0-6.0-0.119","","img/red.png","null","trial","null","true","0.4,0.6","4:nogo_d","",""
"null","","html-keyboard-response","578","637354","0.0-6.0-1.119","","<img src=""img/red-n.png"">","null","trial","null","","0.4,0.6","4:nogo_d","0",""
"null","","html-keyboard-response","579","638369","0.0-6.0-2.119","","<div style=""font-size:60px;"">+</div>","null","","","","","","",""
"48036.23499999952","","instructions","580","686406","0.0-7.0","[{""page_index"":0,""viewing_time"":48035.92999999807}]","","","","","","","","",""
"992.5599999987753","","image-keyboard-response","581","687401","0.0-8.0-0.0","","img/purple.png","32","trial","32","true","1,0","3:go_c","",""
"null","","html-keyboard-response","582","688415","0.0-8.0-1.0","","<img src=""img/purple-r.png"" border=""10"">","null","trial","32","","1,0","3:go_c","1",""
"null","","html-keyboard-response","583","689419","0.0-8.0-2.0","","<div style=""font-size:60px;"">+</div>","null","","","","","","",""
"null","","image-keyboard-response","584","690933","0.0-8.0-0.1","","img/yellow.png","null","trial","null","true","0,1","4:nogo_d","",""
"null","","html-keyboard-response","585","691946","0.0-8.0-1.1","","<img src=""img/yellow-r.png"">","null","trial","null","","0,1","4:nogo_d","1",""
"null","","html-keyboard-response","586","692948","0.0-8.0-2.1","","<div style=""font-size:60px;"">+</div>","null","","","","","","",""
"358.619999999064","","image-keyboard-response","587","693307","0.0-8.0-0.2","","img/orange.png","32","trial","32","true","0.8,0.2","1:go_a","",""
"null","","html-keyboard-response","588","694324","0.0-8.0-1.2","","<img src=""img/orange-r.png"" border=""10"">","null","trial","32","","0.8,0.2","1:go_a","1",""
"null","","html-keyboard-response","589","695329","0.0-8.0-2.2","","<div style=""font-size:60px;"">+</div>","null","","","","","","",""
"331.3150000029709","","image-keyboard-response","590","695661","0.0-8.0-0.3","","img/red.png","32","trial","null","false","0.2,0.8","2:nogo_b","",""
"null","","html-keyboard-response","591","696664","0.0-8.0-1.3","","<img src=""img/red-n.png"" border=""10"">","null","trial","null","","0.2,0.8","2:nogo_b","0",""
"null","","html-keyboard-response","592","697671","0.0-8.0-2.3","","<div style=""font-size:60px;"">+</div>","null","","","","","","",""
"null","","image-keyboard-response","593","699184","0.0-8.0-0.4","","img/purple.png","null","trial","32","false","1,0","3:go_c","",""
"null","","html-keyboard-response","594","700188","0.0-8.0-1.4","","<img src=""img/purple-n.png"">","null","trial","32","","1,0","3:go_c","0",""
"null","","html-keyboard-response","595","701191","0.0-8.0-2.4","","<div style=""font-size:60px;"">+</div>","null","","","","","","",""
"null","","image-keyboard-response","596","702694","0.0-8.0-0.5","","img/yellow.png","null","trial","null","true","0,1","4:nogo_d","",""
"null","","html-keyboard-response","597","703697","0.0-8.0-1.5","","<img src=""img/yellow-r.png"">","null","trial","null","","0,1","4:nogo_d","1",""
"null","","html-keyboard-response","598","704707","0.0-8.0-2.5","","<div style=""font-size:60px;"">+</div>","null","","","","","","",""
"432.69499999587424","","image-keyboard-response","599","705141","0.0-8.0-0.6","","img/red.png","32","trial","null","false","0.2,0.8","2:nogo_b","",""
"null","","html-keyboard-response","600","706149","0.0-8.0-1.6","","<img src=""img/red-n.png"" border=""10"">","null","trial","null","","0.2,0.8","2:nogo_b","0",""
"null","","html-keyboard-response","601","707153","0.0-8.0-2.6","","<div style=""font-size:60px;"">+</div>","null","","","","","","",""
"412.9300000057556","","image-keyboard-response","602","707567","0.0-8.0-0.7","","img/orange.png","32","trial","32","true","0.8,0.2","1:go_a","",""
"null","","html-keyboard-response","603","708573","0.0-8.0-1.7","","<img src=""img/orange-r.png"" border=""10"">","null","trial","32","","0.8,0.2","1:go_a","1",""
"null","","html-keyboard-response","604","709582","0.0-8.0-2.7","","<div style=""font-size:60px;"">+</div>","null","","","","","","",""
"1326.275000006659","","image-keyboard-response","605","710909","0.0-8.0-0.8","","img/yellow.png","32","trial","null","false","0,1","4:nogo_d","",""
"null","","html-keyboard-response","606","711913","0.0-8.0-1.8","","<img src=""img/yellow-n.png"" border=""10"">","null","trial","null","","0,1","4:nogo_d","0",""
"null","","html-keyboard-response","607","712918","0.0-8.0-2.8","","<div style=""font-size:60px;"">+</div>","null","","","","","","",""
"778.6150000027847","","image-keyboard-response","608","713698","0.0-8.0-0.9","","img/purple.png","32","trial","32","true","1,0","3:go_c","",""
"null","","html-keyboard-response","609","714709","0.0-8.0-1.9","","<img src=""img/purple-r.png"" border=""10"">","null","trial","32","","1,0","3:go_c","1",""
"null","","html-keyboard-response","610","715723","0.0-8.0-2.9","","<div style=""font-size:60px;"">+</div>","null","","","","","","",""
"null","","image-keyboard-response","611","717239","0.0-8.0-0.10","","img/red.png","null","trial","null","true","0.2,0.8","2:nogo_b","",""
"null","","html-keyboard-response","612","718253","0.0-8.0-1.10","","<img src=""img/red-r.png"">","null","trial","null","","0.2,0.8","2:nogo_b","1",""
"null","","html-keyboard-response","613","719258","0.0-8.0-2.10","","<div style=""font-size:60px;"">+</div>","null","","","","","","",""
"null","","image-keyboard-response","614","720762","0.0-8.0-0.11","","img/orange.png","null","trial","32","false","0.8,0.2","1:go_a","",""
"null","","html-keyboard-response","615","721775","0.0-8.0-1.11","","<img src=""img/orange-n.png"">","null","trial","32","","0.8,0.2","1:go_a","0",""
"null","","html-keyboard-response","616","722785","0.0-8.0-2.11","","<div style=""font-size:60px;"">+</div>","null","","","","","","",""
"627.234999999986","","image-keyboard-response","617","723413","0.0-8.0-0.12","","img/purple.png","32","trial","32","true","1,0","3:go_c","",""
"null","","html-keyboard-response","618","724427","0.0-8.0-1.12","","<img src=""img/purple-r.png"" border=""10"">","null","trial","32","","1,0","3:go_c","1",""
"null","","html-keyboard-response","619","725440","0.0-8.0-2.12","","<div style=""font-size:60px;"">+</div>","null","","","","","","",""
"null","","image-keyboard-response","620","726954","0.0-8.0-0.13","","img/red.png","null","trial","null","true","0.2,0.8","2:nogo_b","",""
"null","","html-keyboard-response","621","727956","0.0-8.0-1.13","","<img src=""img/red-r.png"">","null","trial","null","","0.2,0.8","2:nogo_b","1",""
"null","","html-keyboard-response","622","728960","0.0-8.0-2.13","","<div style=""font-size:60px;"">+</div>","null","","","","","","",""
"null","","image-keyboard-response","623","730475","0.0-8.0-0.14","","img/yellow.png","null","trial","null","true","0,1","4:nogo_d","",""
"null","","html-keyboard-response","624","731489","0.0-8.0-1.14","","<img src=""img/yellow-r.png"">","null","trial","null","","0,1","4:nogo_d","1",""
"null","","html-keyboard-response","625","732499","0.0-8.0-2.14","","<div style=""font-size:60px;"">+</div>","null","","","","","","",""
"null","","image-keyboard-response","626","734015","0.0-8.0-0.15","","img/orange.png","null","trial","32","false","0.8,0.2","1:go_a","",""
"null","","html-keyboard-response","627","735030","0.0-8.0-1.15","","<img src=""img/orange-n.png"">","null","trial","32","","0.8,0.2","1:go_a","0",""
"null","","html-keyboard-response","628","736043","0.0-8.0-2.15","","<div style=""font-size:60px;"">+</div>","null","","","","","","",""
"886.6350000025705","","image-keyboard-response","629","736931","0.0-8.0-0.16","","img/orange.png","32","trial","32","true","0.8,0.2","1:go_a","",""
"null","","html-keyboard-response","630","737938","0.0-8.0-1.16","","<img src=""img/orange-r.png"" border=""10"">","null","trial","32","","0.8,0.2","1:go_a","1",""
"null","","html-keyboard-response","631","738952","0.0-8.0-2.16","","<div style=""font-size:60px;"">+</div>","null","","","","","","",""
"784.8500000035856","","image-keyboard-response","632","739738","0.0-8.0-0.17","","img/yellow.png","32","trial","null","false","0,1","4:nogo_d","",""
"null","","html-keyboard-response","633","740748","0.0-8.0-1.17","","<img src=""img/yellow-n.png"" border=""10"">","null","trial","null","","0,1","4:nogo_d","0",""
"null","","html-keyboard-response","634","741762","0.0-8.0-2.17","","<div style=""font-size:60px;"">+</div>","null","","","","","","",""
"null","","image-keyboard-response","635","743266","0.0-8.0-0.18","","img/purple.png","null","trial","32","false","1,0","3:go_c","",""
"null","","html-keyboard-response","636","744281","0.0-8.0-1.18","","<img src=""img/purple-n.png"">","null","trial","32","","1,0","3:go_c","0",""
"null","","html-keyboard-response","637","745287","0.0-8.0-2.18","","<div style=""font-size:60px;"">+</div>","null","","","","","","",""
"null","","image-keyboard-response","638","746804","0.0-8.0-0.19","","img/red.png","null","trial","null","true","0.2,0.8","2:nogo_b","",""
"null","","html-keyboard-response","639","747810","0.0-8.0-1.19","","<img src=""img/red-n.png"">","null","trial","null","","0.2,0.8","2:nogo_b","0",""
"null","","html-keyboard-response","640","748812","0.0-8.0-2.19","","<div style=""font-size:60px;"">+</div>","null","","","","","","",""
"null","","image-keyboard-response","641","750328","0.0-8.0-0.20","","img/yellow.png","null","trial","null","true","0,1","4:nogo_d","",""
"null","","html-keyboard-response","642","751339","0.0-8.0-1.20","","<img src=""img/yellow-r.png"">","null","trial","null","","0,1","4:nogo_d","1",""
"null","","html-keyboard-response","643","752351","0.0-8.0-2.20","","<div style=""font-size:60px;"">+</div>","null","","","","","","",""
"567.7799999975832","","image-keyboard-response","644","752919","0.0-8.0-0.21","","img/orange.png","32","trial","32","true","0.8,0.2","1:go_a","",""
"null","","html-keyboard-response","645","753928","0.0-8.0-1.21","","<img src=""img/orange-n.png"" border=""10"">","null","trial","32","","0.8,0.2","1:go_a","0",""
"null","","html-keyboard-response","646","754943","0.0-8.0-2.21","","<div style=""font-size:60px;"">+</div>","null","","","","","","",""
"540.1849999980768","","image-keyboard-response","647","755485","0.0-8.0-0.22","","img/purple.png","32","trial","32","true","1,0","3:go_c","",""
"null","","html-keyboard-response","648","756497","0.0-8.0-1.22","","<img src=""img/purple-r.png"" border=""10"">","null","trial","32","","1,0","3:go_c","1",""
"null","","html-keyboard-response","649","757512","0.0-8.0-2.22","","<div style=""font-size:60px;"">+</div>","null","","","","","","",""
"null","","image-keyboard-response","650","759016","0.0-8.0-0.23","","img/red.png","null","trial","null","true","0.2,0.8","2:nogo_b","",""
"null","","html-keyboard-response","651","760031","0.0-8.0-1.23","","<img src=""img/red-r.png"">","null","trial","null","","0.2,0.8","2:nogo_b","1",""
"null","","html-keyboard-response","652","761046","0.0-8.0-2.23","","<div style=""font-size:60px;"">+</div>","null","","","","","","",""
"null","","image-keyboard-response","653","762562","0.0-8.0-0.24","","img/yellow.png","null","trial","null","true","0,1","4:nogo_d","",""
"null","","html-keyboard-response","654","763580","0.0-8.0-1.24","","<img src=""img/yellow-r.png"">","null","trial","null","","0,1","4:nogo_d","1",""
"null","","html-keyboard-response","655","764595","0.0-8.0-2.24","","<div style=""font-size:60px;"">+</div>","null","","","","","","",""
"null","","image-keyboard-response","656","766107","0.0-8.0-0.25","","img/red.png","null","trial","null","true","0.2,0.8","2:nogo_b","",""
"null","","html-keyboard-response","657","767121","0.0-8.0-1.25","","<img src=""img/red-r.png"">","null","trial","null","","0.2,0.8","2:nogo_b","1",""
"null","","html-keyboard-response","658","768124","0.0-8.0-2.25","","<div style=""font-size:60px;"">+</div>","null","","","","","","",""
"1107.435000005411","","image-keyboard-response","659","769233","0.0-8.0-0.26","","img/orange.png","32","trial","32","true","0.8,0.2","1:go_a","",""
"null","","html-keyboard-response","660","770235","0.0-8.0-1.26","","<img src=""img/orange-n.png"" border=""10"">","null","trial","32","","0.8,0.2","1:go_a","0",""
"null","","html-keyboard-response","661","771248","0.0-8.0-2.26","","<div style=""font-size:60px;"">+</div>","null","","","","","","",""
"761.959999996121","","image-keyboard-response","662","772011","0.0-8.0-0.27","","img/purple.png","32","trial","32","true","1,0","3:go_c","",""
"null","","html-keyboard-response","663","773017","0.0-8.0-1.27","","<img src=""img/purple-r.png"" border=""10"">","null","trial","32","","1,0","3:go_c","1",""
"null","","html-keyboard-response","664","774027","0.0-8.0-2.27","","<div style=""font-size:60px;"">+</div>","null","","","","","","",""
"null","","image-keyboard-response","665","775537","0.0-8.0-0.28","","img/orange.png","null","trial","32","false","0.8,0.2","1:go_a","",""
"null","","html-keyboard-response","666","776551","0.0-8.0-1.28","","<img src=""img/orange-r.png"">","null","trial","32","","0.8,0.2","1:go_a","1",""
"null","","html-keyboard-response","667","777567","0.0-8.0-2.28","","<div style=""font-size:60px;"">+</div>","null","","","","","","",""
"439.77499999885913","","image-keyboard-response","668","778008","0.0-8.0-0.29","","img/purple.png","32","trial","32","true","1,0","3:go_c","",""
"null","","html-keyboard-response","669","779023","0.0-8.0-1.29","","<img src=""img/purple-r.png"" border=""10"">","null","trial","32","","1,0","3:go_c","1",""
"null","","html-keyboard-response","670","780038","0.0-8.0-2.29","","<div style=""font-size:60px;"">+</div>","null","","","","","","",""
"565.9500000036787","","image-keyboard-response","671","780605","0.0-8.0-0.30","","img/yellow.png","32","trial","null","false","0,1","4:nogo_d","",""
"null","","html-keyboard-response","672","781619","0.0-8.0-1.30","","<img src=""img/yellow-n.png"" border=""10"">","null","trial","null","","0,1","4:nogo_d","0",""
"null","","html-keyboard-response","673","782632","0.0-8.0-2.30","","<div style=""font-size:60px;"">+</div>","null","","","","","","",""
"null","","image-keyboard-response","674","784146","0.0-8.0-0.31","","img/red.png","null","trial","null","true","0.2,0.8","2:nogo_b","",""
"null","","html-keyboard-response","675","785159","0.0-8.0-1.31","","<img src=""img/red-r.png"">","null","trial","null","","0.2,0.8","2:nogo_b","1",""
"null","","html-keyboard-response","676","786163","0.0-8.0-2.31","","<div style=""font-size:60px;"">+</div>","null","","","","","","",""
"352.9649999982212","","image-keyboard-response","677","786517","0.0-8.0-0.32","","img/yellow.png","32","trial","null","false","0,1","4:nogo_d","",""
