"rt","url","trial_type","trial_index","time_elapsed","internal_node_id","view_history","stimulus","key_press","test_part","correct_response","correct","use_rew","which_stim","reward","responses"
"30178.764999844134","consent.html","external-html","0","30305","0.0-0.0","","","","","","","","","",""
"370848.9250000566","","instructions","1","401156","0.0-1.0","[{""page_index"":0,""viewing_time"":8796.30000051111},{""page_index"":1,""viewing_time"":14829.064999707043},{""page_index"":2,""viewing_time"":4130.845000036061},{""page_index"":3,""viewing_time"":186623.16500023007},{""page_index"":4,""viewing_time"":133770.15000022948},{""page_index"":5,""viewing_time"":8915.12000001967},{""page_index"":6,""viewing_time"":13783.68499968201}]","","","","","","","","",""
"574.0999998524785","","image-keyboard-response","2","401731","0.0-2.0-0.0","","img/test1.PNG","32","practice","32","true","","","",""
"null","","html-keyboard-response","3","402732","0.0-2.0-1.0","","<img src=""img/test1-reward.PNG"" border=""10px; grey"">","null","","","","","","",""
"null","","html-keyboard-response","4","403734","0.0-2.0-2.0","","<div style=""font-size:60px;"">+</div>","null","","","","","","",""
"null","","image-keyboard-response","5","405236","0.0-2.0-0.1","","img/test2.PNG","null","practice","null","true","","","",""
"null","","html-keyboard-response","6","406238","0.0-2.0-1.1","","<img src=""img/test2-reward.PNG"">","null","","","","","","",""
"null","","html-keyboard-response","7","407240","0.0-2.0-2.1","","<div style=""font-size:60px;"">+</div>","null","","","","","","",""
"null","","image-keyboard-response","8","408741","0.0-2.0-0.2","","img/test3.PNG","null","practice","null","true","","","",""
"null","","html-keyboard-response","9","409742","0.0-2.0-1.2","","<img src=""img/test3-reward.PNG"">","null","","","","","","",""
"null","","html-keyboard-response","10","410743","0.0-2.0-2.2","","<div style=""font-size:60px;"">+</div>","null","","","","","","",""
"null","","image-keyboard-response","11","412245","0.0-2.0-0.3","","img/test3.PNG","null","practice","null","true","","","",""
"null","","html-keyboard-response","12","413246","0.0-2.0-1.3","","<img src=""img/test3-reward.PNG"">","null","","","","","","",""
"null","","html-keyboard-response","13","414247","0.0-2.0-2.3","","<div style=""font-size:60px;"">+</div>","null","","","","","","",""
"null","","image-keyboard-response","14","415749","0.0-2.0-0.4","","img/test2.PNG","null","practice","null","true","","","",""
"null","","html-keyboard-response","15","416750","0.0-2.0-1.4","","<img src=""img/test2-reward.PNG"">","null","","","","","","",""
"null","","html-keyboard-response","16","417750","0.0-2.0-2.4","","<div style=""font-size:60px;"">+</div>","null","","","","","","",""
"393.2749992236495","","image-keyboard-response","17","418144","0.0-2.0-0.5","","img/test1.PNG","32","practice","32","true","","","",""
"null","","html-keyboard-response","18","419145","0.0-2.0-1.5","","<img src=""img/test1-reward.PNG"" border=""10px; grey"">","null","","","","","","",""
"null","","html-keyboard-response","19","420146","0.0-2.0-2.5","","<div style=""font-size:60px;"">+</div>","null","","","","","","",""
"594.5850005373359","","image-keyboard-response","20","420741","0.0-2.0-0.6","","img/test1.PNG","32","practice","32","true","","","",""
"null","","html-keyboard-response","21","421742","0.0-2.0-1.6","","<img src=""img/test1-reward.PNG"" border=""10px; grey"">","null","","","","","","",""
"null","","html-keyboard-response","22","422744","0.0-2.0-2.6","","<div style=""font-size:60px;"">+</div>","null","","","","","","",""
"null","","image-keyboard-response","23","424246","0.0-2.0-0.7","","img/test3.PNG","null","practice","null","true","","","",""
"null","","html-keyboard-response","24","425248","0.0-2.0-1.7","","<img src=""img/test3-reward.PNG"">","null","","","","","","",""
"null","","html-keyboard-response","25","426249","0.0-2.0-2.7","","<div style=""font-size:60px;"">+</div>","null","","","","","","",""
"null","","image-keyboard-response","26","427751","0.0-2.0-0.8","","img/test2.PNG","null","practice","null","true","","","",""
"null","","html-keyboard-response","27","428752","0.0-2.0-1.8","","<img src=""img/test2-reward.PNG"">","null","","","","","","",""
"null","","html-keyboard-response","28","429753","0.0-2.0-2.8","","<div style=""font-size:60px;"">+</div>","null","","","","","","",""
"null","","image-keyboard-response","29","431256","0.0-2.0-0.9","","img/test3.PNG","null","practice","null","true","","","",""
"null","","html-keyboard-response","30","432257","0.0-2.0-1.9","","<img src=""img/test3-reward.PNG"">","null","","","","","","",""
"null","","html-keyboard-response","31","433258","0.0-2.0-2.9","","<div style=""font-size:60px;"">+</div>","null","","","","","","",""
"517.2399999573827","","image-keyboard-response","32","433776","0.0-2.0-0.10","","img/test1.PNG","32","practice","32","true","","","",""
"null","","html-keyboard-response","33","434778","0.0-2.0-1.10","","<img src=""img/test1-reward.PNG"" border=""10px; grey"">","null","","","","","","",""
"null","","html-keyboard-response","34","435779","0.0-2.0-2.10","","<div style=""font-size:60px;"">+</div>","null","","","","","","",""
"null","","image-keyboard-response","35","437280","0.0-2.0-0.11","","img/test2.PNG","null","practice","null","true","","","",""
"null","","html-keyboard-response","36","438281","0.0-2.0-1.11","","<img src=""img/test2-reward.PNG"">","null","","","","","","",""
"null","","html-keyboard-response","37","439283","0.0-2.0-2.11","","<div style=""font-size:60px;"">+</div>","null","","","","","","",""
"2587.5949999317527","","instructions","38","441871","0.0-3.0","[{""page_index"":0,""viewing_time"":2587.480000220239}]","","","","","","","","",""
"1069.7699999436736","","image-keyboard-response","39","442942","0.0-4.0-0.0","","img/purple.png","32","trial","32","true","0.8,0.2","1:go_a","",""
"null","","html-keyboard-response","40","443945","0.0-4.0-1.0","","<img src=""img/purple-r.png"" border=""10"">","null","trial","32","","0.8,0.2","1:go_a","1",""
"null","","html-keyboard-response","41","444946","0.0-4.0-2.0","","<div style=""font-size:60px;"">+</div>","null","","","","","","",""
"867.3700001090765","","image-keyboard-response","42","445814","0.0-4.0-0.1","","img/orange.png","32","trial","null","false","0.2,0.8","2:nogo_b","",""
"null","","html-keyboard-response","43","446816","0.0-4.0-1.1","","<img src=""img/orange-n.png"" border=""10"">","null","trial","null","","0.2,0.8","2:nogo_b","0",""
"null","","html-keyboard-response","44","447816","0.0-4.0-2.1","","<div style=""font-size:60px;"">+</div>","null","","","","","","",""
"null","","image-keyboard-response","45","449318","0.0-4.0-0.2","","img/orange.png","null","trial","null","true","0.2,0.8","2:nogo_b","",""
"null","","html-keyboard-response","46","450320","0.0-4.0-1.2","","<img src=""img/orange-r.png"">","null","trial","null","","0.2,0.8","2:nogo_b","1",""
"null","","html-keyboard-response","47","451321","0.0-4.0-2.2","","<div style=""font-size:60px;"">+</div>","null","","","","","","",""
"439.28000051528215","","image-keyboard-response","48","451761","0.0-4.0-0.3","","img/purple.png","32","trial","32","true","0.8,0.2","1:go_a","",""
"null","","html-keyboard-response","49","452764","0.0-4.0-1.3","","<img src=""img/purple-r.png"" border=""10"">","null","trial","32","","0.8,0.2","1:go_a","1",""
"null","","html-keyboard-response","50","453765","0.0-4.0-2.3","","<div style=""font-size:60px;"">+</div>","null","","","","","","",""
"609.4450000673532","","image-keyboard-response","51","454375","0.0-4.0-0.4","","img/orange.png","32","trial","null","false","0.2,0.8","2:nogo_b","",""
"null","","html-keyboard-response","52","455376","0.0-4.0-1.4","","<img src=""img/orange-n.png"" border=""10"">","null","trial","null","","0.2,0.8","2:nogo_b","0",""
"null","","html-keyboard-response","53","456378","0.0-4.0-2.4","","<div style=""font-size:60px;"">+</div>","null","","","","","","",""
"441.25999975949526","","image-keyboard-response","54","456820","0.0-4.0-0.5","","img/purple.png","32","trial","32","true","0.8,0.2","1:go_a","",""
"null","","html-keyboard-response","55","457821","0.0-4.0-1.5","","<img src=""img/purple-r.png"" border=""10"">","null","trial","32","","0.8,0.2","1:go_a","1",""
"null","","html-keyboard-response","56","458823","0.0-4.0-2.5","","<div style=""font-size:60px;"">+</div>","null","","","","","","",""
"411.34999971836805","","image-keyboard-response","57","459235","0.0-4.0-0.6","","img/purple.png","32","trial","32","true","0.8,0.2","1:go_a","",""
"null","","html-keyboard-response","58","460249","0.0-4.0-1.6","","<img src=""img/purple-r.png"" border=""10"">","null","trial","32","","0.8,0.2","1:go_a","1",""
"null","","html-keyboard-response","59","461251","0.0-4.0-2.6","","<div style=""font-size:60px;"">+</div>","null","","","","","","",""
"null","","image-keyboard-response","60","462753","0.0-4.0-0.7","","img/orange.png","null","trial","null","true","0.2,0.8","2:nogo_b","",""
"null","","html-keyboard-response","61","463755","0.0-4.0-1.7","","<img src=""img/orange-r.png"">","null","trial","null","","0.2,0.8","2:nogo_b","1",""
"null","","html-keyboard-response","62","464756","0.0-4.0-2.7","","<div style=""font-size:60px;"">+</div>","null","","","","","","",""
"414.7649994120002","","image-keyboard-response","63","465171","0.0-4.0-0.8","","img/purple.png","32","trial","32","true","0.8,0.2","1:go_a","",""
"null","","html-keyboard-response","64","466172","0.0-4.0-1.8","","<img src=""img/purple-r.png"" border=""10"">","null","trial","32","","0.8,0.2","1:go_a","1",""
"null","","html-keyboard-response","65","467173","0.0-4.0-2.8","","<div style=""font-size:60px;"">+</div>","null","","","","","","",""
"null","","image-keyboard-response","66","468675","0.0-4.0-0.9","","img/orange.png","null","trial","null","true","0.2,0.8","2:nogo_b","",""
"null","","html-keyboard-response","67","469680","0.0-4.0-1.9","","<img src=""img/orange-n.png"">","null","trial","null","","0.2,0.8","2:nogo_b","0",""
"null","","html-keyboard-response","68","470681","0.0-4.0-2.9","","<div style=""font-size:60px;"">+</div>","null","","","","","","",""
"null","","image-keyboard-response","69","472184","0.0-4.0-0.10","","img/orange.png","null","trial","null","true","0.2,0.8","2:nogo_b","",""
"null","","html-keyboard-response","70","473185","0.0-4.0-1.10","","<img src=""img/orange-r.png"">","null","trial","null","","0.2,0.8","2:nogo_b","1",""
"null","","html-keyboard-response","71","474186","0.0-4.0-2.10","","<div style=""font-size:60px;"">+</div>","null","","","","","","",""
"374.99500066041946","","image-keyboard-response","72","474562","0.0-4.0-0.11","","img/purple.png","32","trial","32","true","0.8,0.2","1:go_a","",""
"null","","html-keyboard-response","73","475564","0.0-4.0-1.11","","<img src=""img/purple-r.png"" border=""10"">","null","trial","32","","0.8,0.2","1:go_a","1",""
"null","","html-keyboard-response","74","476565","0.0-4.0-2.11","","<div style=""font-size:60px;"">+</div>","null","","","","","","",""
"361.6150002926588","","image-keyboard-response","75","476927","0.0-4.0-0.12","","img/purple.png","32","trial","32","true","0.8,0.2","1:go_a","",""
"null","","html-keyboard-response","76","477929","0.0-4.0-1.12","","<img src=""img/purple-r.png"" border=""10"">","null","trial","32","","0.8,0.2","1:go_a","1",""
"null","","html-keyboard-response","77","478930","0.0-4.0-2.12","","<div style=""font-size:60px;"">+</div>","null","","","","","","",""
"null","","image-keyboard-response","78","480431","0.0-4.0-0.13","","img/orange.png","null","trial","null","true","0.2,0.8","2:nogo_b","",""
"null","","html-keyboard-response","79","481433","0.0-4.0-1.13","","<img src=""img/orange-r.png"">","null","trial","null","","0.2,0.8","2:nogo_b","1",""
"null","","html-keyboard-response","80","482434","0.0-4.0-2.13","","<div style=""font-size:60px;"">+</div>","null","","","","","","",""
"null","","image-keyboard-response","81","483935","0.0-4.0-0.14","","img/orange.png","null","trial","null","true","0.2,0.8","2:nogo_b","",""
"null","","html-keyboard-response","82","484938","0.0-4.0-1.14","","<img src=""img/orange-n.png"">","null","trial","null","","0.2,0.8","2:nogo_b","0",""
"null","","html-keyboard-response","83","485939","0.0-4.0-2.14","","<div style=""font-size:60px;"">+</div>","null","","","","","","",""
"377.5199996307492","","image-keyboard-response","84","486318","0.0-4.0-0.15","","img/purple.png","32","trial","32","true","0.8,0.2","1:go_a","",""
"null","","html-keyboard-response","85","487320","0.0-4.0-1.15","","<img src=""img/purple-r.png"" border=""10"">","null","trial","32","","0.8,0.2","1:go_a","1",""
"null","","html-keyboard-response","86","488321","0.0-4.0-2.15","","<div style=""font-size:60px;"">+</div>","null","","","","","","",""
"444.2050000652671","","image-keyboard-response","87","488765","0.0-4.0-0.16","","img/orange.png","32","trial","null","false","0.2,0.8","2:nogo_b","",""
"null","","html-keyboard-response","88","489768","0.0-4.0-1.16","","<img src=""img/orange-n.png"" border=""10"">","null","trial","null","","0.2,0.8","2:nogo_b","0",""
"null","","html-keyboard-response","89","490769","0.0-4.0-2.16","","<div style=""font-size:60px;"">+</div>","null","","","","","","",""
"483.3200005814433","","image-keyboard-response","90","491253","0.0-4.0-0.17","","img/purple.png","32","trial","32","true","0.8,0.2","1:go_a","",""
"null","","html-keyboard-response","91","492255","0.0-4.0-1.17","","<img src=""img/purple-r.png"" border=""10"">","null","trial","32","","0.8,0.2","1:go_a","1",""
"null","","html-keyboard-response","92","493256","0.0-4.0-2.17","","<div style=""font-size:60px;"">+</div>","null","","","","","","",""
"null","","image-keyboard-response","93","494758","0.0-4.0-0.18","","img/orange.png","null","trial","null","true","0.2,0.8","2:nogo_b","",""
"null","","html-keyboard-response","94","495760","0.0-4.0-1.18","","<img src=""img/orange-r.png"">","null","trial","null","","0.2,0.8","2:nogo_b","1",""
"null","","html-keyboard-response","95","496762","0.0-4.0-2.18","","<div style=""font-size:60px;"">+</div>","null","","","","","","",""
"418.75499952584505","","image-keyboard-response","96","497182","0.0-4.0-0.19","","img/purple.png","32","trial","32","true","0.8,0.2","1:go_a","",""
"null","","html-keyboard-response","97","498185","0.0-4.0-1.19","","<img src=""img/purple-r.png"" border=""10"">","null","trial","32","","0.8,0.2","1:go_a","1",""
"null","","html-keyboard-response","98","499186","0.0-4.0-2.19","","<div style=""font-size:60px;"">+</div>","null","","","","","","",""
"null","","image-keyboard-response","99","500687","0.0-4.0-0.20","","img/orange.png","null","trial","null","true","0.2,0.8","2:nogo_b","",""
"null","","html-keyboard-response","100","501688","0.0-4.0-1.20","","<img src=""img/orange-r.png"">","null","trial","null","","0.2,0.8","2:nogo_b","1",""
"null","","html-keyboard-response","101","502689","0.0-4.0-2.20","","<div style=""font-size:60px;"">+</div>","null","","","","","","",""
"358.4249997511506","","image-keyboard-response","102","503048","0.0-4.0-0.21","","img/purple.png","32","trial","32","true","0.8,0.2","1:go_a","",""
"null","","html-keyboard-response","103","504050","0.0-4.0-1.21","","<img src=""img/purple-n.png"" border=""10"">","null","trial","32","","0.8,0.2","1:go_a","0",""
"null","","html-keyboard-response","104","505051","0.0-4.0-2.21","","<div style=""font-size:60px;"">+</div>","null","","","","","","",""
"528.1100003048778","","image-keyboard-response","105","505579","0.0-4.0-0.22","","img/purple.png","32","trial","32","true","0.8,0.2","1:go_a","",""
"null","","html-keyboard-response","106","506581","0.0-4.0-1.22","","<img src=""img/purple-n.png"" border=""10"">","null","trial","32","","0.8,0.2","1:go_a","0",""
"null","","html-keyboard-response","107","507582","0.0-4.0-2.22","","<div style=""font-size:60px;"">+</div>","null","","","","","","",""
"493.2350004091859","","image-keyboard-response","108","508076","0.0-4.0-0.23","","img/orange.png","32","trial","null","false","0.2,0.8","2:nogo_b","",""
"null","","html-keyboard-response","109","509078","0.0-4.0-1.23","","<img src=""img/orange-n.png"" border=""10"">","null","trial","null","","0.2,0.8","2:nogo_b","0",""
"null","","html-keyboard-response","110","510080","0.0-4.0-2.23","","<div style=""font-size:60px;"">+</div>","null","","","","","","",""
"null","","image-keyboard-response","111","511581","0.0-4.0-0.24","","img/orange.png","null","trial","null","true","0.2,0.8","2:nogo_b","",""
"null","","html-keyboard-response","112","512583","0.0-4.0-1.24","","<img src=""img/orange-r.png"">","null","trial","null","","0.2,0.8","2:nogo_b","1",""
"null","","html-keyboard-response","113","513584","0.0-4.0-2.24","","<div style=""font-size:60px;"">+</div>","null","","","","","","",""
"448.5750002786517","","image-keyboard-response","114","514033","0.0-4.0-0.25","","img/purple.png","32","trial","32","true","0.8,0.2","1:go_a","",""
"null","","html-keyboard-response","115","515035","0.0-4.0-1.25","","<img src=""img/purple-r.png"" border=""10"">","null","trial","32","","0.8,0.2","1:go_a","1",""
"null","","html-keyboard-response","116","516036","0.0-4.0-2.25","","<div style=""font-size:60px;"">+</div>","null","","","","","","",""
"873.2449999079108","","image-keyboard-response","117","516909","0.0-4.0-0.26","","img/orange.png","32","trial","null","false","0.2,0.8","2:nogo_b","",""
"null","","html-keyboard-response","118","517911","0.0-4.0-1.26","","<img src=""img/orange-n.png"" border=""10"">","null","trial","null","","0.2,0.8","2:nogo_b","0",""
"null","","html-keyboard-response","119","518911","0.0-4.0-2.26","","<div style=""font-size:60px;"">+</div>","null","","","","","","",""
"414.300000295043","","image-keyboard-response","120","519326","0.0-4.0-0.27","","img/purple.png","32","trial","32","true","0.8,0.2","1:go_a","",""
"null","","html-keyboard-response","121","520328","0.0-4.0-1.27","","<img src=""img/purple-r.png"" border=""10"">","null","trial","32","","0.8,0.2","1:go_a","1",""
"null","","html-keyboard-response","122","521329","0.0-4.0-2.27","","<div style=""font-size:60px;"">+</div>","null","","","","","","",""
"null","","image-keyboard-response","123","522831","0.0-4.0-0.28","","img/orange.png","null","trial","null","true","0.2,0.8","2:nogo_b","",""
"null","","html-keyboard-response","124","523832","0.0-4.0-1.28","","<img src=""img/orange-r.png"">","null","trial","null","","0.2,0.8","2:nogo_b","1",""
"null","","html-keyboard-response","125","524834","0.0-4.0-2.28","","<div style=""font-size:60px;"">+</div>","null","","","","","","",""
"344.7249997407198","","image-keyboard-response","126","525179","0.0-4.0-0.29","","img/purple.png","32","trial","32","true","0.8,0.2","1:go_a","",""
"null","","html-keyboard-response","127","526181","0.0-4.0-1.29","","<img src=""img/purple-r.png"" border=""10"">","null","trial","32","","0.8,0.2","1:go_a","1",""
"null","","html-keyboard-response","128","527191","0.0-4.0-2.29","","<div style=""font-size:60px;"">+</div>","null","","","","","","",""
"476.81500017642975","","image-keyboard-response","129","527669","0.0-4.0-0.30","","img/purple.png","32","trial","32","true","0.8,0.2","1:go_a","",""
"null","","html-keyboard-response","130","528671","0.0-4.0-1.30","","<img src=""img/purple-r.png"" border=""10"">","null","trial","32","","0.8,0.2","1:go_a","1",""
"null","","html-keyboard-response","131","529673","0.0-4.0-2.30","","<div style=""font-size:60px;"">+</div>","null","","","","","","",""
"null","","image-keyboard-response","132","531174","0.0-4.0-0.31","","img/orange.png","null","trial","null","true","0.2,0.8","2:nogo_b","",""
"null","","html-keyboard-response","133","532176","0.0-4.0-1.31","","<img src=""img/orange-r.png"">","null","trial","null","","0.2,0.8","2:nogo_b","1",""
"null","","html-keyboard-response","134","533177","0.0-4.0-2.31","","<div style=""font-size:60px;"">+</div>","null","","","","","","",""
"null","","image-keyboard-response","135","534679","0.0-4.0-0.32","","img/orange.png","null","trial","null","true","0.2,0.8","2:nogo_b","",""
"null","","html-keyboard-response","136","535681","0.0-4.0-1.32","","<img src=""img/orange-r.png"">","null","trial","null","","0.2,0.8","2:nogo_b","1",""
"null","","html-keyboard-response","137","536681","0.0-4.0-2.32","","<div style=""font-size:60px;"">+</div>","null","","","","","","",""
"325.93000028282404","","image-keyboard-response","138","537008","0.0-4.0-0.33","","img/purple.png","32","trial","32","true","0.8,0.2","1:go_a","",""
"null","","html-keyboard-response","139","538010","0.0-4.0-1.33","","<img src=""img/purple-n.png"" border=""10"">","null","trial","32","","0.8,0.2","1:go_a","0",""
"null","","html-keyboard-response","140","539010","0.0-4.0-2.33","","<div style=""font-size:60px;"">+</div>","null","","","","","","",""
"null","","image-keyboard-response","141","540511","0.0-4.0-0.34","","img/purple.png","null","trial","32","false","0.8,0.2","1:go_a","",""
"null","","html-keyboard-response","142","541513","0.0-4.0-1.34","","<img src=""img/purple-n.png"">","null","trial","32","","0.8,0.2","1:go_a","0",""
"null","","html-keyboard-response","143","542514","0.0-4.0-2.34","","<div style=""font-size:60px;"">+</div>","null","","","","","","",""
"null","","image-keyboard-response","144","544015","0.0-4.0-0.35","","img/orange.png","null","trial","null","true","0.2,0.8","2:nogo_b","",""
"null","","html-keyboard-response","145","545017","0.0-4.0-1.35","","<img src=""img/orange-n.png"">","null","trial","null","","0.2,0.8","2:nogo_b","0",""
"null","","html-keyboard-response","146","546018","0.0-4.0-2.35","","<div style=""font-size:60px;"">+</div>","null","","","","","","",""
"286.18500009179115","","image-keyboard-response","147","546305","0.0-4.0-0.36","","img/purple.png","32","trial","32","true","0.8,0.2","1:go_a","",""
"null","","html-keyboard-response","148","547307","0.0-4.0-1.36","","<img src=""img/purple-r.png"" border=""10"">","null","trial","32","","0.8,0.2","1:go_a","1",""
"null","","html-keyboard-response","149","548309","0.0-4.0-2.36","","<div style=""font-size:60px;"">+</div>","null","","","","","","",""
"390.3999999165535","","image-keyboard-response","150","548700","0.0-4.0-0.37","","img/orange.png","32","trial","null","false","0.2,0.8","2:nogo_b","",""
"null","","html-keyboard-response","151","549701","0.0-4.0-1.37","","<img src=""img/orange-n.png"" border=""10"">","null","trial","null","","0.2,0.8","2:nogo_b","0",""
"null","","html-keyboard-response","152","550702","0.0-4.0-2.37","","<div style=""font-size:60px;"">+</div>","null","","","","","","",""
"388.18000070750713","","image-keyboard-response","153","551091","0.0-4.0-0.38","","img/orange.png","32","trial","null","false","0.2,0.8","2:nogo_b","",""
"null","","html-keyboard-response","154","552093","0.0-4.0-1.38","","<img src=""img/orange-n.png"" border=""10"">","null","trial","null","","0.2,0.8","2:nogo_b","0",""
"null","","html-keyboard-response","155","553094","0.0-4.0-2.38","","<div style=""font-size:60px;"">+</div>","null","","","","","","",""
"484.3500005081296","","image-keyboard-response","156","553579","0.0-4.0-0.39","","img/purple.png","32","trial","32","true","0.8,0.2","1:go_a","",""
"null","","html-keyboard-response","157","554582","0.0-4.0-1.39","","<img src=""img/purple-r.png"" border=""10"">","null","trial","32","","0.8,0.2","1:go_a","1",""
"null","","html-keyboard-response","158","555583","0.0-4.0-2.39","","<div style=""font-size:60px;"">+</div>","null","","","","","","",""
"327.9749993234873","","image-keyboard-response","159","555911","0.0-4.0-0.40","","img/purple.png","32","trial","32","true","0.8,0.2","1:go_a","",""
"null","","html-keyboard-response","160","556913","0.0-4.0-1.40","","<img src=""img/purple-r.png"" border=""10"">","null","trial","32","","0.8,0.2","1:go_a","1",""
"null","","html-keyboard-response","161","557914","0.0-4.0-2.40","","<div style=""font-size:60px;"">+</div>","null","","","","","","",""
"null","","image-keyboard-response","162","559414","0.0-4.0-0.41","","img/orange.png","null","trial","null","true","0.2,0.8","2:nogo_b","",""
"null","","html-keyboard-response","163","560416","0.0-4.0-1.41","","<img src=""img/orange-r.png"">","null","trial","null","","0.2,0.8","2:nogo_b","1",""
"null","","html-keyboard-response","164","561417","0.0-4.0-2.41","","<div style=""font-size:60px;"">+</div>","null","","","","","","",""
"371.4550007134676","","image-keyboard-response","165","561789","0.0-4.0-0.42","","img/orange.png","32","trial","null","false","0.2,0.8","2:nogo_b","",""
"null","","html-keyboard-response","166","562792","0.0-4.0-1.42","","<img src=""img/orange-n.png"" border=""10"">","null","trial","null","","0.2,0.8","2:nogo_b","0",""
"null","","html-keyboard-response","167","563793","0.0-4.0-2.42","","<div style=""font-size:60px;"">+</div>","null","","","","","","",""
"719.4499997422099","","image-keyboard-response","168","564513","0.0-4.0-0.43","","img/purple.png","32","trial","32","true","0.8,0.2","1:go_a","",""
"null","","html-keyboard-response","169","565515","0.0-4.0-1.43","","<img src=""img/purple-r.png"" border=""10"">","null","trial","32","","0.8,0.2","1:go_a","1",""
"null","","html-keyboard-response","170","566517","0.0-4.0-2.43","","<div style=""font-size:60px;"">+</div>","null","","","","","","",""
"null","","image-keyboard-response","171","568018","0.0-4.0-0.44","","img/orange.png","null","trial","null","true","0.2,0.8","2:nogo_b","",""
"null","","html-keyboard-response","172","569020","0.0-4.0-1.44","","<img src=""img/orange-r.png"">","null","trial","null","","0.2,0.8","2:nogo_b","1",""
"null","","html-keyboard-response","173","570020","0.0-4.0-2.44","","<div style=""font-size:60px;"">+</div>","null","","","","","","",""
"318.12499929219484","","image-keyboard-response","174","570339","0.0-4.0-0.45","","img/purple.png","32","trial","32","true","0.8,0.2","1:go_a","",""
"null","","html-keyboard-response","175","571341","0.0-4.0-1.45","","<img src=""img/purple-r.png"" border=""10"">","null","trial","32","","0.8,0.2","1:go_a","1",""
"null","","html-keyboard-response","176","572342","0.0-4.0-2.45","","<div style=""font-size:60px;"">+</div>","null","","","","","","",""
"null","","image-keyboard-response","177","573844","0.0-4.0-0.46","","img/orange.png","null","trial","null","true","0.2,0.8","2:nogo_b","",""
"null","","html-keyboard-response","178","574847","0.0-4.0-1.46","","<img src=""img/orange-r.png"">","null","trial","null","","0.2,0.8","2:nogo_b","1",""
"null","","html-keyboard-response","179","575848","0.0-4.0-2.46","","<div style=""font-size:60px;"">+</div>","null","","","","","","",""
"361.0149994492531","","image-keyboard-response","180","576210","0.0-4.0-0.47","","img/purple.png","32","trial","32","true","0.8,0.2","1:go_a","",""
"null","","html-keyboard-response","181","577212","0.0-4.0-1.47","","<img src=""img/purple-r.png"" border=""10"">","null","trial","32","","0.8,0.2","1:go_a","1",""
"null","","html-keyboard-response","182","578214","0.0-4.0-2.47","","<div style=""font-size:60px;"">+</div>","null","","","","","","",""
"null","","image-keyboard-response","183","579716","0.0-4.0-0.48","","img/orange.png","null","trial","null","true","0.2,0.8","2:nogo_b","",""
"null","","html-keyboard-response","184","580718","0.0-4.0-1.48","","<img src=""img/orange-r.png"">","null","trial","null","","0.2,0.8","2:nogo_b","1",""
"null","","html-keyboard-response","185","581719","0.0-4.0-2.48","","<div style=""font-size:60px;"">+</div>","null","","","","","","",""
"301.57999973744154","","image-keyboard-response","186","582021","0.0-4.0-0.49","","img/purple.png","32","trial","32","true","0.8,0.2","1:go_a","",""
"null","","html-keyboard-response","187","583023","0.0-4.0-1.49","","<img src=""img/purple-n.png"" border=""10"">","null","trial","32","","0.8,0.2","1:go_a","0",""
"null","","html-keyboard-response","188","584024","0.0-4.0-2.49","","<div style=""font-size:60px;"">+</div>","null","","","","","","",""
"null","","image-keyboard-response","189","585526","0.0-4.0-0.50","","img/orange.png","null","trial","null","true","0.2,0.8","2:nogo_b","",""
"null","","html-keyboard-response","190","586529","0.0-4.0-1.50","","<img src=""img/orange-n.png"">","null","trial","null","","0.2,0.8","2:nogo_b","0",""
"null","","html-keyboard-response","191","587530","0.0-4.0-2.50","","<div style=""font-size:60px;"">+</div>","null","","","","","","",""
"730.4999995976686","","image-keyboard-response","192","588261","0.0-4.0-0.51","","img/purple.png","32","trial","32","true","0.8,0.2","1:go_a","",""
"null","","html-keyboard-response","193","589263","0.0-4.0-1.51","","<img src=""img/purple-r.png"" border=""10"">","null","trial","32","","0.8,0.2","1:go_a","1",""
"null","","html-keyboard-response","194","590265","0.0-4.0-2.51","","<div style=""font-size:60px;"">+</div>","null","","","","","","",""
"859.3099992722273","","image-keyboard-response","195","591125","0.0-4.0-0.52","","img/orange.png","32","trial","null","false","0.2,0.8","2:nogo_b","",""
"null","","html-keyboard-response","196","592126","0.0-4.0-1.52","","<img src=""img/orange-n.png"" border=""10"">","null","trial","null","","0.2,0.8","2:nogo_b","0",""
"null","","html-keyboard-response","197","593127","0.0-4.0-2.52","","<div style=""font-size:60px;"">+</div>","null","","","","","","",""
"503.4299995750189","","image-keyboard-response","198","593631","0.0-4.0-0.53","","img/purple.png","32","trial","32","true","0.8,0.2","1:go_a","",""
"null","","html-keyboard-response","199","594633","0.0-4.0-1.53","","<img src=""img/purple-n.png"" border=""10"">","null","trial","32","","0.8,0.2","1:go_a","0",""
"null","","html-keyboard-response","200","595635","0.0-4.0-2.53","","<div style=""font-size:60px;"">+</div>","null","","","","","","",""
"771.9250004738569","","image-keyboard-response","201","596407","0.0-4.0-0.54","","img/purple.png","32","trial","32","true","0.8,0.2","1:go_a","",""
"null","","html-keyboard-response","202","597409","0.0-4.0-1.54","","<img src=""img/purple-n.png"" border=""10"">","null","trial","32","","0.8,0.2","1:go_a","0",""
"null","","html-keyboard-response","203","598410","0.0-4.0-2.54","","<div style=""font-size:60px;"">+</div>","null","","","","","","",""
"null","","image-keyboard-response","204","599912","0.0-4.0-0.55","","img/orange.png","null","trial","null","true","0.2,0.8","2:nogo_b","",""
"null","","html-keyboard-response","205","600915","0.0-4.0-1.55","","<img src=""img/orange-r.png"">","null","trial","null","","0.2,0.8","2:nogo_b","1",""
"null","","html-keyboard-response","206","601915","0.0-4.0-2.55","","<div style=""font-size:60px;"">+</div>","null","","","","","","",""
"471.5700000524521","","image-keyboard-response","207","602387","0.0-4.0-0.56","","img/purple.png","32","trial","32","true","0.8,0.2","1:go_a","",""
"null","","html-keyboard-response","208","603390","0.0-4.0-1.56","","<img src=""img/purple-r.png"" border=""10"">","null","trial","32","","0.8,0.2","1:go_a","1",""
"null","","html-keyboard-response","209","604393","0.0-4.0-2.56","","<div style=""font-size:60px;"">+</div>","null","","","","","","",""
"1257.7250003814697","","image-keyboard-response","210","605651","0.0-4.0-0.57","","img/orange.png","32","trial","null","false","0.2,0.8","2:nogo_b","",""
"null","","html-keyboard-response","211","606653","0.0-4.0-1.57","","<img src=""img/orange-n.png"" border=""10"">","null","trial","null","","0.2,0.8","2:nogo_b","0",""
"null","","html-keyboard-response","212","607654","0.0-4.0-2.57","","<div style=""font-size:60px;"">+</div>","null","","","","","","",""
"1409.514999948442","","image-keyboard-response","213","609065","0.0-4.0-0.58","","img/orange.png","32","trial","null","false","0.2,0.8","2:nogo_b","",""
"null","","html-keyboard-response","214","610066","0.0-4.0-1.58","","<img src=""img/orange-n.png"" border=""10"">","null","trial","null","","0.2,0.8","2:nogo_b","0",""
"null","","html-keyboard-response","215","611067","0.0-4.0-2.58","","<div style=""font-size:60px;"">+</div>","null","","","","","","",""
"620.8700006827712","","image-keyboard-response","216","611689","0.0-4.0-0.59","","img/purple.png","32","trial","32","true","0.8,0.2","1:go_a","",""
"null","","html-keyboard-response","217","612691","0.0-4.0-1.59","","<img src=""img/purple-n.png"" border=""10"">","null","trial","32","","0.8,0.2","1:go_a","0",""
"null","","html-keyboard-response","218","613692","0.0-4.0-2.59","","<div style=""font-size:60px;"">+</div>","null","","","","","","",""
"44411.7550002411","","instructions","219","658104","0.0-5.0","[{""page_index"":0,""viewing_time"":44411.574999801815}]","","","","","","","","",""
"869.7650004178286","","image-keyboard-response","220","658974","0.0-6.0-0.0","","img/red.png","32","trial","32","true","0.6,0.4","1:go_a","",""
"null","","html-keyboard-response","221","659976","0.0-6.0-1.0","","<img src=""img/red-r.png"" border=""10"">","null","trial","32","","0.6,0.4","1:go_a","1",""
"null","","html-keyboard-response","222","660977","0.0-6.0-2.0","","<div style=""font-size:60px;"">+</div>","null","","","","","","",""
"949.299999512732","","image-keyboard-response","223","661927","0.0-6.0-0.1","","img/blue.png","32","trial","null","false","0.4,0.6","4:nogo_d","",""
"null","","html-keyboard-response","224","662930","0.0-6.0-1.1","","<img src=""img/blue-r.png"" border=""10"">","null","trial","null","","0.4,0.6","4:nogo_d","1",""
"null","","html-keyboard-response","225","663932","0.0-6.0-2.1","","<div style=""font-size:60px;"">+</div>","null","","","","","","",""
"null","","image-keyboard-response","226","665434","0.0-6.0-0.2","","img/purple.png","null","trial","32","false","0.6,0.4","3:go_c","",""
"null","","html-keyboard-response","227","666437","0.0-6.0-1.2","","<img src=""img/purple-n.png"">","null","trial","32","","0.6,0.4","3:go_c","0",""
"null","","html-keyboard-response","228","667437","0.0-6.0-2.2","","<div style=""font-size:60px;"">+</div>","null","","","","","","",""
"1020.7299999892712","","image-keyboard-response","229","668459","0.0-6.0-0.3","","img/green.png","32","trial","null","false","0.4,0.6","2:nogo_b","",""
"null","","html-keyboard-response","230","669460","0.0-6.0-1.3","","<img src=""img/green-r.png"" border=""10"">","null","trial","null","","0.4,0.6","2:nogo_b","1",""
"null","","html-keyboard-response","231","670461","0.0-6.0-2.3","","<div style=""font-size:60px;"">+</div>","null","","","","","","",""
"585.0250003859401","","image-keyboard-response","232","671047","0.0-6.0-0.4","","img/blue.png","32","trial","null","false","0.4,0.6","4:nogo_d","",""
"null","","html-keyboard-response","233","672048","0.0-6.0-1.4","","<img src=""img/blue-n.png"" border=""10"">","null","trial","null","","0.4,0.6","4:nogo_d","0",""
"null","","html-keyboard-response","234","673048","0.0-6.0-2.4","","<div style=""font-size:60px;"">+</div>","null","","","","","","",""
"625.7800003513694","","image-keyboard-response","235","673674","0.0-6.0-0.5","","img/red.png","32","trial","32","true","0.6,0.4","1:go_a","",""
"null","","html-keyboard-response","236","674676","0.0-6.0-1.5","","<img src=""img/red-n.png"" border=""10"">","null","trial","32","","0.6,0.4","1:go_a","0",""
"null","","html-keyboard-response","237","675677","0.0-6.0-2.5","","<div style=""font-size:60px;"">+</div>","null","","","","","","",""
"1208.9449996128678","","image-keyboard-response","238","676887","0.0-6.0-0.6","","img/purple.png","32","trial","32","true","0.6,0.4","3:go_c","",""
"null","","html-keyboard-response","239","677888","0.0-6.0-1.6","","<img src=""img/purple-r.png"" border=""10"">","null","trial","32","","0.6,0.4","3:go_c","1",""
"null","","html-keyboard-response","240","678889","0.0-6.0-2.6","","<div style=""font-size:60px;"">+</div>","null","","","","","","",""
"1105.1150001585484","","image-keyboard-response","241","679995","0.0-6.0-0.7","","img/green.png","32","trial","null","false","0.4,0.6","2:nogo_b","",""
"null","","html-keyboard-response","242","680996","0.0-6.0-1.7","","<img src=""img/green-n.png"" border=""10"">","null","trial","null","","0.4,0.6","2:nogo_b","0",""
"null","","html-keyboard-response","243","681998","0.0-6.0-2.7","","<div style=""font-size:60px;"">+</div>","null","","","","","","",""
"670.074999332428","","image-keyboard-response","244","682669","0.0-6.0-0.8","","img/red.png","32","trial","32","true","0.6,0.4","1:go_a","",""
"null","","html-keyboard-response","245","683670","0.0-6.0-1.8","","<img src=""img/red-r.png"" border=""10"">","null","trial","32","","0.6,0.4","1:go_a","1",""
"null","","html-keyboard-response","246","684671","0.0-6.0-2.8","","<div style=""font-size:60px;"">+</div>","null","","","","","","",""
"754.7550005838275","","image-keyboard-response","247","685426","0.0-6.0-0.9","","img/green.png","32","trial","null","false","0.4,0.6","2:nogo_b","",""
"null","","html-keyboard-response","248","686428","0.0-6.0-1.9","","<img src=""img/green-n.png"" border=""10"">","null","trial","null","","0.4,0.6","2:nogo_b","0",""
"null","","html-keyboard-response","249","687429","0.0-6.0-2.9","","<div style=""font-size:60px;"">+</div>","null","","","","","","",""
"null","","image-keyboard-response","250","688931","0.0-6.0-0.10","","img/blue.png","null","trial","null","true","0.4,0.6","4:nogo_d","",""
"null","","html-keyboard-response","251","689932","0.0-6.0-1.10","","<img src=""img/blue-n.png"">","null","trial","null","","0.4,0.6","4:nogo_d","0",""
"null","","html-keyboard-response","252","690933","0.0-6.0-2.10","","<div style=""font-size:60px;"">+</div>","null","","","","","","",""
"null","","image-keyboard-response","253","692434","0.0-6.0-0.11","","img/purple.png","null","trial","32","false","0.6,0.4","3:go_c","",""
"null","","html-keyboard-response","254","693437","0.0-6.0-1.11","","<img src=""img/purple-n.png"">","null","trial","32","","0.6,0.4","3:go_c","0",""
"null","","html-keyboard-response","255","694439","0.0-6.0-2.11","","<div style=""font-size:60px;"">+</div>","null","","","","","","",""
"null","","image-keyboard-response","256","695939","0.0-6.0-0.12","","img/blue.png","null","trial","null","true","0.4,0.6","4:nogo_d","",""
"null","","html-keyboard-response","257","696941","0.0-6.0-1.12","","<img src=""img/blue-n.png"">","null","trial","null","","0.4,0.6","4:nogo_d","0",""
"null","","html-keyboard-response","258","697943","0.0-6.0-2.12","","<div style=""font-size:60px;"">+</div>","null","","","","","","",""
"423.2449997216463","","image-keyboard-response","259","698367","0.0-6.0-0.13","","img/purple.png","32","trial","32","true","0.6,0.4","3:go_c","",""
"null","","html-keyboard-response","260","699369","0.0-6.0-1.13","","<img src=""img/purple-n.png"" border=""10"">","null","trial","32","","0.6,0.4","3:go_c","0",""
"null","","html-keyboard-response","261","700370","0.0-6.0-2.13","","<div style=""font-size:60px;"">+</div>","null","","","","","","",""
"827.8649998828769","","image-keyboard-response","262","701198","0.0-6.0-0.14","","img/green.png","32","trial","null","false","0.4,0.6","2:nogo_b","",""
"null","","html-keyboard-response","263","702200","0.0-6.0-1.14","","<img src=""img/green-r.png"" border=""10"">","null","trial","null","","0.4,0.6","2:nogo_b","1",""
"null","","html-keyboard-response","264","703202","0.0-6.0-2.14","","<div style=""font-size:60px;"">+</div>","null","","","","","","",""
"954.475000500679","","image-keyboard-response","265","704157","0.0-6.0-0.15","","img/red.png","32","trial","32","true","0.6,0.4","1:go_a","",""
"null","","html-keyboard-response","266","705158","0.0-6.0-1.15","","<img src=""img/red-r.png"" border=""10"">","null","trial","32","","0.6,0.4","1:go_a","1",""
"null","","html-keyboard-response","267","706160","0.0-6.0-2.15","","<div style=""font-size:60px;"">+</div>","null","","","","","","",""
"null","","image-keyboard-response","268","707661","0.0-6.0-0.16","","img/purple.png","null","trial","32","false","0.6,0.4","3:go_c","",""
"null","","html-keyboard-response","269","708662","0.0-6.0-1.16","","<img src=""img/purple-r.png"">","null","trial","32","","0.6,0.4","3:go_c","1",""
"null","","html-keyboard-response","270","709662","0.0-6.0-2.16","","<div style=""font-size:60px;"">+</div>","null","","","","","","",""
"657.6749999076128","","image-keyboard-response","271","710321","0.0-6.0-0.17","","img/green.png","32","trial","null","false","0.4,0.6","2:nogo_b","",""
"null","","html-keyboard-response","272","711323","0.0-6.0-1.17","","<img src=""img/green-n.png"" border=""10"">","null","trial","null","","0.4,0.6","2:nogo_b","0",""
"null","","html-keyboard-response","273","712324","0.0-6.0-2.17","","<div style=""font-size:60px;"">+</div>","null","","","","","","",""
"null","","image-keyboard-response","274","713826","0.0-6.0-0.18","","img/blue.png","null","trial","null","true","0.4,0.6","4:nogo_d","",""
"null","","html-keyboard-response","275","714828","0.0-6.0-1.18","","<img src=""img/blue-n.png"">","null","trial","null","","0.4,0.6","4:nogo_d","0",""
"null","","html-keyboard-response","276","715829","0.0-6.0-2.18","","<div style=""font-size:60px;"">+</div>","null","","","","","","",""
"641.2200005725026","","image-keyboard-response","277","716470","0.0-6.0-0.19","","img/red.png","32","trial","32","true","0.6,0.4","1:go_a","",""
"null","","html-keyboard-response","278","717472","0.0-6.0-1.19","","<img src=""img/red-r.png"" border=""10"">","null","trial","32","","0.6,0.4","1:go_a","1",""
"null","","html-keyboard-response","279","718472","0.0-6.0-2.19","","<div style=""font-size:60px;"">+</div>","null","","","","","","",""
"1195.9600001573563","","image-keyboard-response","280","719669","0.0-6.0-0.20","","img/purple.png","32","trial","32","true","0.6,0.4","3:go_c","",""
"null","","html-keyboard-response","281","720670","0.0-6.0-1.20","","<img src=""img/purple-r.png"" border=""10"">","null","trial","32","","0.6,0.4","3:go_c","1",""
"null","","html-keyboard-response","282","721672","0.0-6.0-2.20","","<div style=""font-size:60px;"">+</div>","null","","","","","","",""
"967.3350006341934","","image-keyboard-response","283","722641","0.0-6.0-0.21","","img/green.png","32","trial","null","false","0.4,0.6","2:nogo_b","",""
"null","","html-keyboard-response","284","723642","0.0-6.0-1.21","","<img src=""img/green-r.png"" border=""10"">","null","trial","null","","0.4,0.6","2:nogo_b","1",""
"null","","html-keyboard-response","285","724644","0.0-6.0-2.21","","<div style=""font-size:60px;"">+</div>","null","","","","","","",""
"663.2099999114871","","image-keyboard-response","286","725307","0.0-6.0-0.22","","img/red.png","32","trial","32","true","0.6,0.4","1:go_a","",""
"null","","html-keyboard-response","287","726308","0.0-6.0-1.22","","<img src=""img/red-n.png"" border=""10"">","null","trial","32","","0.6,0.4","1:go_a","0",""
"null","","html-keyboard-response","288","727309","0.0-6.0-2.22","","<div style=""font-size:60px;"">+</div>","null","","","","","","",""
"null","","image-keyboard-response","289","728811","0.0-6.0-0.23","","img/blue.png","null","trial","null","true","0.4,0.6","4:nogo_d","",""
"null","","html-keyboard-response","290","729814","0.0-6.0-1.23","","<img src=""img/blue-r.png"">","null","trial","null","","0.4,0.6","4:nogo_d","1",""
"null","","html-keyboard-response","291","730815","0.0-6.0-2.23","","<div style=""font-size:60px;"">+</div>","null","","","","","","",""
"904.5649999752641","","image-keyboard-response","292","731720","0.0-6.0-0.24","","img/green.png","32","trial","null","false","0.4,0.6","2:nogo_b","",""
"null","","html-keyboard-response","293","732722","0.0-6.0-1.24","","<img src=""img/green-n.png"" border=""10"">","null","trial","null","","0.4,0.6","2:nogo_b","0",""
"null","","html-keyboard-response","294","733724","0.0-6.0-2.24","","<div style=""font-size:60px;"">+</div>","null","","","","","","",""
"456.74500055611134","","image-keyboard-response","295","734181","0.0-6.0-0.25","","img/red.png","32","trial","32","true","0.6,0.4","1:go_a","",""
"null","","html-keyboard-response","296","735182","0.0-6.0-1.25","","<img src=""img/red-r.png"" border=""10"">","null","trial","32","","0.6,0.4","1:go_a","1",""
"null","","html-keyboard-response","297","736183","0.0-6.0-2.25","","<div style=""font-size:60px;"">+</div>","null","","","","","","",""
"null","","image-keyboard-response","298","737686","0.0-6.0-0.26","","img/purple.png","null","trial","32","false","0.6,0.4","3:go_c","",""
"null","","html-keyboard-response","299","738688","0.0-6.0-1.26","","<img src=""img/purple-n.png"">","null","trial","32","","0.6,0.4","3:go_c","0",""
"null","","html-keyboard-response","300","739690","0.0-6.0-2.26","","<div style=""font-size:60px;"">+</div>","null","","","","","","",""
"null","","image-keyboard-response","301","741191","0.0-6.0-0.27","","img/blue.png","null","trial","null","true","0.4,0.6","4:nogo_d","",""
"null","","html-keyboard-response","302","742193","0.0-6.0-1.27","","<img src=""img/blue-n.png"">","null","trial","null","","0.4,0.6","4:nogo_d","0",""
"null","","html-keyboard-response","303","743194","0.0-6.0-2.27","","<div style=""font-size:60px;"">+</div>","null","","","","","","",""
"1012.9100000485778","","image-keyboard-response","304","744207","0.0-6.0-0.28","","img/green.png","32","trial","null","false","0.4,0.6","2:nogo_b","",""
"null","","html-keyboard-response","305","745208","0.0-6.0-1.28","","<img src=""img/green-r.png"" border=""10"">","null","trial","null","","0.4,0.6","2:nogo_b","1",""
"null","","html-keyboard-response","306","746210","0.0-6.0-2.28","","<div style=""font-size:60px;"">+</div>","null","","","","","","",""
"null","","image-keyboard-response","307","747712","0.0-6.0-0.29","","img/purple.png","null","trial","32","false","0.6,0.4","3:go_c","",""
"null","","html-keyboard-response","308","748714","0.0-6.0-1.29","","<img src=""img/purple-n.png"">","null","trial","32","","0.6,0.4","3:go_c","0",""
"null","","html-keyboard-response","309","749715","0.0-6.0-2.29","","<div style=""font-size:60px;"">+</div>","null","","","","","","",""
"null","","image-keyboard-response","310","751217","0.0-6.0-0.30","","img/blue.png","null","trial","null","true","0.4,0.6","4:nogo_d","",""
"null","","html-keyboard-response","311","752218","0.0-6.0-1.30","","<img src=""img/blue-r.png"">","null","trial","null","","0.4,0.6","4:nogo_d","1",""
"null","","html-keyboard-response","312","753219","0.0-6.0-2.30","","<div style=""font-size:60px;"">+</div>","null","","","","","","",""
"420.15499994158745","","image-keyboard-response","313","753639","0.0-6.0-0.31","","img/red.png","32","trial","32","true","0.6,0.4","1:go_a","",""
"null","","html-keyboard-response","314","754641","0.0-6.0-1.31","","<img src=""img/red-n.png"" border=""10"">","null","trial","32","","0.6,0.4","1:go_a","0",""
"null","","html-keyboard-response","315","755643","0.0-6.0-2.31","","<div style=""font-size:60px;"">+</div>","null","","","","","","",""
"1189.9049999192357","","image-keyboard-response","316","756833","0.0-6.0-0.32","","img/green.png","32","trial","null","false","0.4,0.6","2:nogo_b","",""
"null","","html-keyboard-response","317","757835","0.0-6.0-1.32","","<img src=""img/green-r.png"" border=""10"">","null","trial","null","","0.4,0.6","2:nogo_b","1",""
"null","","html-keyboard-response","318","758836","0.0-6.0-2.32","","<div style=""font-size:60px;"">+</div>","null","","","","","","",""
"458.08999985456467","","image-keyboard-response","319","759295","0.0-6.0-0.33","","img/red.png","32","trial","32","true","0.6,0.4","1:go_a","",""
"null","","html-keyboard-response","320","760297","0.0-6.0-1.33","","<img src=""img/red-r.png"" border=""10"">","null","trial","32","","0.6,0.4","1:go_a","1",""
"null","","html-keyboard-response","321","761298","0.0-6.0-2.33","","<div style=""font-size:60px;"">+</div>","null","","","","","","",""
"null","","image-keyboard-response","322","762799","0.0-6.0-0.34","","img/purple.png","null","trial","32","false","0.6,0.4","3:go_c","",""
"null","","html-keyboard-response","323","763801","0.0-6.0-1.34","","<img src=""img/purple-n.png"">","null","trial","32","","0.6,0.4","3:go_c","0",""
"null","","html-keyboard-response","324","764802","0.0-6.0-2.34","","<div style=""font-size:60px;"">+</div>","null","","","","","","",""
"null","","image-keyboard-response","325","766302","0.0-6.0-0.35","","img/blue.png","null","trial","null","true","0.4,0.6","4:nogo_d","",""
"null","","html-keyboard-response","326","767303","0.0-6.0-1.35","","<img src=""img/blue-n.png"">","null","trial","null","","0.4,0.6","4:nogo_d","0",""
"null","","html-keyboard-response","327","768305","0.0-6.0-2.35","","<div style=""font-size:60px;"">+</div>","null","","","","","","",""
"749.2599999532104","","image-keyboard-response","328","769056","0.0-6.0-0.36","","img/green.png","32","trial","null","false","0.4,0.6","2:nogo_b","",""
"null","","html-keyboard-response","329","770057","0.0-6.0-1.36","","<img src=""img/green-n.png"" border=""10"">","null","trial","null","","0.4,0.6","2:nogo_b","0",""
"null","","html-keyboard-response","330","771059","0.0-6.0-2.36","","<div style=""font-size:60px;"">+</div>","null","","","","","","",""
"null","","image-keyboard-response","331","772561","0.0-6.0-0.37","","img/blue.png","null","trial","null","true","0.4,0.6","4:nogo_d","",""
"null","","html-keyboard-response","332","773562","0.0-6.0-1.37","","<img src=""img/blue-n.png"">","null","trial","null","","0.4,0.6","4:nogo_d","0",""
"null","","html-keyboard-response","333","774563","0.0-6.0-2.37","","<div style=""font-size:60px;"">+</div>","null","","","","","","",""
"419.94000039994717","","image-keyboard-response","334","774984","0.0-6.0-0.38","","img/red.png","32","trial","32","true","0.6,0.4","1:go_a","",""
"null","","html-keyboard-response","335","775985","0.0-6.0-1.38","","<img src=""img/red-r.png"" border=""10"">","null","trial","32","","0.6,0.4","1:go_a","1",""
"null","","html-keyboard-response","336","776987","0.0-6.0-2.38","","<div style=""font-size:60px;"">+</div>","null","","","","","","",""
"null","","image-keyboard-response","337","778491","0.0-6.0-0.39","","img/purple.png","null","trial","32","false","0.6,0.4","3:go_c","",""
"null","","html-keyboard-response","338","779492","0.0-6.0-1.39","","<img src=""img/purple-r.png"">","null","trial","32","","0.6,0.4","3:go_c","1",""
"null","","html-keyboard-response","339","780494","0.0-6.0-2.39","","<div style=""font-size:60px;"">+</div>","null","","","","","","",""
"null","","image-keyboard-response","340","781996","0.0-6.0-0.40","","img/purple.png","null","trial","32","false","0.6,0.4","3:go_c","",""
"null","","html-keyboard-response","341","782997","0.0-6.0-1.40","","<img src=""img/purple-n.png"">","null","trial","32","","0.6,0.4","3:go_c","0",""
"null","","html-keyboard-response","342","783998","0.0-6.0-2.40","","<div style=""font-size:60px;"">+</div>","null","","","","","","",""
"787.7850001677871","","image-keyboard-response","343","784786","0.0-6.0-0.41","","img/green.png","32","trial","null","false","0.4,0.6","2:nogo_b","",""
"null","","html-keyboard-response","344","785788","0.0-6.0-1.41","","<img src=""img/green-n.png"" border=""10"">","null","trial","null","","0.4,0.6","2:nogo_b","0",""
"null","","html-keyboard-response","345","786789","0.0-6.0-2.41","","<div style=""font-size:60px;"">+</div>","null","","","","","","",""
"null","","image-keyboard-response","346","788290","0.0-6.0-0.42","","img/blue.png","null","trial","null","true","0.4,0.6","4:nogo_d","",""
"null","","html-keyboard-response","347","789293","0.0-6.0-1.42","","<img src=""img/blue-n.png"">","null","trial","null","","0.4,0.6","4:nogo_d","0",""
"null","","html-keyboard-response","348","790294","0.0-6.0-2.42","","<div style=""font-size:60px;"">+</div>","null","","","","","","",""
"477.08999924361706","","image-keyboard-response","349","790771","0.0-6.0-0.43","","img/red.png","32","trial","32","true","0.6,0.4","1:go_a","",""
"null","","html-keyboard-response","350","791774","0.0-6.0-1.43","","<img src=""img/red-r.png"" border=""10"">","null","trial","32","","0.6,0.4","1:go_a","1",""
"null","","html-keyboard-response","351","792775","0.0-6.0-2.43","","<div style=""font-size:60px;"">+</div>","null","","","","","","",""
"477.2199997678399","","image-keyboard-response","352","793253","0.0-6.0-0.44","","img/red.png","32","trial","32","true","0.6,0.4","1:go_a","",""
"null","","html-keyboard-response","353","794256","0.0-6.0-1.44","","<img src=""img/red-r.png"" border=""10"">","null","trial","32","","0.6,0.4","1:go_a","1",""
"null","","html-keyboard-response","354","795256","0.0-6.0-2.44","","<div style=""font-size:60px;"">+</div>","null","","","","","","",""
"1062.785000540316","","image-keyboard-response","355","796319","0.0-6.0-0.45","","img/green.png","32","trial","null","false","0.4,0.6","2:nogo_b","",""
"null","","html-keyboard-response","356","797321","0.0-6.0-1.45","","<img src=""img/green-r.png"" border=""10"">","null","trial","null","","0.4,0.6","2:nogo_b","1",""
"null","","html-keyboard-response","357","798322","0.0-6.0-2.45","","<div style=""font-size:60px;"">+</div>","null","","","","","","",""
"null","","image-keyboard-response","358","799823","0.0-6.0-0.46","","img/blue.png","null","trial","null","true","0.4,0.6","4:nogo_d","",""
"null","","html-keyboard-response","359","800825","0.0-6.0-1.46","","<img src=""img/blue-r.png"">","null","trial","null","","0.4,0.6","4:nogo_d","1",""
"null","","html-keyboard-response","360","801827","0.0-6.0-2.46","","<div style=""font-size:60px;"">+</div>","null","","","","","","",""
"824.0049993619323","","image-keyboard-response","361","802651","0.0-6.0-0.47","","img/purple.png","32","trial","32","true","0.6,0.4","3:go_c","",""
"null","","html-keyboard-response","362","803653","0.0-6.0-1.47","","<img src=""img/purple-n.png"" border=""10"">","null","trial","32","","0.6,0.4","3:go_c","0",""
"null","","html-keyboard-response","363","804654","0.0-6.0-2.47","","<div style=""font-size:60px;"">+</div>","null","","","","","","",""
"520.9750002250075","","image-keyboard-response","364","805175","0.0-6.0-0.48","","img/red.png","32","trial","32","true","0.6,0.4","1:go_a","",""
"null","","html-keyboard-response","365","806177","0.0-6.0-1.48","","<img src=""img/red-r.png"" border=""10"">","null","trial","32","","0.6,0.4","1:go_a","1",""
"null","","html-keyboard-response","366","807179","0.0-6.0-2.48","","<div style=""font-size:60px;"">+</div>","null","","","","","","",""
"null","","image-keyboard-response","367","808680","0.0-6.0-0.49","","img/purple.png","null","trial","32","false","0.6,0.4","3:go_c","",""
"null","","html-keyboard-response","368","809682","0.0-6.0-1.49","","<img src=""img/purple-r.png"">","null","trial","32","","0.6,0.4","3:go_c","1",""
"null","","html-keyboard-response","369","810684","0.0-6.0-2.49","","<div style=""font-size:60px;"">+</div>","null","","","","","","",""
"741.100000217557","","image-keyboard-response","370","811426","0.0-6.0-0.50","","img/green.png","32","trial","null","false","0.4,0.6","2:nogo_b","",""
"null","","html-keyboard-response","371","812427","0.0-6.0-1.50","","<img src=""img/green-n.png"" border=""10"">","null","trial","null","","0.4,0.6","2:nogo_b","0",""
"null","","html-keyboard-response","372","813428","0.0-6.0-2.50","","<div style=""font-size:60px;"">+</div>","null","","","","","","",""
"null","","image-keyboard-response","373","814929","0.0-6.0-0.51","","img/blue.png","null","trial","null","true","0.4,0.6","4:nogo_d","",""
"null","","html-keyboard-response","374","815930","0.0-6.0-1.51","","<img src=""img/blue-r.png"">","null","trial","null","","0.4,0.6","4:nogo_d","1",""
"null","","html-keyboard-response","375","816931","0.0-6.0-2.51","","<div style=""font-size:60px;"">+</div>","null","","","","","","",""
"451.74000039696693","","image-keyboard-response","376","817383","0.0-6.0-0.52","","img/red.png","32","trial","32","true","0.6,0.4","1:go_a","",""
"null","","html-keyboard-response","377","818385","0.0-6.0-1.52","","<img src=""img/red-r.png"" border=""10"">","null","trial","32","","0.6,0.4","1:go_a","1",""
"null","","html-keyboard-response","378","819387","0.0-6.0-2.52","","<div style=""font-size:60px;"">+</div>","null","","","","","","",""
"711.9699995964766","","image-keyboard-response","379","820100","0.0-6.0-0.53","","img/green.png","32","trial","null","false","0.4,0.6","2:nogo_b","",""
"null","","html-keyboard-response","380","821101","0.0-6.0-1.53","","<img src=""img/green-r.png"" border=""10"">","null","trial","null","","0.4,0.6","2:nogo_b","1",""
"null","","html-keyboard-response","381","822103","0.0-6.0-2.53","","<div style=""font-size:60px;"">+</div>","null","","","","","","",""
"null","","image-keyboard-response","382","823603","0.0-6.0-0.54","","img/purple.png","null","trial","32","false","0.6,0.4","3:go_c","",""
"null","","html-keyboard-response","383","824605","0.0-6.0-1.54","","<img src=""img/purple-n.png"">","null","trial","32","","0.6,0.4","3:go_c","0",""
"null","","html-keyboard-response","384","825606","0.0-6.0-2.54","","<div style=""font-size:60px;"">+</div>","null","","","","","","",""
"null","","image-keyboard-response","385","827108","0.0-6.0-0.55","","img/blue.png","null","trial","null","true","0.4,0.6","4:nogo_d","",""
"null","","html-keyboard-response","386","828109","0.0-6.0-1.55","","<img src=""img/blue-n.png"">","null","trial","null","","0.4,0.6","4:nogo_d","0",""
"null","","html-keyboard-response","387","829110","0.0-6.0-2.55","","<div style=""font-size:60px;"">+</div>","null","","","","","","",""
"null","","image-keyboard-response","388","830611","0.0-6.0-0.56","","img/purple.png","null","trial","32","false","0.6,0.4","3:go_c","",""
"null","","html-keyboard-response","389","831612","0.0-6.0-1.56","","<img src=""img/purple-n.png"">","null","trial","32","","0.6,0.4","3:go_c","0",""
"null","","html-keyboard-response","390","832614","0.0-6.0-2.56","","<div style=""font-size:60px;"">+</div>","null","","","","","","",""
"516.9900003820658","","image-keyboard-response","391","833131","0.0-6.0-0.57","","img/green.png","32","trial","null","false","0.4,0.6","2:nogo_b","",""
"null","","html-keyboard-response","392","834134","0.0-6.0-1.57","","<img src=""img/green-n.png"" border=""10"">","null","trial","null","","0.4,0.6","2:nogo_b","0",""
"null","","html-keyboard-response","393","835136","0.0-6.0-2.57","","<div style=""font-size:60px;"">+</div>","null","","","","","","",""
"null","","image-keyboard-response","394","836638","0.0-6.0-0.58","","img/blue.png","null","trial","null","true","0.4,0.6","4:nogo_d","",""
"null","","html-keyboard-response","395","837640","0.0-6.0-1.58","","<img src=""img/blue-r.png"">","null","trial","null","","0.4,0.6","4:nogo_d","1",""
"null","","html-keyboard-response","396","838641","0.0-6.0-2.58","","<div style=""font-size:60px;"">+</div>","null","","","","","","",""
"449.62000008672476","","image-keyboard-response","397","839091","0.0-6.0-0.59","","img/red.png","32","trial","32","true","0.6,0.4","1:go_a","",""
"null","","html-keyboard-response","398","840093","0.0-6.0-1.59","","<img src=""img/red-r.png"" border=""10"">","null","trial","32","","0.6,0.4","1:go_a","1",""
"null","","html-keyboard-response","399","841094","0.0-6.0-2.59","","<div style=""font-size:60px;"">+</div>","null","","","","","","",""
"null","","image-keyboard-response","400","842596","0.0-6.0-0.60","","img/purple.png","null","trial","32","false","0.6,0.4","3:go_c","",""
"null","","html-keyboard-response","401","843598","0.0-6.0-1.60","","<img src=""img/purple-n.png"">","null","trial","32","","0.6,0.4","3:go_c","0",""
"null","","html-keyboard-response","402","844599","0.0-6.0-2.60","","<div style=""font-size:60px;"">+</div>","null","","","","","","",""
"461.7400001734495","","image-keyboard-response","403","845062","0.0-6.0-0.61","","img/green.png","32","trial","null","false","0.4,0.6","2:nogo_b","",""
"null","","html-keyboard-response","404","846064","0.0-6.0-1.61","","<img src=""img/green-n.png"" border=""10"">","null","trial","null","","0.4,0.6","2:nogo_b","0",""
"null","","html-keyboard-response","405","847065","0.0-6.0-2.61","","<div style=""font-size:60px;"">+</div>","null","","","","","","",""
"null","","image-keyboard-response","406","848567","0.0-6.0-0.62","","img/blue.png","null","trial","null","true","0.4,0.6","4:nogo_d","",""
"null","","html-keyboard-response","407","849568","0.0-6.0-1.62","","<img src=""img/blue-r.png"">","null","trial","null","","0.4,0.6","4:nogo_d","1",""
"null","","html-keyboard-response","408","850569","0.0-6.0-2.62","","<div style=""font-size:60px;"">+</div>","null","","","","","","",""
"361.91500071436167","","image-keyboard-response","409","850932","0.0-6.0-0.63","","img/red.png","32","trial","32","true","0.6,0.4","1:go_a","",""
"null","","html-keyboard-response","410","851933","0.0-6.0-1.63","","<img src=""img/red-r.png"" border=""10"">","null","trial","32","","0.6,0.4","1:go_a","1",""
"null","","html-keyboard-response","411","852935","0.0-6.0-2.63","","<div style=""font-size:60px;"">+</div>","null","","","","","","",""
"591.6550001129508","","image-keyboard-response","412","853527","0.0-6.0-0.64","","img/green.png","32","trial","null","false","0.4,0.6","2:nogo_b","",""
"null","","html-keyboard-response","413","854529","0.0-6.0-1.64","","<img src=""img/green-n.png"" border=""10"">","null","trial","null","","0.4,0.6","2:nogo_b","0",""
"null","","html-keyboard-response","414","855530","0.0-6.0-2.64","","<div style=""font-size:60px;"">+</div>","null","","","","","","",""
"null","","image-keyboard-response","415","857031","0.0-6.0-0.65","","img/blue.png","null","trial","null","true","0.4,0.6","4:nogo_d","",""
"null","","html-keyboard-response","416","858032","0.0-6.0-1.65","","<img src=""img/blue-r.png"">","null","trial","null","","0.4,0.6","4:nogo_d","1",""
"null","","html-keyboard-response","417","859033","0.0-6.0-2.65","","<div style=""font-size:60px;"">+</div>","null","","","","","","",""
"372.22000025212765","","image-keyboard-response","418","859406","0.0-6.0-0.66","","img/red.png","32","trial","32","true","0.6,0.4","1:go_a","",""
"null","","html-keyboard-response","419","860408","0.0-6.0-1.66","","<img src=""img/red-r.png"" border=""10"">","null","trial","32","","0.6,0.4","1:go_a","1",""
"null","","html-keyboard-response","420","861410","0.0-6.0-2.66","","<div style=""font-size:60px;"">+</div>","null","","","","","","",""
"370.5299999564886","","image-keyboard-response","421","861781","0.0-6.0-0.67","","img/purple.png","32","trial","32","true","0.6,0.4","3:go_c","",""
"null","","html-keyboard-response","422","862783","0.0-6.0-1.67","","<img src=""img/purple-r.png"" border=""10"">","null","trial","32","","0.6,0.4","3:go_c","1",""
"null","","html-keyboard-response","423","863783","0.0-6.0-2.67","","<div style=""font-size:60px;"">+</div>","null","","","","","","",""
"453.7599999457598","","image-keyboard-response","424","864237","0.0-6.0-0.68","","img/green.png","32","trial","null","false","0.4,0.6","2:nogo_b","",""
"null","","html-keyboard-response","425","865239","0.0-6.0-1.68","","<img src=""img/green-r.png"" border=""10"">","null","trial","null","","0.4,0.6","2:nogo_b","1",""
"null","","html-keyboard-response","426","866240","0.0-6.0-2.68","","<div style=""font-size:60px;"">+</div>","null","","","","","","",""
"735.1799998432398","","image-keyboard-response","427","866976","0.0-6.0-0.69","","img/blue.png","32","trial","null","false","0.4,0.6","4:nogo_d","",""
"null","","html-keyboard-response","428","867978","0.0-6.0-1.69","","<img src=""img/blue-n.png"" border=""10"">","null","trial","null","","0.4,0.6","4:nogo_d","0",""
"null","","html-keyboard-response","429","868979","0.0-6.0-2.69","","<div style=""font-size:60px;"">+</div>","null","","","","","","",""
"null","","image-keyboard-response","430","870480","0.0-6.0-0.70","","img/purple.png","null","trial","32","false","0.6,0.4","3:go_c","",""
"null","","html-keyboard-response","431","871483","0.0-6.0-1.70","","<img src=""img/purple-r.png"">","null","trial","32","","0.6,0.4","3:go_c","1",""
"null","","html-keyboard-response","432","872484","0.0-6.0-2.70","","<div style=""font-size:60px;"">+</div>","null","","","","","","",""
"330.8899998664856","","image-keyboard-response","433","872816","0.0-6.0-0.71","","img/red.png","32","trial","32","true","0.6,0.4","1:go_a","",""
"null","","html-keyboard-response","434","873818","0.0-6.0-1.71","","<img src=""img/red-n.png"" border=""10"">","null","trial","32","","0.6,0.4","1:go_a","0",""
"null","","html-keyboard-response","435","874820","0.0-6.0-2.71","","<div style=""font-size:60px;"">+</div>","null","","","","","","",""
"505.16500044614077","","image-keyboard-response","436","875325","0.0-6.0-0.72","","img/red.png","32","trial","32","true","0.6,0.4","1:go_a","",""
"null","","html-keyboard-response","437","876327","0.0-6.0-1.72","","<img src=""img/red-n.png"" border=""10"">","null","trial","32","","0.6,0.4","1:go_a","0",""
"null","","html-keyboard-response","438","877328","0.0-6.0-2.72","","<div style=""font-size:60px;"">+</div>","null","","","","","","",""
"1044.4249995052814","","image-keyboard-response","439","878373","0.0-6.0-0.73","","img/purple.png","32","trial","32","true","0.6,0.4","3:go_c","",""
"null","","html-keyboard-response","440","879376","0.0-6.0-1.73","","<img src=""img/purple-n.png"" border=""10"">","null","trial","32","","0.6,0.4","3:go_c","0",""
"null","","html-keyboard-response","441","880379","0.0-6.0-2.73","","<div style=""font-size:60px;"">+</div>","null","","","","","","",""
"null","","image-keyboard-response","442","881881","0.0-6.0-0.74","","img/blue.png","null","trial","null","true","0.4,0.6","4:nogo_d","",""
"null","","html-keyboard-response","443","882888","0.0-6.0-1.74","","<img src=""img/blue-r.png"">","null","trial","null","","0.4,0.6","4:nogo_d","1",""
"null","","html-keyboard-response","444","883889","0.0-6.0-2.74","","<div style=""font-size:60px;"">+</div>","null","","","","","","",""
"470.3649999573827","","image-keyboard-response","445","884360","0.0-6.0-0.75","","img/green.png","32","trial","null","false","0.4,0.6","2:nogo_b","",""
"null","","html-keyboard-response","446","885362","0.0-6.0-1.75","","<img src=""img/green-r.png"" border=""10"">","null","trial","null","","0.4,0.6","2:nogo_b","1",""
"null","","html-keyboard-response","447","886364","0.0-6.0-2.75","","<div style=""font-size:60px;"">+</div>","null","","","","","","",""
"611.3599995151162","","image-keyboard-response","448","886976","0.0-6.0-0.76","","img/purple.png","32","trial","32","true","0.6,0.4","3:go_c","",""
"null","","html-keyboard-response","449","887978","0.0-6.0-1.76","","<img src=""img/purple-r.png"" border=""10"">","null","trial","32","","0.6,0.4","3:go_c","1",""
"null","","html-keyboard-response","450","888979","0.0-6.0-2.76","","<div style=""font-size:60px;"">+</div>","null","","","","","","",""
"891.1800002679229","","image-keyboard-response","451","889871","0.0-6.0-0.77","","img/green.png","32","trial","null","false","0.4,0.6","2:nogo_b","",""
"null","","html-keyboard-response","452","890877","0.0-6.0-1.77","","<img src=""img/green-n.png"" border=""10"">","null","trial","null","","0.4,0.6","2:nogo_b","0",""
"null","","html-keyboard-response","453","891878","0.0-6.0-2.77","","<div style=""font-size:60px;"">+</div>","null","","","","","","",""
"null","","image-keyboard-response","454","893380","0.0-6.0-0.78","","img/blue.png","null","trial","null","true","0.4,0.6","4:nogo_d","",""
"null","","html-keyboard-response","455","894381","0.0-6.0-1.78","","<img src=""img/blue-n.png"">","null","trial","null","","0.4,0.6","4:nogo_d","0",""
"null","","html-keyboard-response","456","895382","0.0-6.0-2.78","","<div style=""font-size:60px;"">+</div>","null","","","","","","",""
"293.37000008672476","","image-keyboard-response","457","895676","0.0-6.0-0.79","","img/red.png","32","trial","32","true","0.6,0.4","1:go_a","",""
"null","","html-keyboard-response","458","896678","0.0-6.0-1.79","","<img src=""img/red-r.png"" border=""10"">","null","trial","32","","0.6,0.4","1:go_a","1",""
"null","","html-keyboard-response","459","897679","0.0-6.0-2.79","","<div style=""font-size:60px;"">+</div>","null","","","","","","",""
"null","","image-keyboard-response","460","899181","0.0-6.0-0.80","","img/blue.png","null","trial","null","true","0.4,0.6","4:nogo_d","",""
"null","","html-keyboard-response","461","900182","0.0-6.0-1.80","","<img src=""img/blue-n.png"">","null","trial","null","","0.4,0.6","4:nogo_d","0",""
"null","","html-keyboard-response","462","901183","0.0-6.0-2.80","","<div style=""font-size:60px;"">+</div>","null","","","","","","",""
"421.60999961197376","","image-keyboard-response","463","901605","0.0-6.0-0.81","","img/purple.png","32","trial","32","true","0.6,0.4","3:go_c","",""
"null","","html-keyboard-response","464","902608","0.0-6.0-1.81","","<img src=""img/purple-n.png"" border=""10"">","null","trial","32","","0.6,0.4","3:go_c","0",""
"null","","html-keyboard-response","465","903610","0.0-6.0-2.81","","<div style=""font-size:60px;"">+</div>","null","","","","","","",""
"719.539999961853","","image-keyboard-response","466","904330","0.0-6.0-0.82","","img/green.png","32","trial","null","false","0.4,0.6","2:nogo_b","",""
"null","","html-keyboard-response","467","905331","0.0-6.0-1.82","","<img src=""img/green-r.png"" border=""10"">","null","trial","null","","0.4,0.6","2:nogo_b","1",""
"null","","html-keyboard-response","468","906332","0.0-6.0-2.82","","<div style=""font-size:60px;"">+</div>","null","","","","","","",""
"385.9000001102686","","image-keyboard-response","469","906718","0.0-6.0-0.83","","img/red.png","32","trial","32","true","0.6,0.4","1:go_a","",""
"null","","html-keyboard-response","470","907721","0.0-6.0-1.83","","<img src=""img/red-n.png"" border=""10"">","null","trial","32","","0.6,0.4","1:go_a","0",""
"null","","html-keyboard-response","471","908722","0.0-6.0-2.83","","<div style=""font-size:60px;"">+</div>","null","","","","","","",""
"796.7949993908405","","image-keyboard-response","472","909519","0.0-6.0-0.84","","img/red.png","32","trial","32","true","0.6,0.4","1:go_a","",""
"null","","html-keyboard-response","473","910521","0.0-6.0-1.84","","<img src=""img/red-n.png"" border=""10"">","null","trial","32","","0.6,0.4","1:go_a","0",""
"null","","html-keyboard-response","474","911522","0.0-6.0-2.84","","<div style=""font-size:60px;"">+</div>","null","","","","","","",""
"788.6600000783801","","image-keyboard-response","475","912312","0.0-6.0-0.85","","img/green.png","32","trial","null","false","0.4,0.6","2:nogo_b","",""
"null","","html-keyboard-response","476","913312","0.0-6.0-1.85","","<img src=""img/green-r.png"" border=""10"">","null","trial","null","","0.4,0.6","2:nogo_b","1",""
"null","","html-keyboard-response","477","914314","0.0-6.0-2.85","","<div style=""font-size:60px;"">+</div>","null","","","","","","",""
"466.4899995550513","","image-keyboard-response","478","914781","0.0-6.0-0.86","","img/purple.png","32","trial","32","true","0.6,0.4","3:go_c","",""
"null","","html-keyboard-response","479","915783","0.0-6.0-1.86","","<img src=""img/purple-n.png"" border=""10"">","null","trial","32","","0.6,0.4","3:go_c","0",""
"null","","html-keyboard-response","480","916785","0.0-6.0-2.86","","<div style=""font-size:60px;"">+</div>","null","","","","","","",""
"999.66000020504","","image-keyboard-response","481","917788","0.0-6.0-0.87","","img/blue.png","32","trial","null","false","0.4,0.6","4:nogo_d","",""
"null","","html-keyboard-response","482","918790","0.0-6.0-1.87","","<img src=""img/blue-n.png"" border=""10"">","null","trial","null","","0.4,0.6","4:nogo_d","0",""
"null","","html-keyboard-response","483","919792","0.0-6.0-2.87","","<div style=""font-size:60px;"">+</div>","null","","","","","","",""
"null","","image-keyboard-response","484","921293","0.0-6.0-0.88","","img/purple.png","null","trial","32","false","0.6,0.4","3:go_c","",""
"null","","html-keyboard-response","485","922295","0.0-6.0-1.88","","<img src=""img/purple-n.png"">","null","trial","32","","0.6,0.4","3:go_c","0",""
"null","","html-keyboard-response","486","923297","0.0-6.0-2.88","","<div style=""font-size:60px;"">+</div>","null","","","","","","",""
"440.35499915480614","","image-keyboard-response","487","923738","0.0-6.0-0.89","","img/red.png","32","trial","32","true","0.6,0.4","1:go_a","",""
"null","","html-keyboard-response","488","924739","0.0-6.0-1.89","","<img src=""img/red-r.png"" border=""10"">","null","trial","32","","0.6,0.4","1:go_a","1",""
"null","","html-keyboard-response","489","925741","0.0-6.0-2.89","","<div style=""font-size:60px;"">+</div>","null","","","","","","",""
"null","","image-keyboard-response","490","927242","0.0-6.0-0.90","","img/blue.png","null","trial","null","true","0.4,0.6","4:nogo_d","",""
"null","","html-keyboard-response","491","928244","0.0-6.0-1.90","","<img src=""img/blue-r.png"">","null","trial","null","","0.4,0.6","4:nogo_d","1",""
"null","","html-keyboard-response","492","929246","0.0-6.0-2.90","","<div style=""font-size:60px;"">+</div>","null","","","","","","",""
"431.64000008255243","","image-keyboard-response","493","929678","0.0-6.0-0.91","","img/green.png","32","trial","null","false","0.4,0.6","2:nogo_b","",""
"null","","html-keyboard-response","494","930680","0.0-6.0-1.91","","<img src=""img/green-n.png"" border=""10"">","null","trial","null","","0.4,0.6","2:nogo_b","0",""
"null","","html-keyboard-response","495","931681","0.0-6.0-2.91","","<div style=""font-size:60px;"">+</div>","null","","","","","","",""
"406.4449993893504","","image-keyboard-response","496","932088","0.0-6.0-0.92","","img/red.png","32","trial","32","true","0.6,0.4","1:go_a","",""
"null","","html-keyboard-response","497","933090","0.0-6.0-1.92","","<img src=""img/red-r.png"" border=""10"">","null","trial","32","","0.6,0.4","1:go_a","1",""
"null","","html-keyboard-response","498","934091","0.0-6.0-2.92","","<div style=""font-size:60px;"">+</div>","null","","","","","","",""
"590.060000307858","","image-keyboard-response","499","934681","0.0-6.0-0.93","","img/green.png","32","trial","null","false","0.4,0.6","2:nogo_b","",""
"null","","html-keyboard-response","500","935684","0.0-6.0-1.93","","<img src=""img/green-r.png"" border=""10"">","null","trial","null","","0.4,0.6","2:nogo_b","1",""
"null","","html-keyboard-response","501","936685","0.0-6.0-2.93","","<div style=""font-size:60px;"">+</div>","null","","","","","","",""
"336.5449998527765","","image-keyboard-response","502","937022","0.0-6.0-0.94","","img/blue.png","32","trial","null","false","0.4,0.6","4:nogo_d","",""
"null","","html-keyboard-response","503","938023","0.0-6.0-1.94","","<img src=""img/blue-n.png"" border=""10"">","null","trial","null","","0.4,0.6","4:nogo_d","0",""
"null","","html-keyboard-response","504","939024","0.0-6.0-2.94","","<div style=""font-size:60px;"">+</div>","null","","","","","","",""
"782.9249994829297","","image-keyboard-response","505","939807","0.0-6.0-0.95","","img/purple.png","32","trial","32","true","0.6,0.4","3:go_c","",""
"null","","html-keyboard-response","506","940810","0.0-6.0-1.95","","<img src=""img/purple-n.png"" border=""10"">","null","trial","32","","0.6,0.4","3:go_c","0",""
"null","","html-keyboard-response","507","941811","0.0-6.0-2.95","","<div style=""font-size:60px;"">+</div>","null","","","","","","",""
"556.1250001192093","","image-keyboard-response","508","942368","0.0-6.0-0.96","","img/green.png","32","trial","null","false","0.4,0.6","2:nogo_b","",""
"null","","html-keyboard-response","509","943373","0.0-6.0-1.96","","<img src=""img/green-r.png"" border=""10"">","null","trial","null","","0.4,0.6","2:nogo_b","1",""
"null","","html-keyboard-response","510","944374","0.0-6.0-2.96","","<div style=""font-size:60px;"">+</div>","null","","","","","","",""
"909.0949995443225","","image-keyboard-response","511","945283","0.0-6.0-0.97","","img/red.png","32","trial","32","true","0.6,0.4","1:go_a","",""
"null","","html-keyboard-response","512","946285","0.0-6.0-1.97","","<img src=""img/red-n.png"" border=""10"">","null","trial","32","","0.6,0.4","1:go_a","0",""
"null","","html-keyboard-response","513","947287","0.0-6.0-2.97","","<div style=""font-size:60px;"">+</div>","null","","","","","","",""
"441.9149998575449","","image-keyboard-response","514","947730","0.0-6.0-0.98","","img/purple.png","32","trial","32","true","0.6,0.4","3:go_c","",""
"null","","html-keyboard-response","515","948733","0.0-6.0-1.98","","<img src=""img/purple-r.png"" border=""10"">","null","trial","32","","0.6,0.4","3:go_c","1",""
"null","","html-keyboard-response","516","949735","0.0-6.0-2.98","","<div style=""font-size:60px;"">+</div>","null","","","","","","",""
"423.1499992311001","","image-keyboard-response","517","950158","0.0-6.0-0.99","","img/blue.png","32","trial","null","false","0.4,0.6","4:nogo_d","",""
"null","","html-keyboard-response","518","951161","0.0-6.0-1.99","","<img src=""img/blue-r.png"" border=""10"">","null","trial","null","","0.4,0.6","4:nogo_d","1",""
"null","","html-keyboard-response","519","952163","0.0-6.0-2.99","","<div style=""font-size:60px;"">+</div>","null","","","","","","",""
"496.93499971181154","","image-keyboard-response","520","952664","0.0-6.0-0.100","","img/blue.png","32","trial","null","false","0.4,0.6","4:nogo_d","",""
"null","","html-keyboard-response","521","953666","0.0-6.0-1.100","","<img src=""img/blue-r.png"" border=""10"">","null","trial","null","","0.4,0.6","4:nogo_d","1",""
"null","","html-keyboard-response","522","954667","0.0-6.0-2.100","","<div style=""font-size:60px;"">+</div>","null","","","","","","",""
"678.4000005573034","","image-keyboard-response","523","955346","0.0-6.0-0.101","","img/purple.png","32","trial","32","true","0.6,0.4","3:go_c","",""
"null","","html-keyboard-response","524","956350","0.0-6.0-1.101","","<img src=""img/purple-n.png"" border=""10"">","null","trial","32","","0.6,0.4","3:go_c","0",""
"null","","html-keyboard-response","525","957351","0.0-6.0-2.101","","<div style=""font-size:60px;"">+</div>","null","","","","","","",""
"385.40999963879585","","image-keyboard-response","526","957737","0.0-6.0-0.102","","img/red.png","32","trial","32","true","0.6,0.4","1:go_a","",""
"null","","html-keyboard-response","527","958739","0.0-6.0-1.102","","<img src=""img/red-r.png"" border=""10"">","null","trial","32","","0.6,0.4","1:go_a","1",""
"null","","html-keyboard-response","528","959741","0.0-6.0-2.102","","<div style=""font-size:60px;"">+</div>","null","","","","","","",""
"776.235000230372","","image-keyboard-response","529","960518","0.0-6.0-0.103","","img/green.png","32","trial","null","false","0.4,0.6","2:nogo_b","",""
"null","","html-keyboard-response","530","961519","0.0-6.0-1.103","","<img src=""img/green-n.png"" border=""10"">","null","trial","null","","0.4,0.6","2:nogo_b","0",""
"null","","html-keyboard-response","531","962521","0.0-6.0-2.103","","<div style=""font-size:60px;"">+</div>","null","","","","","","",""
"528.5000000149012","","image-keyboard-response","532","963050","0.0-6.0-0.104","","img/blue.png","32","trial","null","false","0.4,0.6","4:nogo_d","",""
"null","","html-keyboard-response","533","964051","0.0-6.0-1.104","","<img src=""img/blue-n.png"" border=""10"">","null","trial","null","","0.4,0.6","4:nogo_d","0",""
"null","","html-keyboard-response","534","965053","0.0-6.0-2.104","","<div style=""font-size:60px;"">+</div>","null","","","","","","",""
"372.6500002667308","","image-keyboard-response","535","965426","0.0-6.0-0.105","","img/green.png","32","trial","null","false","0.4,0.6","2:nogo_b","",""
"null","","html-keyboard-response","536","966427","0.0-6.0-1.105","","<img src=""img/green-n.png"" border=""10"">","null","trial","null","","0.4,0.6","2:nogo_b","0",""
"null","","html-keyboard-response","537","967428","0.0-6.0-2.105","","<div style=""font-size:60px;"">+</div>","null","","","","","","",""
"497.02500086277723","","image-keyboard-response","538","967925","0.0-6.0-0.106","","img/red.png","32","trial","32","true","0.6,0.4","1:go_a","",""
"null","","html-keyboard-response","539","968927","0.0-6.0-1.106","","<img src=""img/red-r.png"" border=""10"">","null","trial","32","","0.6,0.4","1:go_a","1",""
"null","","html-keyboard-response","540","969928","0.0-6.0-2.106","","<div style=""font-size:60px;"">+</div>","null","","","","","","",""
"817.2450000420213","","image-keyboard-response","541","970746","0.0-6.0-0.107","","img/purple.png","32","trial","32","true","0.6,0.4","3:go_c","",""
"null","","html-keyboard-response","542","971747","0.0-6.0-1.107","","<img src=""img/purple-n.png"" border=""10"">","null","trial","32","","0.6,0.4","3:go_c","0",""
"null","","html-keyboard-response","543","972749","0.0-6.0-2.107","","<div style=""font-size:60px;"">+</div>","null","","","","","","",""
"1397.9050004854798","","image-keyboard-response","544","974147","0.0-6.0-0.108","","img/purple.png","32","trial","32","true","0.6,0.4","3:go_c","",""
"null","","html-keyboard-response","545","975150","0.0-6.0-1.108","","<img src=""img/purple-r.png"" border=""10"">","null","trial","32","","0.6,0.4","3:go_c","1",""
"null","","html-keyboard-response","546","976151","0.0-6.0-2.108","","<div style=""font-size:60px;"">+</div>","null","","","","","","",""
"378.2800007611513","","image-keyboard-response","547","976529","0.0-6.0-0.109","","img/green.png","32","trial","null","false","0.4,0.6","2:nogo_b","",""
"null","","html-keyboard-response","548","977532","0.0-6.0-1.109","","<img src=""img/green-n.png"" border=""10"">","null","trial","null","","0.4,0.6","2:nogo_b","0",""
"null","","html-keyboard-response","549","978534","0.0-6.0-2.109","","<div style=""font-size:60px;"">+</div>","null","","","","","","",""
"373.45500010997057","","image-keyboard-response","550","978908","0.0-6.0-0.110","","img/red.png","32","trial","32","true","0.6,0.4","1:go_a","",""
"null","","html-keyboard-response","551","979910","0.0-6.0-1.110","","<img src=""img/red-n.png"" border=""10"">","null","trial","32","","0.6,0.4","1:go_a","0",""
"null","","html-keyboard-response","552","980911","0.0-6.0-2.110","","<div style=""font-size:60px;"">+</div>","null","","","","","","",""
"null","","image-keyboard-response","553","982412","0.0-6.0-0.111","","img/blue.png","null","trial","null","true","0.4,0.6","4:nogo_d","",""
"null","","html-keyboard-response","554","983414","0.0-6.0-1.111","","<img src=""img/blue-r.png"">","null","trial","null","","0.4,0.6","4:nogo_d","1",""
"null","","html-keyboard-response","555","984415","0.0-6.0-2.111","","<div style=""font-size:60px;"">+</div>","null","","","","","","",""
"null","","image-keyboard-response","556","985917","0.0-6.0-0.112","","img/purple.png","null","trial","32","false","0.6,0.4","3:go_c","",""
"null","","html-keyboard-response","557","986918","0.0-6.0-1.112","","<img src=""img/purple-n.png"">","null","trial","32","","0.6,0.4","3:go_c","0",""
"null","","html-keyboard-response","558","987920","0.0-6.0-2.112","","<div style=""font-size:60px;"">+</div>","null","","","","","","",""
"1045.5400003120303","","image-keyboard-response","559","988966","0.0-6.0-0.113","","img/blue.png","32","trial","null","false","0.4,0.6","4:nogo_d","",""
"null","","html-keyboard-response","560","989968","0.0-6.0-1.113","","<img src=""img/blue-r.png"" border=""10"">","null","trial","null","","0.4,0.6","4:nogo_d","1",""
"null","","html-keyboard-response","561","990969","0.0-6.0-2.113","","<div style=""font-size:60px;"">+</div>","null","","","","","","",""
"404.43999972194433","","image-keyboard-response","562","991375","0.0-6.0-0.114","","img/green.png","32","trial","null","false","0.4,0.6","2:nogo_b","",""
"null","","html-keyboard-response","563","992377","0.0-6.0-1.114","","<img src=""img/green-n.png"" border=""10"">","null","trial","null","","0.4,0.6","2:nogo_b","0",""
"null","","html-keyboard-response","564","993379","0.0-6.0-2.114","","<div style=""font-size:60px;"">+</div>","null","","","","","","",""
"349.99999962747097","","image-keyboard-response","565","993730","0.0-6.0-0.115","","img/red.png","32","trial","32","true","0.6,0.4","1:go_a","",""
"null","","html-keyboard-response","566","994732","0.0-6.0-1.115","","<img src=""img/red-n.png"" border=""10"">","null","trial","32","","0.6,0.4","1:go_a","0",""
"null","","html-keyboard-response","567","995733","0.0-6.0-2.115","","<div style=""font-size:60px;"">+</div>","null","","","","","","",""
"688.0899993702769","","image-keyboard-response","568","996422","0.0-6.0-0.116","","img/green.png","32","trial","null","false","0.4,0.6","2:nogo_b","",""
"null","","html-keyboard-response","569","997424","0.0-6.0-1.116","","<img src=""img/green-r.png"" border=""10"">","null","trial","null","","0.4,0.6","2:nogo_b","1",""
"null","","html-keyboard-response","570","998425","0.0-6.0-2.116","","<div style=""font-size:60px;"">+</div>","null","","","","","","",""
"460.5050003156066","","image-keyboard-response","571","998886","0.0-6.0-0.117","","img/red.png","32","trial","32","true","0.6,0.4","1:go_a","",""
"null","","html-keyboard-response","572","999888","0.0-6.0-1.117","","<img src=""img/red-r.png"" border=""10"">","null","trial","32","","0.6,0.4","1:go_a","1",""
"null","","html-keyboard-response","573","1000890","0.0-6.0-2.117","","<div style=""font-size:60px;"">+</div>","null","","","","","","",""
"823.9700002595782","","image-keyboard-response","574","1001714","0.0-6.0-0.118","","img/purple.png","32","trial","32","true","0.6,0.4","3:go_c","",""
"null","","html-keyboard-response","575","1002718","0.0-6.0-1.118","","<img src=""img/purple-r.png"" border=""10"">","null","trial","32","","0.6,0.4","3:go_c","1",""
"null","","html-keyboard-response","576","1003718","0.0-6.0-2.118","","<div style=""font-size:60px;"">+</div>","null","","","","","","",""
"712.9699997603893","","image-keyboard-response","577","1004432","0.0-6.0-0.119","","img/blue.png","32","trial","null","false","0.4,0.6","4:nogo_d","",""
"null","","html-keyboard-response","578","1005433","0.0-6.0-1.119","","<img src=""img/blue-n.png"" border=""10"">","null","trial","null","","0.4,0.6","4:nogo_d","0",""
"null","","html-keyboard-response","579","1006433","0.0-6.0-2.119","","<div style=""font-size:60px;"">+</div>","null","","","","","","",""
"4393.895000219345","","instructions","580","1010827","0.0-7.0","[{""page_index"":0,""viewing_time"":4393.760000355542}]","","","","","","","","",""
"1055.57999946177","","image-keyboard-response","581","1011884","0.0-8.0-0.0","","img/grey.png","32","trial","null","false","0.4,0.6","4:nogo_d","",""
"null","","html-keyboard-response","582","1012886","0.0-8.0-1.0","","<img src=""img/grey-n.png"" border=""10"">","null","trial","null","","0.4,0.6","4:nogo_d","0",""
"null","","html-keyboard-response","583","1013887","0.0-8.0-2.0","","<div style=""font-size:60px;"">+</div>","null","","","","","","",""
"338.0500003695488","","image-keyboard-response","584","1014226","0.0-8.0-0.1","","img/green.png","32","trial","null","false","0.2,0.8","2:nogo_b","",""
"null","","html-keyboard-response","585","1015227","0.0-8.0-1.1","","<img src=""img/green-n.png"" border=""10"">","null","trial","null","","0.2,0.8","2:nogo_b","0",""
"null","","html-keyboard-response","586","1016228","0.0-8.0-2.1","","<div style=""font-size:60px;"">+</div>","null","","","","","","",""
"380.7650003582239","","image-keyboard-response","587","1016609","0.0-8.0-0.2","","img/orange.png","32","trial","32","true","0.8,0.2","1:go_a","",""
"null","","html-keyboard-response","588","1017611","0.0-8.0-1.2","","<img src=""img/orange-n.png"" border=""10"">","null","trial","32","","0.8,0.2","1:go_a","0",""
"null","","html-keyboard-response","589","1018613","0.0-8.0-2.2","","<div style=""font-size:60px;"">+</div>","null","","","","","","",""
"484.4400007277727","","image-keyboard-response","590","1019097","0.0-8.0-0.3","","img/red.png","32","trial","32","true","0.6,0.4","3:go_c","",""
"null","","html-keyboard-response","591","1020100","0.0-8.0-1.3","","<img src=""img/red-r.png"" border=""10"">","null","trial","32","","0.6,0.4","3:go_c","1",""
"null","","html-keyboard-response","592","1021102","0.0-8.0-2.3","","<div style=""font-size:60px;"">+</div>","null","","","","","","",""
"null","","image-keyboard-response","593","1022603","0.0-8.0-0.4","","img/orange.png","null","trial","32","false","0.8,0.2","1:go_a","",""
"null","","html-keyboard-response","594","1023604","0.0-8.0-1.4","","<img src=""img/orange-n.png"">","null","trial","32","","0.8,0.2","1:go_a","0",""
"null","","html-keyboard-response","595","1024605","0.0-8.0-2.4","","<div style=""font-size:60px;"">+</div>","null","","","","","","",""
"859.9249999970198","","image-keyboard-response","596","1025465","0.0-8.0-0.5","","img/green.png","32","trial","null","false","0.2,0.8","2:nogo_b","",""
"null","","html-keyboard-response","597","1026468","0.0-8.0-1.5","","<img src=""img/green-n.png"" border=""10"">","null","trial","null","","0.2,0.8","2:nogo_b","0",""
"null","","html-keyboard-response","598","1027469","0.0-8.0-2.5","","<div style=""font-size:60px;"">+</div>","null","","","","","","",""
"null","","image-keyboard-response","599","1028971","0.0-8.0-0.6","","img/grey.png","null","trial","null","true","0.4,0.6","4:nogo_d","",""
"null","","html-keyboard-response","600","1029973","0.0-8.0-1.6","","<img src=""img/grey-r.png"">","null","trial","null","","0.4,0.6","4:nogo_d","1",""
"null","","html-keyboard-response","601","1030975","0.0-8.0-2.6","","<div style=""font-size:60px;"">+</div>","null","","","","","","",""
"340.1649994775653","","image-keyboard-response","602","1031315","0.0-8.0-0.7","","img/red.png","32","trial","32","true","0.6,0.4","3:go_c","",""
"null","","html-keyboard-response","603","1032318","0.0-8.0-1.7","","<img src=""img/red-n.png"" border=""10"">","null","trial","32","","0.6,0.4","3:go_c","0",""
"null","","html-keyboard-response","604","1033319","0.0-8.0-2.7","","<div style=""font-size:60px;"">+</div>","null","","","","","","",""
"491.6149992495775","","image-keyboard-response","605","1033812","0.0-8.0-0.8","","img/grey.png","32","trial","null","false","0.4,0.6","4:nogo_d","",""
"null","","html-keyboard-response","606","1034813","0.0-8.0-1.8","","<img src=""img/grey-n.png"" border=""10"">","null","trial","null","","0.4,0.6","4:nogo_d","0",""
"null","","html-keyboard-response","607","1035815","0.0-8.0-2.8","","<div style=""font-size:60px;"">+</div>","null","","","","","","",""
"362.43500001728535","","image-keyboard-response","608","1036178","0.0-8.0-0.9","","img/orange.png","32","trial","32","true","0.8,0.2","1:go_a","",""
"null","","html-keyboard-response","609","1037179","0.0-8.0-1.9","","<img src=""img/orange-r.png"" border=""10"">","null","trial","32","","0.8,0.2","1:go_a","1",""
"null","","html-keyboard-response","610","1038180","0.0-8.0-2.9","","<div style=""font-size:60px;"">+</div>","null","","","","","","",""
"571.0399998351932","","image-keyboard-response","611","1038752","0.0-8.0-0.10","","img/green.png","32","trial","null","false","0.2,0.8","2:nogo_b","",""
"null","","html-keyboard-response","612","1039753","0.0-8.0-1.10","","<img src=""img/green-n.png"" border=""10"">","null","trial","null","","0.2,0.8","2:nogo_b","0",""
"null","","html-keyboard-response","613","1040755","0.0-8.0-2.10","","<div style=""font-size:60px;"">+</div>","null","","","","","","",""
"319.7699999436736","","image-keyboard-response","614","1041075","0.0-8.0-0.11","","img/red.png","32","trial","32","true","0.6,0.4","3:go_c","",""
"null","","html-keyboard-response","615","1042077","0.0-8.0-1.11","","<img src=""img/red-n.png"" border=""10"">","null","trial","32","","0.6,0.4","3:go_c","0",""
"null","","html-keyboard-response","616","1043079","0.0-8.0-2.11","","<div style=""font-size:60px;"">+</div>","null","","","","","","",""
"357.5950004160404","","image-keyboard-response","617","1043437","0.0-8.0-0.12","","img/green.png","32","trial","null","false","0.2,0.8","2:nogo_b","",""
"null","","html-keyboard-response","618","1044439","0.0-8.0-1.12","","<img src=""img/green-n.png"" border=""10"">","null","trial","null","","0.2,0.8","2:nogo_b","0",""
"null","","html-keyboard-response","619","1045441","0.0-8.0-2.12","","<div style=""font-size:60px;"">+</div>","null","","","","","","",""
"498.4400002285838","","image-keyboard-response","620","1045940","0.0-8.0-0.13","","img/red.png","32","trial","32","true","0.6,0.4","3:go_c","",""
"null","","html-keyboard-response","621","1046942","0.0-8.0-1.13","","<img src=""img/red-n.png"" border=""10"">","null","trial","32","","0.6,0.4","3:go_c","0",""
"null","","html-keyboard-response","622","1047944","0.0-8.0-2.13","","<div style=""font-size:60px;"">+</div>","null","","","","","","",""
"391.35999977588654","","image-keyboard-response","623","1048336","0.0-8.0-0.14","","img/orange.png","32","trial","32","true","0.8,0.2","1:go_a","",""
"null","","html-keyboard-response","624","1049338","0.0-8.0-1.14","","<img src=""img/orange-r.png"" border=""10"">","null","trial","32","","0.8,0.2","1:go_a","1",""
"null","","html-keyboard-response","625","1050339","0.0-8.0-2.14","","<div style=""font-size:60px;"">+</div>","null","","","","","","",""
"null","","image-keyboard-response","626","1051840","0.0-8.0-0.15","","img/grey.png","null","trial","null","true","0.4,0.6","4:nogo_d","",""
"null","","html-keyboard-response","627","1052842","0.0-8.0-1.15","","<img src=""img/grey-n.png"">","null","trial","null","","0.4,0.6","4:nogo_d","0",""
"null","","html-keyboard-response","628","1053844","0.0-8.0-2.15","","<div style=""font-size:60px;"">+</div>","null","","","","","","",""
"385.00999938696623","","image-keyboard-response","629","1054229","0.0-8.0-0.16","","img/red.png","32","trial","32","true","0.6,0.4","3:go_c","",""
"null","","html-keyboard-response","630","1055231","0.0-8.0-1.16","","<img src=""img/red-r.png"" border=""10"">","null","trial","32","","0.6,0.4","3:go_c","1",""
"null","","html-keyboard-response","631","1056233","0.0-8.0-2.16","","<div style=""font-size:60px;"">+</div>","null","","","","","","",""
"528.095000423491","","image-keyboard-response","632","1056761","0.0-8.0-0.17","","img/green.png","32","trial","null","false","0.2,0.8","2:nogo_b","",""
"null","","html-keyboard-response","633","1057763","0.0-8.0-1.17","","<img src=""img/green-r.png"" border=""10"">","null","trial","null","","0.2,0.8","2:nogo_b","1",""
"null","","html-keyboard-response","634","1058765","0.0-8.0-2.17","","<div style=""font-size:60px;"">+</div>","null","","","","","","",""
"null","","image-keyboard-response","635","1060266","0.0-8.0-0.18","","img/grey.png","null","trial","null","true","0.4,0.6","4:nogo_d","",""
"null","","html-keyboard-response","636","1061268","0.0-8.0-1.18","","<img src=""img/grey-r.png"">","null","trial","null","","0.4,0.6","4:nogo_d","1",""
"null","","html-keyboard-response","637","1062269","0.0-8.0-2.18","","<div style=""font-size:60px;"">+</div>","null","","","","","","",""
"373.69500007480383","","image-keyboard-response","638","1062644","0.0-8.0-0.19","","img/orange.png","32","trial","32","true","0.8,0.2","1:go_a","",""
"null","","html-keyboard-response","639","1063646","0.0-8.0-1.19","","<img src=""img/orange-r.png"" border=""10"">","null","trial","32","","0.8,0.2","1:go_a","1",""
"null","","html-keyboard-response","640","1064647","0.0-8.0-2.19","","<div style=""font-size:60px;"">+</div>","null","","","","","","",""
"476.7450001090765","","image-keyboard-response","641","1065124","0.0-8.0-0.20","","img/grey.png","32","trial","null","false","0.4,0.6","4:nogo_d","",""
"null","","html-keyboard-response","642","1066125","0.0-8.0-1.20","","<img src=""img/grey-r.png"" border=""10"">","null","trial","null","","0.4,0.6","4:nogo_d","1",""
"null","","html-keyboard-response","643","1067126","0.0-8.0-2.20","","<div style=""font-size:60px;"">+</div>","null","","","","","","",""
"null","","image-keyboard-response","644","1068634","0.0-8.0-0.21","","img/green.png","null","trial","null","true","0.2,0.8","2:nogo_b","",""
"null","","html-keyboard-response","645","1069637","0.0-8.0-1.21","","<img src=""img/green-r.png"">","null","trial","null","","0.2,0.8","2:nogo_b","1",""
"null","","html-keyboard-response","646","1070637","0.0-8.0-2.21","","<div style=""font-size:60px;"">+</div>","null","","","","","","",""
"396.05499990284443","","image-keyboard-response","647","1071034","0.0-8.0-0.22","","img/red.png","32","trial","32","true","0.6,0.4","3:go_c","",""
"null","","html-keyboard-response","648","1072035","0.0-8.0-1.22","","<img src=""img/red-n.png"" border=""10"">","null","trial","32","","0.6,0.4","3:go_c","0",""
"null","","html-keyboard-response","649","1073037","0.0-8.0-2.22","","<div style=""font-size:60px;"">+</div>","null","","","","","","",""
"356.42500035464764","","image-keyboard-response","650","1073394","0.0-8.0-0.23","","img/orange.png","32","trial","32","true","0.8,0.2","1:go_a","",""
"null","","html-keyboard-response","651","1074396","0.0-8.0-1.23","","<img src=""img/orange-r.png"" border=""10"">","null","trial","32","","0.8,0.2","1:go_a","1",""
"null","","html-keyboard-response","652","1075397","0.0-8.0-2.23","","<div style=""font-size:60px;"">+</div>","null","","","","","","",""
"394.48999986052513","","image-keyboard-response","653","1075791","0.0-8.0-0.24","","img/green.png","32","trial","null","false","0.2,0.8","2:nogo_b","",""
"null","","html-keyboard-response","654","1076793","0.0-8.0-1.24","","<img src=""img/green-n.png"" border=""10"">","null","trial","null","","0.2,0.8","2:nogo_b","0",""
"null","","html-keyboard-response","655","1077793","0.0-8.0-2.24","","<div style=""font-size:60px;"">+</div>","null","","","","","","",""
"353.4550005570054","","image-keyboard-response","656","1078147","0.0-8.0-0.25","","img/orange.png","32","trial","32","true","0.8,0.2","1:go_a","",""
"null","","html-keyboard-response","657","1079149","0.0-8.0-1.25","","<img src=""img/orange-r.png"" border=""10"">","null","trial","32","","0.8,0.2","1:go_a","1",""
"null","","html-keyboard-response","658","1080151","0.0-8.0-2.25","","<div style=""font-size:60px;"">+</div>","null","","","","","","",""
"504.32000029832125","","image-keyboard-response","659","1080656","0.0-8.0-0.26","","img/red.png","32","trial","32","true","0.6,0.4","3:go_c","",""
"null","","html-keyboard-response","660","1081657","0.0-8.0-1.26","","<img src=""img/red-n.png"" border=""10"">","null","trial","32","","0.6,0.4","3:go_c","0",""
"null","","html-keyboard-response","661","1082659","0.0-8.0-2.26","","<div style=""font-size:60px;"">+</div>","null","","","","","","",""
"null","","image-keyboard-response","662","1084160","0.0-8.0-0.27","","img/grey.png","null","trial","null","true","0.4,0.6","4:nogo_d","",""
"null","","html-keyboard-response","663","1085162","0.0-8.0-1.27","","<img src=""img/grey-r.png"">","null","trial","null","","0.4,0.6","4:nogo_d","1",""
"null","","html-keyboard-response","664","1086163","0.0-8.0-2.27","","<div style=""font-size:60px;"">+</div>","null","","","","","","",""
"385.2850003167987","","image-keyboard-response","665","1086549","0.0-8.0-0.28","","img/grey.png","32","trial","null","false","0.4,0.6","4:nogo_d","",""
"null","","html-keyboard-response","666","1087551","0.0-8.0-1.28","","<img src=""img/grey-n.png"" border=""10"">","null","trial","null","","0.4,0.6","4:nogo_d","0",""
"null","","html-keyboard-response","667","1088552","0.0-8.0-2.28","","<div style=""font-size:60px;"">+</div>","null","","","","","","",""
"512.6949995756149","","image-keyboard-response","668","1089066","0.0-8.0-0.29","","img/red.png","32","trial","32","true","0.6,0.4","3:go_c","",""
"null","","html-keyboard-response","669","1090067","0.0-8.0-1.29","","<img src=""img/red-n.png"" border=""10"">","null","trial","32","","0.6,0.4","3:go_c","0",""
"null","","html-keyboard-response","670","1091069","0.0-8.0-2.29","","<div style=""font-size:60px;"">+</div>","null","","","","","","",""
"446.4199999347329","","image-keyboard-response","671","1091517","0.0-8.0-0.30","","img/orange.png","32","trial","32","true","0.8,0.2","1:go_a","",""
"null","","html-keyboard-response","672","1092518","0.0-8.0-1.30","","<img src=""img/orange-r.png"" border=""10"">","null","trial","32","","0.8,0.2","1:go_a","1",""
"null","","html-keyboard-response","673","1093520","0.0-8.0-2.30","","<div style=""font-size:60px;"">+</div>","null","","","","","","",""
