"rt","url","trial_type","trial_index","time_elapsed","internal_node_id","view_history","stimulus","key_press","test_part","correct_response","correct","use_rew","which_stim","reward","responses"
"514244.8399999994","consent.html","external-html","0","514389","0.0-0.0","","","","","","","","","",""
"18542030.125000007","","instructions","1","19056421","0.0-1.0","[{""page_index"":0,""viewing_time"":3320.845000001951},{""page_index"":1,""viewing_time"":114899.46000000054},{""page_index"":2,""viewing_time"":5468.800000002375},{""page_index"":3,""viewing_time"":1253158.9549999991},{""page_index"":4,""viewing_time"":417925.1000000003},{""page_index"":5,""viewing_time"":5736.06499999715},{""page_index"":6,""viewing_time"":16741519.02}]","","","","","","","","",""
"null","","image-keyboard-response","2","19057927","0.0-2.0-0.0","","img/test1.PNG","null","practice","32","false","","","",""
"null","","html-keyboard-response","3","19058929","0.0-2.0-1.0","","<img src=""img/test1-neutral.PNG"">","null","","","","","","",""
"null","","html-keyboard-response","4","19059931","0.0-2.0-2.0","","<div style=""font-size:60px;"">+</div>","null","","","","","","",""
"null","","image-keyboard-response","5","19061432","0.0-2.0-0.1","","img/test3.PNG","null","practice","null","true","","","",""
"null","","html-keyboard-response","6","19062434","0.0-2.0-1.1","","<img src=""img/test3-reward.PNG"">","null","","","","","","",""
"null","","html-keyboard-response","7","19063436","0.0-2.0-2.1","","<div style=""font-size:60px;"">+</div>","null","","","","","","",""
"null","","image-keyboard-response","8","19064938","0.0-2.0-0.2","","img/test2.PNG","null","practice","null","true","","","",""
"null","","html-keyboard-response","9","19065939","0.0-2.0-1.2","","<img src=""img/test2-reward.PNG"">","null","","","","","","",""
"null","","html-keyboard-response","10","19066940","0.0-2.0-2.2","","<div style=""font-size:60px;"">+</div>","null","","","","","","",""
"949.3550000041723","","image-keyboard-response","11","19067893","0.0-2.0-0.3","","img/test3.PNG","32","practice","null","false","","","",""
"null","","html-keyboard-response","12","19068895","0.0-2.0-1.3","","<img src=""img/test3-neutral.PNG"" border=""10px; grey"">","null","","","","","","",""
"null","","html-keyboard-response","13","19069896","0.0-2.0-2.3","","<div style=""font-size:60px;"">+</div>","null","","","","","","",""
"528.910000000149","","image-keyboard-response","14","19070426","0.0-2.0-0.4","","img/test2.PNG","32","practice","null","false","","","",""
"null","","html-keyboard-response","15","19071428","0.0-2.0-1.4","","<img src=""img/test2-neutral.PNG"" border=""10px; grey"">","null","","","","","","",""
"null","","html-keyboard-response","16","19072430","0.0-2.0-2.4","","<div style=""font-size:60px;"">+</div>","null","","","","","","",""
"548.3000000044703","","image-keyboard-response","17","19072980","0.0-2.0-0.5","","img/test1.PNG","32","practice","32","true","","","",""
"null","","html-keyboard-response","18","19073982","0.0-2.0-1.5","","<img src=""img/test1-reward.PNG"" border=""10px; grey"">","null","","","","","","",""
"null","","html-keyboard-response","19","19074984","0.0-2.0-2.5","","<div style=""font-size:60px;"">+</div>","null","","","","","","",""
"null","","image-keyboard-response","20","19076486","0.0-2.0-0.6","","img/test3.PNG","null","practice","null","true","","","",""
"null","","html-keyboard-response","21","19077487","0.0-2.0-1.6","","<img src=""img/test3-reward.PNG"">","null","","","","","","",""
"null","","html-keyboard-response","22","19078489","0.0-2.0-2.6","","<div style=""font-size:60px;"">+</div>","null","","","","","","",""
"1065.019999999553","","image-keyboard-response","23","19079555","0.0-2.0-0.7","","img/test1.PNG","32","practice","32","true","","","",""
"null","","html-keyboard-response","24","19080557","0.0-2.0-1.7","","<img src=""img/test1-reward.PNG"" border=""10px; grey"">","null","","","","","","",""
"null","","html-keyboard-response","25","19081559","0.0-2.0-2.7","","<div style=""font-size:60px;"">+</div>","null","","","","","","",""
"null","","image-keyboard-response","26","19083061","0.0-2.0-0.8","","img/test2.PNG","null","practice","null","true","","","",""
"null","","html-keyboard-response","27","19084063","0.0-2.0-1.8","","<img src=""img/test2-reward.PNG"">","null","","","","","","",""
"null","","html-keyboard-response","28","19085064","0.0-2.0-2.8","","<div style=""font-size:60px;"">+</div>","null","","","","","","",""
"773.2400000020862","","image-keyboard-response","29","19085839","0.0-2.0-0.9","","img/test1.PNG","32","practice","32","true","","","",""
"null","","html-keyboard-response","30","19086840","0.0-2.0-1.9","","<img src=""img/test1-reward.PNG"" border=""10px; grey"">","null","","","","","","",""
"null","","html-keyboard-response","31","19087841","0.0-2.0-2.9","","<div style=""font-size:60px;"">+</div>","null","","","","","","",""
"null","","image-keyboard-response","32","19089343","0.0-2.0-0.10","","img/test3.PNG","null","practice","null","true","","","",""
"null","","html-keyboard-response","33","19090346","0.0-2.0-1.10","","<img src=""img/test3-reward.PNG"">","null","","","","","","",""
"null","","html-keyboard-response","34","19091347","0.0-2.0-2.10","","<div style=""font-size:60px;"">+</div>","null","","","","","","",""
"805.0749999955297","","image-keyboard-response","35","19092154","0.0-2.0-0.11","","img/test2.PNG","32","practice","null","false","","","",""
"null","","html-keyboard-response","36","19093155","0.0-2.0-1.11","","<img src=""img/test2-neutral.PNG"" border=""10px; grey"">","null","","","","","","",""
"null","","html-keyboard-response","37","19094157","0.0-2.0-2.11","","<div style=""font-size:60px;"">+</div>","null","","","","","","",""
"86956.78500000015","","instructions","38","19181114","0.0-3.0","[{""page_index"":0,""viewing_time"":86956.3350000009}]","","","","","","","","",""
"null","","image-keyboard-response","39","19182617","0.0-4.0-0.0","","img/red.png","null","trial","null","true","0.2,0.8","2:nogo_b","",""
"null","","html-keyboard-response","40","19183620","0.0-4.0-1.0","","<img src=""img/red-r.png"">","null","trial","null","","0.2,0.8","2:nogo_b","1",""
"null","","html-keyboard-response","41","19184621","0.0-4.0-2.0","","<div style=""font-size:60px;"">+</div>","null","","","","","","",""
"null","","image-keyboard-response","42","19186123","0.0-4.0-0.1","","img/orange.png","null","trial","32","false","0.8,0.2","1:go_a","",""
"null","","html-keyboard-response","43","19187125","0.0-4.0-1.1","","<img src=""img/orange-n.png"">","null","trial","32","","0.8,0.2","1:go_a","0",""
"null","","html-keyboard-response","44","19188127","0.0-4.0-2.1","","<div style=""font-size:60px;"">+</div>","null","","","","","","",""
"650.9099999964237","","image-keyboard-response","45","19188779","0.0-4.0-0.2","","img/red.png","32","trial","null","false","0.2,0.8","2:nogo_b","",""
"null","","html-keyboard-response","46","19189782","0.0-4.0-1.2","","<img src=""img/red-n.png"" border=""10"">","null","trial","null","","0.2,0.8","2:nogo_b","0",""
"null","","html-keyboard-response","47","19190784","0.0-4.0-2.2","","<div style=""font-size:60px;"">+</div>","null","","","","","","",""
"451.9599999971688","","image-keyboard-response","48","19191237","0.0-4.0-0.3","","img/orange.png","32","trial","32","true","0.8,0.2","1:go_a","",""
"null","","html-keyboard-response","49","19192239","0.0-4.0-1.3","","<img src=""img/orange-r.png"" border=""10"">","null","trial","32","","0.8,0.2","1:go_a","1",""
"null","","html-keyboard-response","50","19193241","0.0-4.0-2.3","","<div style=""font-size:60px;"">+</div>","null","","","","","","",""
"null","","image-keyboard-response","51","19194743","0.0-4.0-0.4","","img/red.png","null","trial","null","true","0.2,0.8","2:nogo_b","",""
"null","","html-keyboard-response","52","19195746","0.0-4.0-1.4","","<img src=""img/red-r.png"">","null","trial","null","","0.2,0.8","2:nogo_b","1",""
"null","","html-keyboard-response","53","19196747","0.0-4.0-2.4","","<div style=""font-size:60px;"">+</div>","null","","","","","","",""
"657.2749999985099","","image-keyboard-response","54","19197405","0.0-4.0-0.5","","img/orange.png","32","trial","32","true","0.8,0.2","1:go_a","",""
"null","","html-keyboard-response","55","19198408","0.0-4.0-1.5","","<img src=""img/orange-r.png"" border=""10"">","null","trial","32","","0.8,0.2","1:go_a","1",""
"null","","html-keyboard-response","56","19199409","0.0-4.0-2.5","","<div style=""font-size:60px;"">+</div>","null","","","","","","",""
"null","","image-keyboard-response","57","19200910","0.0-4.0-0.6","","img/red.png","null","trial","null","true","0.2,0.8","2:nogo_b","",""
"null","","html-keyboard-response","58","19201912","0.0-4.0-1.6","","<img src=""img/red-r.png"">","null","trial","null","","0.2,0.8","2:nogo_b","1",""
"null","","html-keyboard-response","59","19202915","0.0-4.0-2.6","","<div style=""font-size:60px;"">+</div>","null","","","","","","",""
"737.8150000013411","","image-keyboard-response","60","19203653","0.0-4.0-0.7","","img/orange.png","32","trial","32","true","0.8,0.2","1:go_a","",""
"null","","html-keyboard-response","61","19204655","0.0-4.0-1.7","","<img src=""img/orange-r.png"" border=""10"">","null","trial","32","","0.8,0.2","1:go_a","1",""
"null","","html-keyboard-response","62","19205657","0.0-4.0-2.7","","<div style=""font-size:60px;"">+</div>","null","","","","","","",""
"null","","image-keyboard-response","63","19207159","0.0-4.0-0.8","","img/red.png","null","trial","null","true","0.2,0.8","2:nogo_b","",""
"null","","html-keyboard-response","64","19208160","0.0-4.0-1.8","","<img src=""img/red-r.png"">","null","trial","null","","0.2,0.8","2:nogo_b","1",""
"null","","html-keyboard-response","65","19209162","0.0-4.0-2.8","","<div style=""font-size:60px;"">+</div>","null","","","","","","",""
"null","","image-keyboard-response","66","19210664","0.0-4.0-0.9","","img/orange.png","null","trial","32","false","0.8,0.2","1:go_a","",""
"null","","html-keyboard-response","67","19211666","0.0-4.0-1.9","","<img src=""img/orange-n.png"">","null","trial","32","","0.8,0.2","1:go_a","0",""
"null","","html-keyboard-response","68","19212668","0.0-4.0-2.9","","<div style=""font-size:60px;"">+</div>","null","","","","","","",""
"533.1500000022352","","image-keyboard-response","69","19213202","0.0-4.0-0.10","","img/red.png","32","trial","null","false","0.2,0.8","2:nogo_b","",""
"null","","html-keyboard-response","70","19214205","0.0-4.0-1.10","","<img src=""img/red-n.png"" border=""10"">","null","trial","null","","0.2,0.8","2:nogo_b","0",""
"null","","html-keyboard-response","71","19215206","0.0-4.0-2.10","","<div style=""font-size:60px;"">+</div>","null","","","","","","",""
"796.3250000029802","","image-keyboard-response","72","19216004","0.0-4.0-0.11","","img/orange.png","32","trial","32","true","0.8,0.2","1:go_a","",""
"null","","html-keyboard-response","73","19217007","0.0-4.0-1.11","","<img src=""img/orange-r.png"" border=""10"">","null","trial","32","","0.8,0.2","1:go_a","1",""
"null","","html-keyboard-response","74","19218008","0.0-4.0-2.11","","<div style=""font-size:60px;"">+</div>","null","","","","","","",""
"null","","image-keyboard-response","75","19219510","0.0-4.0-0.12","","img/red.png","null","trial","null","true","0.2,0.8","2:nogo_b","",""
"null","","html-keyboard-response","76","19220512","0.0-4.0-1.12","","<img src=""img/red-r.png"">","null","trial","null","","0.2,0.8","2:nogo_b","1",""
"null","","html-keyboard-response","77","19221514","0.0-4.0-2.12","","<div style=""font-size:60px;"">+</div>","null","","","","","","",""
"865.8949999958277","","image-keyboard-response","78","19222381","0.0-4.0-0.13","","img/orange.png","32","trial","32","true","0.8,0.2","1:go_a","",""
"null","","html-keyboard-response","79","19223383","0.0-4.0-1.13","","<img src=""img/orange-r.png"" border=""10"">","null","trial","32","","0.8,0.2","1:go_a","1",""
"null","","html-keyboard-response","80","19224386","0.0-4.0-2.13","","<div style=""font-size:60px;"">+</div>","null","","","","","","",""
"null","","image-keyboard-response","81","19225888","0.0-4.0-0.14","","img/red.png","null","trial","null","true","0.2,0.8","2:nogo_b","",""
"null","","html-keyboard-response","82","19226890","0.0-4.0-1.14","","<img src=""img/red-r.png"">","null","trial","null","","0.2,0.8","2:nogo_b","1",""
"null","","html-keyboard-response","83","19227891","0.0-4.0-2.14","","<div style=""font-size:60px;"">+</div>","null","","","","","","",""
"null","","image-keyboard-response","84","19229393","0.0-4.0-0.15","","img/orange.png","null","trial","32","false","0.8,0.2","1:go_a","",""
"null","","html-keyboard-response","85","19230395","0.0-4.0-1.15","","<img src=""img/orange-n.png"">","null","trial","32","","0.8,0.2","1:go_a","0",""
"null","","html-keyboard-response","86","19231396","0.0-4.0-2.15","","<div style=""font-size:60px;"">+</div>","null","","","","","","",""
"627.1500000022352","","image-keyboard-response","87","19232025","0.0-4.0-0.16","","img/red.png","32","trial","null","false","0.2,0.8","2:nogo_b","",""
"null","","html-keyboard-response","88","19233027","0.0-4.0-1.16","","<img src=""img/red-n.png"" border=""10"">","null","trial","null","","0.2,0.8","2:nogo_b","0",""
"null","","html-keyboard-response","89","19234028","0.0-4.0-2.16","","<div style=""font-size:60px;"">+</div>","null","","","","","","",""
"1155.155000001192","","image-keyboard-response","90","19235184","0.0-4.0-0.17","","img/orange.png","32","trial","32","true","0.8,0.2","1:go_a","",""
"null","","html-keyboard-response","91","19236186","0.0-4.0-1.17","","<img src=""img/orange-r.png"" border=""10"">","null","trial","32","","0.8,0.2","1:go_a","1",""
"null","","html-keyboard-response","92","19237187","0.0-4.0-2.17","","<div style=""font-size:60px;"">+</div>","null","","","","","","",""
"1244.2250000052154","","image-keyboard-response","93","19238432","0.0-4.0-0.18","","img/orange.png","32","trial","32","true","0.8,0.2","1:go_a","",""
"null","","html-keyboard-response","94","19239434","0.0-4.0-1.18","","<img src=""img/orange-r.png"" border=""10"">","null","trial","32","","0.8,0.2","1:go_a","1",""
"null","","html-keyboard-response","95","19240437","0.0-4.0-2.18","","<div style=""font-size:60px;"">+</div>","null","","","","","","",""
"null","","image-keyboard-response","96","19241938","0.0-4.0-0.19","","img/red.png","null","trial","null","true","0.2,0.8","2:nogo_b","",""
"null","","html-keyboard-response","97","19242940","0.0-4.0-1.19","","<img src=""img/red-n.png"">","null","trial","null","","0.2,0.8","2:nogo_b","0",""
"null","","html-keyboard-response","98","19243941","0.0-4.0-2.19","","<div style=""font-size:60px;"">+</div>","null","","","","","","",""
"550.3099999986589","","image-keyboard-response","99","19244493","0.0-4.0-0.20","","img/orange.png","32","trial","32","true","0.8,0.2","1:go_a","",""
"null","","html-keyboard-response","100","19245494","0.0-4.0-1.20","","<img src=""img/orange-r.png"" border=""10"">","null","trial","32","","0.8,0.2","1:go_a","1",""
"null","","html-keyboard-response","101","19246495","0.0-4.0-2.20","","<div style=""font-size:60px;"">+</div>","null","","","","","","",""
"null","","image-keyboard-response","102","19247997","0.0-4.0-0.21","","img/red.png","null","trial","null","true","0.2,0.8","2:nogo_b","",""
"null","","html-keyboard-response","103","19248999","0.0-4.0-1.21","","<img src=""img/red-r.png"">","null","trial","null","","0.2,0.8","2:nogo_b","1",""
"null","","html-keyboard-response","104","19250001","0.0-4.0-2.21","","<div style=""font-size:60px;"">+</div>","null","","","","","","",""
"490.1499999985099","","image-keyboard-response","105","19250492","0.0-4.0-0.22","","img/orange.png","32","trial","32","true","0.8,0.2","1:go_a","",""
"null","","html-keyboard-response","106","19251493","0.0-4.0-1.22","","<img src=""img/orange-n.png"" border=""10"">","null","trial","32","","0.8,0.2","1:go_a","0",""
"null","","html-keyboard-response","107","19252494","0.0-4.0-2.22","","<div style=""font-size:60px;"">+</div>","null","","","","","","",""
"775.3550000041723","","image-keyboard-response","108","19253271","0.0-4.0-0.23","","img/red.png","32","trial","null","false","0.2,0.8","2:nogo_b","",""
"null","","html-keyboard-response","109","19254272","0.0-4.0-1.23","","<img src=""img/red-n.png"" border=""10"">","null","trial","null","","0.2,0.8","2:nogo_b","0",""
"null","","html-keyboard-response","110","19255274","0.0-4.0-2.23","","<div style=""font-size:60px;"">+</div>","null","","","","","","",""
"737.015000000596","","image-keyboard-response","111","19256012","0.0-4.0-0.24","","img/orange.png","32","trial","32","true","0.8,0.2","1:go_a","",""
"null","","html-keyboard-response","112","19257016","0.0-4.0-1.24","","<img src=""img/orange-r.png"" border=""10"">","null","trial","32","","0.8,0.2","1:go_a","1",""
"null","","html-keyboard-response","113","19258017","0.0-4.0-2.24","","<div style=""font-size:60px;"">+</div>","null","","","","","","",""
"null","","image-keyboard-response","114","19259519","0.0-4.0-0.25","","img/red.png","null","trial","null","true","0.2,0.8","2:nogo_b","",""
"null","","html-keyboard-response","115","19260521","0.0-4.0-1.25","","<img src=""img/red-r.png"">","null","trial","null","","0.2,0.8","2:nogo_b","1",""
"null","","html-keyboard-response","116","19261523","0.0-4.0-2.25","","<div style=""font-size:60px;"">+</div>","null","","","","","","",""
"563.3050000034273","","image-keyboard-response","117","19262087","0.0-4.0-0.26","","img/orange.png","32","trial","32","true","0.8,0.2","1:go_a","",""
"null","","html-keyboard-response","118","19263088","0.0-4.0-1.26","","<img src=""img/orange-r.png"" border=""10"">","null","trial","32","","0.8,0.2","1:go_a","1",""
"null","","html-keyboard-response","119","19264090","0.0-4.0-2.26","","<div style=""font-size:60px;"">+</div>","null","","","","","","",""
"1342.2000000067055","","image-keyboard-response","120","19265433","0.0-4.0-0.27","","img/red.png","32","trial","null","false","0.2,0.8","2:nogo_b","",""
"null","","html-keyboard-response","121","19266435","0.0-4.0-1.27","","<img src=""img/red-n.png"" border=""10"">","null","trial","null","","0.2,0.8","2:nogo_b","0",""
"null","","html-keyboard-response","122","19267436","0.0-4.0-2.27","","<div style=""font-size:60px;"">+</div>","null","","","","","","",""
"null","","image-keyboard-response","123","19268938","0.0-4.0-0.28","","img/red.png","null","trial","null","true","0.2,0.8","2:nogo_b","",""
"null","","html-keyboard-response","124","19269940","0.0-4.0-1.28","","<img src=""img/red-n.png"">","null","trial","null","","0.2,0.8","2:nogo_b","0",""
"null","","html-keyboard-response","125","19270941","0.0-4.0-2.28","","<div style=""font-size:60px;"">+</div>","null","","","","","","",""
"502.0650000013411","","image-keyboard-response","126","19271444","0.0-4.0-0.29","","img/orange.png","32","trial","32","true","0.8,0.2","1:go_a","",""
"null","","html-keyboard-response","127","19272446","0.0-4.0-1.29","","<img src=""img/orange-r.png"" border=""10"">","null","trial","32","","0.8,0.2","1:go_a","1",""
"null","","html-keyboard-response","128","19273447","0.0-4.0-2.29","","<div style=""font-size:60px;"">+</div>","null","","","","","","",""
"null","","image-keyboard-response","129","19274950","0.0-4.0-0.30","","img/red.png","null","trial","null","true","0.2,0.8","2:nogo_b","",""
"null","","html-keyboard-response","130","19275951","0.0-4.0-1.30","","<img src=""img/red-r.png"">","null","trial","null","","0.2,0.8","2:nogo_b","1",""
"null","","html-keyboard-response","131","19276953","0.0-4.0-2.30","","<div style=""font-size:60px;"">+</div>","null","","","","","","",""
"null","","image-keyboard-response","132","19278454","0.0-4.0-0.31","","img/orange.png","null","trial","32","false","0.8,0.2","1:go_a","",""
"null","","html-keyboard-response","133","19279457","0.0-4.0-1.31","","<img src=""img/orange-r.png"">","null","trial","32","","0.8,0.2","1:go_a","1",""
"null","","html-keyboard-response","134","19280459","0.0-4.0-2.31","","<div style=""font-size:60px;"">+</div>","null","","","","","","",""
"null","","image-keyboard-response","135","19281960","0.0-4.0-0.32","","img/red.png","null","trial","null","true","0.2,0.8","2:nogo_b","",""
"null","","html-keyboard-response","136","19282963","0.0-4.0-1.32","","<img src=""img/red-r.png"">","null","trial","null","","0.2,0.8","2:nogo_b","1",""
"null","","html-keyboard-response","137","19283964","0.0-4.0-2.32","","<div style=""font-size:60px;"">+</div>","null","","","","","","",""
"null","","image-keyboard-response","138","19285466","0.0-4.0-0.33","","img/orange.png","null","trial","32","false","0.8,0.2","1:go_a","",""
"null","","html-keyboard-response","139","19286468","0.0-4.0-1.33","","<img src=""img/orange-n.png"">","null","trial","32","","0.8,0.2","1:go_a","0",""
"null","","html-keyboard-response","140","19287470","0.0-4.0-2.33","","<div style=""font-size:60px;"">+</div>","null","","","","","","",""
"616.8600000031292","","image-keyboard-response","141","19288088","0.0-4.0-0.34","","img/orange.png","32","trial","32","true","0.8,0.2","1:go_a","",""
"null","","html-keyboard-response","142","19289091","0.0-4.0-1.34","","<img src=""img/orange-r.png"" border=""10"">","null","trial","32","","0.8,0.2","1:go_a","1",""
"null","","html-keyboard-response","143","19290093","0.0-4.0-2.34","","<div style=""font-size:60px;"">+</div>","null","","","","","","",""
"null","","image-keyboard-response","144","19291594","0.0-4.0-0.35","","img/red.png","null","trial","null","true","0.2,0.8","2:nogo_b","",""
"null","","html-keyboard-response","145","19292596","0.0-4.0-1.35","","<img src=""img/red-r.png"">","null","trial","null","","0.2,0.8","2:nogo_b","1",""
"null","","html-keyboard-response","146","19293598","0.0-4.0-2.35","","<div style=""font-size:60px;"">+</div>","null","","","","","","",""
"675.0300000011921","","image-keyboard-response","147","19294274","0.0-4.0-0.36","","img/orange.png","32","trial","32","true","0.8,0.2","1:go_a","",""
"null","","html-keyboard-response","148","19295276","0.0-4.0-1.36","","<img src=""img/orange-r.png"" border=""10"">","null","trial","32","","0.8,0.2","1:go_a","1",""
"null","","html-keyboard-response","149","19296278","0.0-4.0-2.36","","<div style=""font-size:60px;"">+</div>","null","","","","","","",""
"null","","image-keyboard-response","150","19297779","0.0-4.0-0.37","","img/red.png","null","trial","null","true","0.2,0.8","2:nogo_b","",""
"null","","html-keyboard-response","151","19298781","0.0-4.0-1.37","","<img src=""img/red-r.png"">","null","trial","null","","0.2,0.8","2:nogo_b","1",""
"null","","html-keyboard-response","152","19299783","0.0-4.0-2.37","","<div style=""font-size:60px;"">+</div>","null","","","","","","",""
"30.314999997615814","","image-keyboard-response","153","19299815","0.0-4.0-0.38","","img/orange.png","32","trial","32","true","0.8,0.2","1:go_a","",""
"null","","html-keyboard-response","154","19300817","0.0-4.0-1.38","","<img src=""img/orange-r.png"" border=""10"">","null","trial","32","","0.8,0.2","1:go_a","1",""
"null","","html-keyboard-response","155","19301818","0.0-4.0-2.38","","<div style=""font-size:60px;"">+</div>","null","","","","","","",""
"null","","image-keyboard-response","156","19303319","0.0-4.0-0.39","","img/red.png","null","trial","null","true","0.2,0.8","2:nogo_b","",""
"null","","html-keyboard-response","157","19304321","0.0-4.0-1.39","","<img src=""img/red-r.png"">","null","trial","null","","0.2,0.8","2:nogo_b","1",""
"null","","html-keyboard-response","158","19305323","0.0-4.0-2.39","","<div style=""font-size:60px;"">+</div>","null","","","","","","",""
"null","","image-keyboard-response","159","19306825","0.0-4.0-0.40","","img/red.png","null","trial","null","true","0.2,0.8","2:nogo_b","",""
"null","","html-keyboard-response","160","19307827","0.0-4.0-1.40","","<img src=""img/red-r.png"">","null","trial","null","","0.2,0.8","2:nogo_b","1",""
"null","","html-keyboard-response","161","19308828","0.0-4.0-2.40","","<div style=""font-size:60px;"">+</div>","null","","","","","","",""
"913.1850000061095","","image-keyboard-response","162","19309743","0.0-4.0-0.41","","img/orange.png","32","trial","32","true","0.8,0.2","1:go_a","",""
"null","","html-keyboard-response","163","19310744","0.0-4.0-1.41","","<img src=""img/orange-r.png"" border=""10"">","null","trial","32","","0.8,0.2","1:go_a","1",""
"null","","html-keyboard-response","164","19311745","0.0-4.0-2.41","","<div style=""font-size:60px;"">+</div>","null","","","","","","",""
"1489.6499999947846","","image-keyboard-response","165","19313236","0.0-4.0-0.42","","img/red.png","32","trial","null","false","0.2,0.8","2:nogo_b","",""
"null","","html-keyboard-response","166","19314238","0.0-4.0-1.42","","<img src=""img/red-n.png"" border=""10"">","null","trial","null","","0.2,0.8","2:nogo_b","0",""
"null","","html-keyboard-response","167","19315241","0.0-4.0-2.42","","<div style=""font-size:60px;"">+</div>","null","","","","","","",""
"1227.3000000081956","","image-keyboard-response","168","19316469","0.0-4.0-0.43","","img/orange.png","32","trial","32","true","0.8,0.2","1:go_a","",""
"null","","html-keyboard-response","169","19317471","0.0-4.0-1.43","","<img src=""img/orange-n.png"" border=""10"">","null","trial","32","","0.8,0.2","1:go_a","0",""
"null","","html-keyboard-response","170","19318473","0.0-4.0-2.43","","<div style=""font-size:60px;"">+</div>","null","","","","","","",""
"479.04500000178814","","image-keyboard-response","171","19318953","0.0-4.0-0.44","","img/red.png","32","trial","null","false","0.2,0.8","2:nogo_b","",""
"null","","html-keyboard-response","172","19319955","0.0-4.0-1.44","","<img src=""img/red-n.png"" border=""10"">","null","trial","null","","0.2,0.8","2:nogo_b","0",""
"null","","html-keyboard-response","173","19320956","0.0-4.0-2.44","","<div style=""font-size:60px;"">+</div>","null","","","","","","",""
"1301.5649999976158","","image-keyboard-response","174","19322259","0.0-4.0-0.45","","img/orange.png","32","trial","32","true","0.8,0.2","1:go_a","",""
"null","","html-keyboard-response","175","19323261","0.0-4.0-1.45","","<img src=""img/orange-r.png"" border=""10"">","null","trial","32","","0.8,0.2","1:go_a","1",""
"null","","html-keyboard-response","176","19324263","0.0-4.0-2.45","","<div style=""font-size:60px;"">+</div>","null","","","","","","",""
"837.4499999992549","","image-keyboard-response","177","19325102","0.0-4.0-0.46","","img/orange.png","32","trial","32","true","0.8,0.2","1:go_a","",""
"null","","html-keyboard-response","178","19326104","0.0-4.0-1.46","","<img src=""img/orange-r.png"" border=""10"">","null","trial","32","","0.8,0.2","1:go_a","1",""
"null","","html-keyboard-response","179","19327106","0.0-4.0-2.46","","<div style=""font-size:60px;"">+</div>","null","","","","","","",""
"1105.530000001192","","image-keyboard-response","180","19328212","0.0-4.0-0.47","","img/red.png","32","trial","null","false","0.2,0.8","2:nogo_b","",""
"null","","html-keyboard-response","181","19329214","0.0-4.0-1.47","","<img src=""img/red-n.png"" border=""10"">","null","trial","null","","0.2,0.8","2:nogo_b","0",""
"null","","html-keyboard-response","182","19330216","0.0-4.0-2.47","","<div style=""font-size:60px;"">+</div>","null","","","","","","",""
"null","","image-keyboard-response","183","19331719","0.0-4.0-0.48","","img/orange.png","null","trial","32","false","0.8,0.2","1:go_a","",""
"null","","html-keyboard-response","184","19332720","0.0-4.0-1.48","","<img src=""img/orange-n.png"">","null","trial","32","","0.8,0.2","1:go_a","0",""
"null","","html-keyboard-response","185","19333722","0.0-4.0-2.48","","<div style=""font-size:60px;"">+</div>","null","","","","","","",""
"null","","image-keyboard-response","186","19335224","0.0-4.0-0.49","","img/red.png","null","trial","null","true","0.2,0.8","2:nogo_b","",""
"null","","html-keyboard-response","187","19336225","0.0-4.0-1.49","","<img src=""img/red-r.png"">","null","trial","null","","0.2,0.8","2:nogo_b","1",""
"null","","html-keyboard-response","188","19337227","0.0-4.0-2.49","","<div style=""font-size:60px;"">+</div>","null","","","","","","",""
"150.28499999642372","","image-keyboard-response","189","19337378","0.0-4.0-0.50","","img/red.png","32","trial","null","false","0.2,0.8","2:nogo_b","",""
"null","","html-keyboard-response","190","19338381","0.0-4.0-1.50","","<img src=""img/red-n.png"" border=""10"">","null","trial","null","","0.2,0.8","2:nogo_b","0",""
"null","","html-keyboard-response","191","19339382","0.0-4.0-2.50","","<div style=""font-size:60px;"">+</div>","null","","","","","","",""
"820.910000000149","","image-keyboard-response","192","19340203","0.0-4.0-0.51","","img/orange.png","32","trial","32","true","0.8,0.2","1:go_a","",""
"null","","html-keyboard-response","193","19341206","0.0-4.0-1.51","","<img src=""img/orange-r.png"" border=""10"">","null","trial","32","","0.8,0.2","1:go_a","1",""
"null","","html-keyboard-response","194","19342208","0.0-4.0-2.51","","<div style=""font-size:60px;"">+</div>","null","","","","","","",""
"1263.245000001043","","image-keyboard-response","195","19343472","0.0-4.0-0.52","","img/red.png","32","trial","null","false","0.2,0.8","2:nogo_b","",""
"null","","html-keyboard-response","196","19344474","0.0-4.0-1.52","","<img src=""img/red-n.png"" border=""10"">","null","trial","null","","0.2,0.8","2:nogo_b","0",""
"null","","html-keyboard-response","197","19345476","0.0-4.0-2.52","","<div style=""font-size:60px;"">+</div>","null","","","","","","",""
"1450.9849999956787","","image-keyboard-response","198","19346928","0.0-4.0-0.53","","img/orange.png","32","trial","32","true","0.8,0.2","1:go_a","",""
"null","","html-keyboard-response","199","19347930","0.0-4.0-1.53","","<img src=""img/orange-r.png"" border=""10"">","null","trial","32","","0.8,0.2","1:go_a","1",""
"null","","html-keyboard-response","200","19348931","0.0-4.0-2.53","","<div style=""font-size:60px;"">+</div>","null","","","","","","",""
"1253.3849999979138","","image-keyboard-response","201","19350185","0.0-4.0-0.54","","img/red.png","32","trial","null","false","0.2,0.8","2:nogo_b","",""
"null","","html-keyboard-response","202","19351188","0.0-4.0-1.54","","<img src=""img/red-n.png"" border=""10"">","null","trial","null","","0.2,0.8","2:nogo_b","0",""
"null","","html-keyboard-response","203","19352189","0.0-4.0-2.54","","<div style=""font-size:60px;"">+</div>","null","","","","","","",""
"null","","image-keyboard-response","204","19353690","0.0-4.0-0.55","","img/orange.png","null","trial","32","false","0.8,0.2","1:go_a","",""
"null","","html-keyboard-response","205","19354692","0.0-4.0-1.55","","<img src=""img/orange-n.png"">","null","trial","32","","0.8,0.2","1:go_a","0",""
"null","","html-keyboard-response","206","19355694","0.0-4.0-2.55","","<div style=""font-size:60px;"">+</div>","null","","","","","","",""
"582.0600000023842","","image-keyboard-response","207","19356277","0.0-4.0-0.56","","img/red.png","32","trial","null","false","0.2,0.8","2:nogo_b","",""
"null","","html-keyboard-response","208","19357279","0.0-4.0-1.56","","<img src=""img/red-n.png"" border=""10"">","null","trial","null","","0.2,0.8","2:nogo_b","0",""
"null","","html-keyboard-response","209","19358280","0.0-4.0-2.56","","<div style=""font-size:60px;"">+</div>","null","","","","","","",""
"797.8549999967217","","image-keyboard-response","210","19359079","0.0-4.0-0.57","","img/orange.png","32","trial","32","true","0.8,0.2","1:go_a","",""
"null","","html-keyboard-response","211","19360081","0.0-4.0-1.57","","<img src=""img/orange-r.png"" border=""10"">","null","trial","32","","0.8,0.2","1:go_a","1",""
"null","","html-keyboard-response","212","19361082","0.0-4.0-2.57","","<div style=""font-size:60px;"">+</div>","null","","","","","","",""
"null","","image-keyboard-response","213","19362584","0.0-4.0-0.58","","img/orange.png","null","trial","32","false","0.8,0.2","1:go_a","",""
"null","","html-keyboard-response","214","19363586","0.0-4.0-1.58","","<img src=""img/orange-n.png"">","null","trial","32","","0.8,0.2","1:go_a","0",""
"null","","html-keyboard-response","215","19364588","0.0-4.0-2.58","","<div style=""font-size:60px;"">+</div>","null","","","","","","",""
"657.9550000056624","","image-keyboard-response","216","19365247","0.0-4.0-0.59","","img/red.png","32","trial","null","false","0.2,0.8","2:nogo_b","",""
"null","","html-keyboard-response","217","19366249","0.0-4.0-1.59","","<img src=""img/red-r.png"" border=""10"">","null","trial","null","","0.2,0.8","2:nogo_b","1",""
"null","","html-keyboard-response","218","19367250","0.0-4.0-2.59","","<div style=""font-size:60px;"">+</div>","null","","","","","","",""
"759107.3099999987","","instructions","219","20126359","0.0-5.0","[{""page_index"":0,""viewing_time"":759106.9549999945}]","","","","","","","","",""
"null","","image-keyboard-response","220","20127862","0.0-6.0-0.0","","img/grey.png","null","trial","null","true","0.2,0.8","4:nogo_d","",""
"null","","html-keyboard-response","221","20128864","0.0-6.0-1.0","","<img src=""img/grey-r.png"">","null","trial","null","","0.2,0.8","4:nogo_d","1",""
"null","","html-keyboard-response","222","20129865","0.0-6.0-2.0","","<div style=""font-size:60px;"">+</div>","null","","","","","","",""
"null","","image-keyboard-response","223","20131367","0.0-6.0-0.1","","img/red.png","null","trial","null","true","0.2,0.8","2:nogo_b","",""
"null","","html-keyboard-response","224","20132370","0.0-6.0-1.1","","<img src=""img/red-r.png"">","null","trial","null","","0.2,0.8","2:nogo_b","1",""
"null","","html-keyboard-response","225","20133371","0.0-6.0-2.1","","<div style=""font-size:60px;"">+</div>","null","","","","","","",""
"null","","image-keyboard-response","226","20134874","0.0-6.0-0.2","","img/orange.png","null","trial","32","false","0.8,0.2","3:go_c","",""
"null","","html-keyboard-response","227","20135876","0.0-6.0-1.2","","<img src=""img/orange-n.png"">","null","trial","32","","0.8,0.2","3:go_c","0",""
"null","","html-keyboard-response","228","20136877","0.0-6.0-2.2","","<div style=""font-size:60px;"">+</div>","null","","","","","","",""
"487.6149999983609","","image-keyboard-response","229","20137366","0.0-6.0-0.3","","img/pink.png","32","trial","32","true","0.8,0.2","1:go_a","",""
"null","","html-keyboard-response","230","20138367","0.0-6.0-1.3","","<img src=""img/pink-r.png"" border=""10"">","null","trial","32","","0.8,0.2","1:go_a","1",""
"null","","html-keyboard-response","231","20139369","0.0-6.0-2.3","","<div style=""font-size:60px;"">+</div>","null","","","","","","",""
"514.1999999955297","","image-keyboard-response","232","20139885","0.0-6.0-0.4","","img/red.png","32","trial","null","false","0.2,0.8","2:nogo_b","",""
"null","","html-keyboard-response","233","20140887","0.0-6.0-1.4","","<img src=""img/red-n.png"" border=""10"">","null","trial","null","","0.2,0.8","2:nogo_b","0",""
"null","","html-keyboard-response","234","20141889","0.0-6.0-2.4","","<div style=""font-size:60px;"">+</div>","null","","","","","","",""
"572.9900000020862","","image-keyboard-response","235","20142463","0.0-6.0-0.5","","img/grey.png","32","trial","null","false","0.2,0.8","4:nogo_d","",""
"null","","html-keyboard-response","236","20143465","0.0-6.0-1.5","","<img src=""img/grey-n.png"" border=""10"">","null","trial","null","","0.2,0.8","4:nogo_d","0",""
"null","","html-keyboard-response","237","20144466","0.0-6.0-2.5","","<div style=""font-size:60px;"">+</div>","null","","","","","","",""
"null","","image-keyboard-response","238","20145968","0.0-6.0-0.6","","img/pink.png","null","trial","32","false","0.8,0.2","1:go_a","",""
"null","","html-keyboard-response","239","20146971","0.0-6.0-1.6","","<img src=""img/pink-n.png"">","null","trial","32","","0.8,0.2","1:go_a","0",""
"null","","html-keyboard-response","240","20147972","0.0-6.0-2.6","","<div style=""font-size:60px;"">+</div>","null","","","","","","",""
"null","","image-keyboard-response","241","20149474","0.0-6.0-0.7","","img/orange.png","null","trial","32","false","0.8,0.2","3:go_c","",""
"null","","html-keyboard-response","242","20150478","0.0-6.0-1.7","","<img src=""img/orange-n.png"">","null","trial","32","","0.8,0.2","3:go_c","0",""
"null","","html-keyboard-response","243","20151479","0.0-6.0-2.7","","<div style=""font-size:60px;"">+</div>","null","","","","","","",""
"null","","image-keyboard-response","244","20152982","0.0-6.0-0.8","","img/orange.png","null","trial","32","false","0.8,0.2","3:go_c","",""
"null","","html-keyboard-response","245","20153985","0.0-6.0-1.8","","<img src=""img/orange-n.png"">","null","trial","32","","0.8,0.2","3:go_c","0",""
"null","","html-keyboard-response","246","20154986","0.0-6.0-2.8","","<div style=""font-size:60px;"">+</div>","null","","","","","","",""
"1016.3350000008941","","image-keyboard-response","247","20156004","0.0-6.0-0.9","","img/pink.png","32","trial","32","true","0.8,0.2","1:go_a","",""
"null","","html-keyboard-response","248","20157006","0.0-6.0-1.9","","<img src=""img/pink-r.png"" border=""10"">","null","trial","32","","0.8,0.2","1:go_a","1",""
"null","","html-keyboard-response","249","20158008","0.0-6.0-2.9","","<div style=""font-size:60px;"">+</div>","null","","","","","","",""
"null","","image-keyboard-response","250","20159509","0.0-6.0-0.10","","img/grey.png","null","trial","null","true","0.2,0.8","4:nogo_d","",""
"null","","html-keyboard-response","251","20160512","0.0-6.0-1.10","","<img src=""img/grey-r.png"">","null","trial","null","","0.2,0.8","4:nogo_d","1",""
"null","","html-keyboard-response","252","20161518","0.0-6.0-2.10","","<div style=""font-size:60px;"">+</div>","null","","","","","","",""
"null","","image-keyboard-response","253","20163020","0.0-6.0-0.11","","img/red.png","null","trial","null","true","0.2,0.8","2:nogo_b","",""
"null","","html-keyboard-response","254","20164022","0.0-6.0-1.11","","<img src=""img/red-r.png"">","null","trial","null","","0.2,0.8","2:nogo_b","1",""
"null","","html-keyboard-response","255","20165023","0.0-6.0-2.11","","<div style=""font-size:60px;"">+</div>","null","","","","","","",""
"492.6899999976158","","image-keyboard-response","256","20165517","0.0-6.0-0.12","","img/pink.png","32","trial","32","true","0.8,0.2","1:go_a","",""
"null","","html-keyboard-response","257","20166519","0.0-6.0-1.12","","<img src=""img/pink-r.png"" border=""10"">","null","trial","32","","0.8,0.2","1:go_a","1",""
"null","","html-keyboard-response","258","20167521","0.0-6.0-2.12","","<div style=""font-size:60px;"">+</div>","null","","","","","","",""
"601.1050000041723","","image-keyboard-response","259","20168123","0.0-6.0-0.13","","img/red.png","32","trial","null","false","0.2,0.8","2:nogo_b","",""
"null","","html-keyboard-response","260","20169126","0.0-6.0-1.13","","<img src=""img/red-r.png"" border=""10"">","null","trial","null","","0.2,0.8","2:nogo_b","1",""
"null","","html-keyboard-response","261","20170127","0.0-6.0-2.13","","<div style=""font-size:60px;"">+</div>","null","","","","","","",""
"588.2749999947846","","image-keyboard-response","262","20170716","0.0-6.0-0.14","","img/grey.png","32","trial","null","false","0.2,0.8","4:nogo_d","",""
"null","","html-keyboard-response","263","20171718","0.0-6.0-1.14","","<img src=""img/grey-n.png"" border=""10"">","null","trial","null","","0.2,0.8","4:nogo_d","0",""
"null","","html-keyboard-response","264","20172720","0.0-6.0-2.14","","<div style=""font-size:60px;"">+</div>","null","","","","","","",""
"881.1500000022352","","image-keyboard-response","265","20173602","0.0-6.0-0.15","","img/orange.png","32","trial","32","true","0.8,0.2","3:go_c","",""
"null","","html-keyboard-response","266","20174604","0.0-6.0-1.15","","<img src=""img/orange-n.png"" border=""10"">","null","trial","32","","0.8,0.2","3:go_c","0",""
"null","","html-keyboard-response","267","20175606","0.0-6.0-2.15","","<div style=""font-size:60px;"">+</div>","null","","","","","","",""
"772.3799999989569","","image-keyboard-response","268","20176379","0.0-6.0-0.16","","img/pink.png","32","trial","32","true","0.8,0.2","1:go_a","",""
"null","","html-keyboard-response","269","20177383","0.0-6.0-1.16","","<img src=""img/pink-n.png"" border=""10"">","null","trial","32","","0.8,0.2","1:go_a","0",""
"null","","html-keyboard-response","270","20178386","0.0-6.0-2.16","","<div style=""font-size:60px;"">+</div>","null","","","","","","",""
"null","","image-keyboard-response","271","20179887","0.0-6.0-0.17","","img/orange.png","null","trial","32","false","0.8,0.2","3:go_c","",""
"null","","html-keyboard-response","272","20180889","0.0-6.0-1.17","","<img src=""img/orange-n.png"">","null","trial","32","","0.8,0.2","3:go_c","0",""
"null","","html-keyboard-response","273","20181890","0.0-6.0-2.17","","<div style=""font-size:60px;"">+</div>","null","","","","","","",""
"null","","image-keyboard-response","274","20183392","0.0-6.0-0.18","","img/grey.png","null","trial","null","true","0.2,0.8","4:nogo_d","",""
"null","","html-keyboard-response","275","20184394","0.0-6.0-1.18","","<img src=""img/grey-r.png"">","null","trial","null","","0.2,0.8","4:nogo_d","1",""
"null","","html-keyboard-response","276","20185395","0.0-6.0-2.18","","<div style=""font-size:60px;"">+</div>","null","","","","","","",""
"519.7899999991059","","image-keyboard-response","277","20185916","0.0-6.0-0.19","","img/red.png","32","trial","null","false","0.2,0.8","2:nogo_b","",""
"null","","html-keyboard-response","278","20186918","0.0-6.0-1.19","","<img src=""img/red-n.png"" border=""10"">","null","trial","null","","0.2,0.8","2:nogo_b","0",""
"null","","html-keyboard-response","279","20187920","0.0-6.0-2.19","","<div style=""font-size:60px;"">+</div>","null","","","","","","",""
"536.3649999983609","","image-keyboard-response","280","20188457","0.0-6.0-0.20","","img/grey.png","32","trial","null","false","0.2,0.8","4:nogo_d","",""
"null","","html-keyboard-response","281","20189458","0.0-6.0-1.20","","<img src=""img/grey-n.png"" border=""10"">","null","trial","null","","0.2,0.8","4:nogo_d","0",""
"null","","html-keyboard-response","282","20190460","0.0-6.0-2.20","","<div style=""font-size:60px;"">+</div>","null","","","","","","",""
"973.0950000025332","","image-keyboard-response","283","20191434","0.0-6.0-0.21","","img/orange.png","32","trial","32","true","0.8,0.2","3:go_c","",""
"null","","html-keyboard-response","284","20192436","0.0-6.0-1.21","","<img src=""img/orange-r.png"" border=""10"">","null","trial","32","","0.8,0.2","3:go_c","1",""
"null","","html-keyboard-response","285","20193437","0.0-6.0-2.21","","<div style=""font-size:60px;"">+</div>","null","","","","","","",""
"null","","image-keyboard-response","286","20194939","0.0-6.0-0.22","","img/red.png","null","trial","null","true","0.2,0.8","2:nogo_b","",""
"null","","html-keyboard-response","287","20195941","0.0-6.0-1.22","","<img src=""img/red-n.png"">","null","trial","null","","0.2,0.8","2:nogo_b","0",""
"null","","html-keyboard-response","288","20196942","0.0-6.0-2.22","","<div style=""font-size:60px;"">+</div>","null","","","","","","",""
"506.7399999946356","","image-keyboard-response","289","20197450","0.0-6.0-0.23","","img/pink.png","32","trial","32","true","0.8,0.2","1:go_a","",""
"null","","html-keyboard-response","290","20198452","0.0-6.0-1.23","","<img src=""img/pink-r.png"" border=""10"">","null","trial","32","","0.8,0.2","1:go_a","1",""
"null","","html-keyboard-response","291","20199454","0.0-6.0-2.23","","<div style=""font-size:60px;"">+</div>","null","","","","","","",""
"null","","image-keyboard-response","292","20200956","0.0-6.0-0.24","","img/red.png","null","trial","null","true","0.2,0.8","2:nogo_b","",""
"null","","html-keyboard-response","293","20201958","0.0-6.0-1.24","","<img src=""img/red-r.png"">","null","trial","null","","0.2,0.8","2:nogo_b","1",""
"null","","html-keyboard-response","294","20202959","0.0-6.0-2.24","","<div style=""font-size:60px;"">+</div>","null","","","","","","",""
"null","","image-keyboard-response","295","20204461","0.0-6.0-0.25","","img/orange.png","null","trial","32","false","0.8,0.2","3:go_c","",""
"null","","html-keyboard-response","296","20205462","0.0-6.0-1.25","","<img src=""img/orange-r.png"">","null","trial","32","","0.8,0.2","3:go_c","1",""
"null","","html-keyboard-response","297","20206465","0.0-6.0-2.25","","<div style=""font-size:60px;"">+</div>","null","","","","","","",""
"null","","image-keyboard-response","298","20207967","0.0-6.0-0.26","","img/pink.png","null","trial","32","false","0.8,0.2","1:go_a","",""
"null","","html-keyboard-response","299","20208969","0.0-6.0-1.26","","<img src=""img/pink-n.png"">","null","trial","32","","0.8,0.2","1:go_a","0",""
"null","","html-keyboard-response","300","20209970","0.0-6.0-2.26","","<div style=""font-size:60px;"">+</div>","null","","","","","","",""
"null","","image-keyboard-response","301","20211472","0.0-6.0-0.27","","img/grey.png","null","trial","null","true","0.2,0.8","4:nogo_d","",""
"null","","html-keyboard-response","302","20212474","0.0-6.0-1.27","","<img src=""img/grey-r.png"">","null","trial","null","","0.2,0.8","4:nogo_d","1",""
"null","","html-keyboard-response","303","20213475","0.0-6.0-2.27","","<div style=""font-size:60px;"">+</div>","null","","","","","","",""
"null","","image-keyboard-response","304","20214977","0.0-6.0-0.28","","img/red.png","null","trial","null","true","0.2,0.8","2:nogo_b","",""
"null","","html-keyboard-response","305","20215979","0.0-6.0-1.28","","<img src=""img/red-n.png"">","null","trial","null","","0.2,0.8","2:nogo_b","0",""
"null","","html-keyboard-response","306","20216982","0.0-6.0-2.28","","<div style=""font-size:60px;"">+</div>","null","","","","","","",""
"465.64000000059605","","image-keyboard-response","307","20217449","0.0-6.0-0.29","","img/orange.png","32","trial","32","true","0.8,0.2","3:go_c","",""
"null","","html-keyboard-response","308","20218451","0.0-6.0-1.29","","<img src=""img/orange-r.png"" border=""10"">","null","trial","32","","0.8,0.2","3:go_c","1",""
"null","","html-keyboard-response","309","20219452","0.0-6.0-2.29","","<div style=""font-size:60px;"">+</div>","null","","","","","","",""
"null","","image-keyboard-response","310","20220955","0.0-6.0-0.30","","img/grey.png","null","trial","null","true","0.2,0.8","4:nogo_d","",""
"null","","html-keyboard-response","311","20221956","0.0-6.0-1.30","","<img src=""img/grey-r.png"">","null","trial","null","","0.2,0.8","4:nogo_d","1",""
"null","","html-keyboard-response","312","20222958","0.0-6.0-2.30","","<div style=""font-size:60px;"">+</div>","null","","","","","","",""
"null","","image-keyboard-response","313","20224460","0.0-6.0-0.31","","img/pink.png","null","trial","32","false","0.8,0.2","1:go_a","",""
"null","","html-keyboard-response","314","20225461","0.0-6.0-1.31","","<img src=""img/pink-n.png"">","null","trial","32","","0.8,0.2","1:go_a","0",""
"null","","html-keyboard-response","315","20226463","0.0-6.0-2.31","","<div style=""font-size:60px;"">+</div>","null","","","","","","",""
"null","","image-keyboard-response","316","20227965","0.0-6.0-0.32","","img/orange.png","null","trial","32","false","0.8,0.2","3:go_c","",""
"null","","html-keyboard-response","317","20228968","0.0-6.0-1.32","","<img src=""img/orange-n.png"">","null","trial","32","","0.8,0.2","3:go_c","0",""
"null","","html-keyboard-response","318","20229969","0.0-6.0-2.32","","<div style=""font-size:60px;"">+</div>","null","","","","","","",""
"null","","image-keyboard-response","319","20231471","0.0-6.0-0.33","","img/pink.png","null","trial","32","false","0.8,0.2","1:go_a","",""
"null","","html-keyboard-response","320","20232473","0.0-6.0-1.33","","<img src=""img/pink-r.png"">","null","trial","32","","0.8,0.2","1:go_a","1",""
"null","","html-keyboard-response","321","20233475","0.0-6.0-2.33","","<div style=""font-size:60px;"">+</div>","null","","","","","","",""
"null","","image-keyboard-response","322","20234977","0.0-6.0-0.34","","img/grey.png","null","trial","null","true","0.2,0.8","4:nogo_d","",""
"null","","html-keyboard-response","323","20235979","0.0-6.0-1.34","","<img src=""img/grey-n.png"">","null","trial","null","","0.2,0.8","4:nogo_d","0",""
"null","","html-keyboard-response","324","20236980","0.0-6.0-2.34","","<div style=""font-size:60px;"">+</div>","null","","","","","","",""
"null","","image-keyboard-response","325","20238482","0.0-6.0-0.35","","img/red.png","null","trial","null","true","0.2,0.8","2:nogo_b","",""
"null","","html-keyboard-response","326","20239485","0.0-6.0-1.35","","<img src=""img/red-r.png"">","null","trial","null","","0.2,0.8","2:nogo_b","1",""
"null","","html-keyboard-response","327","20240487","0.0-6.0-2.35","","<div style=""font-size:60px;"">+</div>","null","","","","","","",""
"809.4349999949336","","image-keyboard-response","328","20241297","0.0-6.0-0.36","","img/pink.png","32","trial","32","true","0.8,0.2","1:go_a","",""
"null","","html-keyboard-response","329","20242300","0.0-6.0-1.36","","<img src=""img/pink-n.png"" border=""10"">","null","trial","32","","0.8,0.2","1:go_a","0",""
"null","","html-keyboard-response","330","20243302","0.0-6.0-2.36","","<div style=""font-size:60px;"">+</div>","null","","","","","","",""
"882.5699999928474","","image-keyboard-response","331","20244185","0.0-6.0-0.37","","img/red.png","32","trial","null","false","0.2,0.8","2:nogo_b","",""
"null","","html-keyboard-response","332","20245187","0.0-6.0-1.37","","<img src=""img/red-r.png"" border=""10"">","null","trial","null","","0.2,0.8","2:nogo_b","1",""
"null","","html-keyboard-response","333","20246189","0.0-6.0-2.37","","<div style=""font-size:60px;"">+</div>","null","","","","","","",""
"null","","image-keyboard-response","334","20247691","0.0-6.0-0.38","","img/orange.png","null","trial","32","false","0.8,0.2","3:go_c","",""
"null","","html-keyboard-response","335","20248693","0.0-6.0-1.38","","<img src=""img/orange-n.png"">","null","trial","32","","0.8,0.2","3:go_c","0",""
"null","","html-keyboard-response","336","20249694","0.0-6.0-2.38","","<div style=""font-size:60px;"">+</div>","null","","","","","","",""
"481.070000000298","","image-keyboard-response","337","20250176","0.0-6.0-0.39","","img/grey.png","32","trial","null","false","0.2,0.8","4:nogo_d","",""
"null","","html-keyboard-response","338","20251178","0.0-6.0-1.39","","<img src=""img/grey-n.png"" border=""10"">","null","trial","null","","0.2,0.8","4:nogo_d","0",""
"null","","html-keyboard-response","339","20252181","0.0-6.0-2.39","","<div style=""font-size:60px;"">+</div>","null","","","","","","",""
"null","","image-keyboard-response","340","20253684","0.0-6.0-0.40","","img/orange.png","null","trial","32","false","0.8,0.2","3:go_c","",""
"null","","html-keyboard-response","341","20254686","0.0-6.0-1.40","","<img src=""img/orange-n.png"">","null","trial","32","","0.8,0.2","3:go_c","0",""
"null","","html-keyboard-response","342","20255687","0.0-6.0-2.40","","<div style=""font-size:60px;"">+</div>","null","","","","","","",""
"882","","image-keyboard-response","343","20256570","0.0-6.0-0.41","","img/grey.png","32","trial","null","false","0.2,0.8","4:nogo_d","",""
"null","","html-keyboard-response","344","20257572","0.0-6.0-1.41","","<img src=""img/grey-r.png"" border=""10"">","null","trial","null","","0.2,0.8","4:nogo_d","1",""
"null","","html-keyboard-response","345","20258574","0.0-6.0-2.41","","<div style=""font-size:60px;"">+</div>","null","","","","","","",""
"null","","image-keyboard-response","346","20260075","0.0-6.0-0.42","","img/pink.png","null","trial","32","false","0.8,0.2","1:go_a","",""
"null","","html-keyboard-response","347","20261077","0.0-6.0-1.42","","<img src=""img/pink-r.png"">","null","trial","32","","0.8,0.2","1:go_a","1",""
"null","","html-keyboard-response","348","20262079","0.0-6.0-2.42","","<div style=""font-size:60px;"">+</div>","null","","","","","","",""
"834.7999999970198","","image-keyboard-response","349","20262914","0.0-6.0-0.43","","img/red.png","32","trial","null","false","0.2,0.8","2:nogo_b","",""
"null","","html-keyboard-response","350","20263917","0.0-6.0-1.43","","<img src=""img/red-n.png"" border=""10"">","null","trial","null","","0.2,0.8","2:nogo_b","0",""
"null","","html-keyboard-response","351","20264919","0.0-6.0-2.43","","<div style=""font-size:60px;"">+</div>","null","","","","","","",""
"null","","image-keyboard-response","352","20266421","0.0-6.0-0.44","","img/orange.png","null","trial","32","false","0.8,0.2","3:go_c","",""
"null","","html-keyboard-response","353","20267424","0.0-6.0-1.44","","<img src=""img/orange-n.png"">","null","trial","32","","0.8,0.2","3:go_c","0",""
"null","","html-keyboard-response","354","20268425","0.0-6.0-2.44","","<div style=""font-size:60px;"">+</div>","null","","","","","","",""
"898.7400000020862","","image-keyboard-response","355","20269325","0.0-6.0-0.45","","img/red.png","32","trial","null","false","0.2,0.8","2:nogo_b","",""
"null","","html-keyboard-response","356","20270327","0.0-6.0-1.45","","<img src=""img/red-r.png"" border=""10"">","null","trial","null","","0.2,0.8","2:nogo_b","1",""
"null","","html-keyboard-response","357","20271328","0.0-6.0-2.45","","<div style=""font-size:60px;"">+</div>","null","","","","","","",""
"1176.5799999982119","","image-keyboard-response","358","20272506","0.0-6.0-0.46","","img/grey.png","32","trial","null","false","0.2,0.8","4:nogo_d","",""
"null","","html-keyboard-response","359","20273508","0.0-6.0-1.46","","<img src=""img/grey-r.png"" border=""10"">","null","trial","null","","0.2,0.8","4:nogo_d","1",""
"null","","html-keyboard-response","360","20274510","0.0-6.0-2.46","","<div style=""font-size:60px;"">+</div>","null","","","","","","",""
"1382.0249999985099","","image-keyboard-response","361","20275893","0.0-6.0-0.47","","img/pink.png","32","trial","32","true","0.8,0.2","1:go_a","",""
"null","","html-keyboard-response","362","20276895","0.0-6.0-1.47","","<img src=""img/pink-r.png"" border=""10"">","null","trial","32","","0.8,0.2","1:go_a","1",""
"null","","html-keyboard-response","363","20277897","0.0-6.0-2.47","","<div style=""font-size:60px;"">+</div>","null","","","","","","",""
"591.9300000034273","","image-keyboard-response","364","20278490","0.0-6.0-0.48","","img/orange.png","32","trial","32","true","0.8,0.2","3:go_c","",""
"null","","html-keyboard-response","365","20279493","0.0-6.0-1.48","","<img src=""img/orange-n.png"" border=""10"">","null","trial","32","","0.8,0.2","3:go_c","0",""
"null","","html-keyboard-response","366","20280495","0.0-6.0-2.48","","<div style=""font-size:60px;"">+</div>","null","","","","","","",""
"null","","image-keyboard-response","367","20281996","0.0-6.0-0.49","","img/red.png","null","trial","null","true","0.2,0.8","2:nogo_b","",""
"null","","html-keyboard-response","368","20282998","0.0-6.0-1.49","","<img src=""img/red-r.png"">","null","trial","null","","0.2,0.8","2:nogo_b","1",""
"null","","html-keyboard-response","369","20284000","0.0-6.0-2.49","","<div style=""font-size:60px;"">+</div>","null","","","","","","",""
"null","","image-keyboard-response","370","20285503","0.0-6.0-0.50","","img/grey.png","null","trial","null","true","0.2,0.8","4:nogo_d","",""
"null","","html-keyboard-response","371","20286505","0.0-6.0-1.50","","<img src=""img/grey-r.png"">","null","trial","null","","0.2,0.8","4:nogo_d","1",""
"null","","html-keyboard-response","372","20287507","0.0-6.0-2.50","","<div style=""font-size:60px;"">+</div>","null","","","","","","",""
"null","","image-keyboard-response","373","20289010","0.0-6.0-0.51","","img/pink.png","null","trial","32","false","0.8,0.2","1:go_a","",""
"null","","html-keyboard-response","374","20290012","0.0-6.0-1.51","","<img src=""img/pink-r.png"">","null","trial","32","","0.8,0.2","1:go_a","1",""
"null","","html-keyboard-response","375","20291013","0.0-6.0-2.51","","<div style=""font-size:60px;"">+</div>","null","","","","","","",""
"1024.1650000028312","","image-keyboard-response","376","20292038","0.0-6.0-0.52","","img/pink.png","32","trial","32","true","0.8,0.2","1:go_a","",""
"null","","html-keyboard-response","377","20293040","0.0-6.0-1.52","","<img src=""img/pink-r.png"" border=""10"">","null","trial","32","","0.8,0.2","1:go_a","1",""
"null","","html-keyboard-response","378","20294041","0.0-6.0-2.52","","<div style=""font-size:60px;"">+</div>","null","","","","","","",""
"null","","image-keyboard-response","379","20295543","0.0-6.0-0.53","","img/grey.png","null","trial","null","true","0.2,0.8","4:nogo_d","",""
"null","","html-keyboard-response","380","20296545","0.0-6.0-1.53","","<img src=""img/grey-r.png"">","null","trial","null","","0.2,0.8","4:nogo_d","1",""
"null","","html-keyboard-response","381","20297547","0.0-6.0-2.53","","<div style=""font-size:60px;"">+</div>","null","","","","","","",""
"651.3100000023842","","image-keyboard-response","382","20298199","0.0-6.0-0.54","","img/red.png","32","trial","null","false","0.2,0.8","2:nogo_b","",""
"null","","html-keyboard-response","383","20299201","0.0-6.0-1.54","","<img src=""img/red-n.png"" border=""10"">","null","trial","null","","0.2,0.8","2:nogo_b","0",""
"null","","html-keyboard-response","384","20300203","0.0-6.0-2.54","","<div style=""font-size:60px;"">+</div>","null","","","","","","",""
"null","","image-keyboard-response","385","20301705","0.0-6.0-0.55","","img/orange.png","null","trial","32","false","0.8,0.2","3:go_c","",""
"null","","html-keyboard-response","386","20302708","0.0-6.0-1.55","","<img src=""img/orange-n.png"">","null","trial","32","","0.8,0.2","3:go_c","0",""
"null","","html-keyboard-response","387","20303709","0.0-6.0-2.55","","<div style=""font-size:60px;"">+</div>","null","","","","","","",""
"null","","image-keyboard-response","388","20305211","0.0-6.0-0.56","","img/grey.png","null","trial","null","true","0.2,0.8","4:nogo_d","",""
"null","","html-keyboard-response","389","20306213","0.0-6.0-1.56","","<img src=""img/grey-r.png"">","null","trial","null","","0.2,0.8","4:nogo_d","1",""
"null","","html-keyboard-response","390","20307214","0.0-6.0-2.56","","<div style=""font-size:60px;"">+</div>","null","","","","","","",""
"null","","image-keyboard-response","391","20308716","0.0-6.0-0.57","","img/orange.png","null","trial","32","false","0.8,0.2","3:go_c","",""
"null","","html-keyboard-response","392","20309720","0.0-6.0-1.57","","<img src=""img/orange-n.png"">","null","trial","32","","0.8,0.2","3:go_c","0",""
"null","","html-keyboard-response","393","20310722","0.0-6.0-2.57","","<div style=""font-size:60px;"">+</div>","null","","","","","","",""
"null","","image-keyboard-response","394","20312225","0.0-6.0-0.58","","img/red.png","null","trial","null","true","0.2,0.8","2:nogo_b","",""
"null","","html-keyboard-response","395","20313226","0.0-6.0-1.58","","<img src=""img/red-r.png"">","null","trial","null","","0.2,0.8","2:nogo_b","1",""
"null","","html-keyboard-response","396","20314228","0.0-6.0-2.58","","<div style=""font-size:60px;"">+</div>","null","","","","","","",""
"594.4349999986589","","image-keyboard-response","397","20314823","0.0-6.0-0.59","","img/pink.png","32","trial","32","true","0.8,0.2","1:go_a","",""
"null","","html-keyboard-response","398","20315826","0.0-6.0-1.59","","<img src=""img/pink-n.png"" border=""10"">","null","trial","32","","0.8,0.2","1:go_a","0",""
"null","","html-keyboard-response","399","20316828","0.0-6.0-2.59","","<div style=""font-size:60px;"">+</div>","null","","","","","","",""
"null","","image-keyboard-response","400","20318330","0.0-6.0-0.60","","img/orange.png","null","trial","32","false","0.8,0.2","3:go_c","",""
"null","","html-keyboard-response","401","20319333","0.0-6.0-1.60","","<img src=""img/orange-n.png"">","null","trial","32","","0.8,0.2","3:go_c","0",""
"null","","html-keyboard-response","402","20320334","0.0-6.0-2.60","","<div style=""font-size:60px;"">+</div>","null","","","","","","",""
"null","","image-keyboard-response","403","20321835","0.0-6.0-0.61","","img/grey.png","null","trial","null","true","0.2,0.8","4:nogo_d","",""
"null","","html-keyboard-response","404","20322838","0.0-6.0-1.61","","<img src=""img/grey-n.png"">","null","trial","null","","0.2,0.8","4:nogo_d","0",""
"null","","html-keyboard-response","405","20323839","0.0-6.0-2.61","","<div style=""font-size:60px;"">+</div>","null","","","","","","",""
"null","","image-keyboard-response","406","20325340","0.0-6.0-0.62","","img/pink.png","null","trial","32","false","0.8,0.2","1:go_a","",""
"null","","html-keyboard-response","407","20326343","0.0-6.0-1.62","","<img src=""img/pink-n.png"">","null","trial","32","","0.8,0.2","1:go_a","0",""
"null","","html-keyboard-response","408","20327345","0.0-6.0-2.62","","<div style=""font-size:60px;"">+</div>","null","","","","","","",""
"481.0650000013411","","image-keyboard-response","409","20327827","0.0-6.0-0.63","","img/red.png","32","trial","null","false","0.2,0.8","2:nogo_b","",""
"null","","html-keyboard-response","410","20328829","0.0-6.0-1.63","","<img src=""img/red-n.png"" border=""10"">","null","trial","null","","0.2,0.8","2:nogo_b","0",""
"null","","html-keyboard-response","411","20329833","0.0-6.0-2.63","","<div style=""font-size:60px;"">+</div>","null","","","","","","",""
"null","","image-keyboard-response","412","20331336","0.0-6.0-0.64","","img/grey.png","null","trial","null","true","0.2,0.8","4:nogo_d","",""
"null","","html-keyboard-response","413","20332338","0.0-6.0-1.64","","<img src=""img/grey-n.png"">","null","trial","null","","0.2,0.8","4:nogo_d","0",""
"null","","html-keyboard-response","414","20333340","0.0-6.0-2.64","","<div style=""font-size:60px;"">+</div>","null","","","","","","",""
"1070.6100000031292","","image-keyboard-response","415","20334411","0.0-6.0-0.65","","img/orange.png","32","trial","32","true","0.8,0.2","3:go_c","",""
"null","","html-keyboard-response","416","20335414","0.0-6.0-1.65","","<img src=""img/orange-r.png"" border=""10"">","null","trial","32","","0.8,0.2","3:go_c","1",""
"null","","html-keyboard-response","417","20336416","0.0-6.0-2.65","","<div style=""font-size:60px;"">+</div>","null","","","","","","",""
"null","","image-keyboard-response","418","20337918","0.0-6.0-0.66","","img/pink.png","null","trial","32","false","0.8,0.2","1:go_a","",""
"null","","html-keyboard-response","419","20338922","0.0-6.0-1.66","","<img src=""img/pink-n.png"">","null","trial","32","","0.8,0.2","1:go_a","0",""
"null","","html-keyboard-response","420","20339925","0.0-6.0-2.66","","<div style=""font-size:60px;"">+</div>","null","","","","","","",""
"null","","image-keyboard-response","421","20341426","0.0-6.0-0.67","","img/red.png","null","trial","null","true","0.2,0.8","2:nogo_b","",""
"null","","html-keyboard-response","422","20342429","0.0-6.0-1.67","","<img src=""img/red-r.png"">","null","trial","null","","0.2,0.8","2:nogo_b","1",""
"null","","html-keyboard-response","423","20343431","0.0-6.0-2.67","","<div style=""font-size:60px;"">+</div>","null","","","","","","",""
"null","","image-keyboard-response","424","20344932","0.0-6.0-0.68","","img/pink.png","null","trial","32","false","0.8,0.2","1:go_a","",""
"null","","html-keyboard-response","425","20345935","0.0-6.0-1.68","","<img src=""img/pink-n.png"">","null","trial","32","","0.8,0.2","1:go_a","0",""
"null","","html-keyboard-response","426","20346937","0.0-6.0-2.68","","<div style=""font-size:60px;"">+</div>","null","","","","","","",""
"null","","image-keyboard-response","427","20348439","0.0-6.0-0.69","","img/orange.png","null","trial","32","false","0.8,0.2","3:go_c","",""
"null","","html-keyboard-response","428","20349441","0.0-6.0-1.69","","<img src=""img/orange-n.png"">","null","trial","32","","0.8,0.2","3:go_c","0",""
"null","","html-keyboard-response","429","20350443","0.0-6.0-2.69","","<div style=""font-size:60px;"">+</div>","null","","","","","","",""
"null","","image-keyboard-response","430","20351944","0.0-6.0-0.70","","img/red.png","null","trial","null","true","0.2,0.8","2:nogo_b","",""
"null","","html-keyboard-response","431","20352946","0.0-6.0-1.70","","<img src=""img/red-n.png"">","null","trial","null","","0.2,0.8","2:nogo_b","0",""
"null","","html-keyboard-response","432","20353947","0.0-6.0-2.70","","<div style=""font-size:60px;"">+</div>","null","","","","","","",""
"null","","image-keyboard-response","433","20355449","0.0-6.0-0.71","","img/grey.png","null","trial","null","true","0.2,0.8","4:nogo_d","",""
"null","","html-keyboard-response","434","20356452","0.0-6.0-1.71","","<img src=""img/grey-r.png"">","null","trial","null","","0.2,0.8","4:nogo_d","1",""
"null","","html-keyboard-response","435","20357454","0.0-6.0-2.71","","<div style=""font-size:60px;"">+</div>","null","","","","","","",""
"null","","image-keyboard-response","436","20358957","0.0-6.0-0.72","","img/red.png","null","trial","null","true","0.2,0.8","2:nogo_b","",""
"null","","html-keyboard-response","437","20359959","0.0-6.0-1.72","","<img src=""img/red-n.png"">","null","trial","null","","0.2,0.8","2:nogo_b","0",""
"null","","html-keyboard-response","438","20360961","0.0-6.0-2.72","","<div style=""font-size:60px;"">+</div>","null","","","","","","",""
"1311.2400000020862","","image-keyboard-response","439","20362273","0.0-6.0-0.73","","img/grey.png","32","trial","null","false","0.2,0.8","4:nogo_d","",""
"null","","html-keyboard-response","440","20363275","0.0-6.0-1.73","","<img src=""img/grey-n.png"" border=""10"">","null","trial","null","","0.2,0.8","4:nogo_d","0",""
"null","","html-keyboard-response","441","20364277","0.0-6.0-2.73","","<div style=""font-size:60px;"">+</div>","null","","","","","","",""
"null","","image-keyboard-response","442","20365779","0.0-6.0-0.74","","img/orange.png","null","trial","32","false","0.8,0.2","3:go_c","",""
"null","","html-keyboard-response","443","20366782","0.0-6.0-1.74","","<img src=""img/orange-n.png"">","null","trial","32","","0.8,0.2","3:go_c","0",""
"null","","html-keyboard-response","444","20367784","0.0-6.0-2.74","","<div style=""font-size:60px;"">+</div>","null","","","","","","",""
"null","","image-keyboard-response","445","20369285","0.0-6.0-0.75","","img/pink.png","null","trial","32","false","0.8,0.2","1:go_a","",""
"null","","html-keyboard-response","446","20370288","0.0-6.0-1.75","","<img src=""img/pink-n.png"">","null","trial","32","","0.8,0.2","1:go_a","0",""
"null","","html-keyboard-response","447","20371289","0.0-6.0-2.75","","<div style=""font-size:60px;"">+</div>","null","","","","","","",""
"1014.4800000041723","","image-keyboard-response","448","20372305","0.0-6.0-0.76","","img/pink.png","32","trial","32","true","0.8,0.2","1:go_a","",""
"null","","html-keyboard-response","449","20373307","0.0-6.0-1.76","","<img src=""img/pink-r.png"" border=""10"">","null","trial","32","","0.8,0.2","1:go_a","1",""
"null","","html-keyboard-response","450","20374308","0.0-6.0-2.76","","<div style=""font-size:60px;"">+</div>","null","","","","","","",""
"null","","image-keyboard-response","451","20375809","0.0-6.0-0.77","","img/orange.png","null","trial","32","false","0.8,0.2","3:go_c","",""
"null","","html-keyboard-response","452","20376811","0.0-6.0-1.77","","<img src=""img/orange-r.png"">","null","trial","32","","0.8,0.2","3:go_c","1",""
"null","","html-keyboard-response","453","20377813","0.0-6.0-2.77","","<div style=""font-size:60px;"">+</div>","null","","","","","","",""
"null","","image-keyboard-response","454","20379314","0.0-6.0-0.78","","img/grey.png","null","trial","null","true","0.2,0.8","4:nogo_d","",""
"null","","html-keyboard-response","455","20380316","0.0-6.0-1.78","","<img src=""img/grey-r.png"">","null","trial","null","","0.2,0.8","4:nogo_d","1",""
"null","","html-keyboard-response","456","20381317","0.0-6.0-2.78","","<div style=""font-size:60px;"">+</div>","null","","","","","","",""
"1068.5999999977648","","image-keyboard-response","457","20382387","0.0-6.0-0.79","","img/red.png","32","trial","null","false","0.2,0.8","2:nogo_b","",""
"null","","html-keyboard-response","458","20383390","0.0-6.0-1.79","","<img src=""img/red-n.png"" border=""10"">","null","trial","null","","0.2,0.8","2:nogo_b","0",""
"null","","html-keyboard-response","459","20384391","0.0-6.0-2.79","","<div style=""font-size:60px;"">+</div>","null","","","","","","",""
"957.8100000023842","","image-keyboard-response","460","20385350","0.0-6.0-0.80","","img/grey.png","32","trial","null","false","0.2,0.8","4:nogo_d","",""
"null","","html-keyboard-response","461","20386352","0.0-6.0-1.80","","<img src=""img/grey-n.png"" border=""10"">","null","trial","null","","0.2,0.8","4:nogo_d","0",""
"null","","html-keyboard-response","462","20387355","0.0-6.0-2.80","","<div style=""font-size:60px;"">+</div>","null","","","","","","",""
"null","","image-keyboard-response","463","20388858","0.0-6.0-0.81","","img/orange.png","null","trial","32","false","0.8,0.2","3:go_c","",""
"null","","html-keyboard-response","464","20389861","0.0-6.0-1.81","","<img src=""img/orange-r.png"">","null","trial","32","","0.8,0.2","3:go_c","1",""
"null","","html-keyboard-response","465","20390862","0.0-6.0-2.81","","<div style=""font-size:60px;"">+</div>","null","","","","","","",""
"null","","image-keyboard-response","466","20392364","0.0-6.0-0.82","","img/pink.png","null","trial","32","false","0.8,0.2","1:go_a","",""
"null","","html-keyboard-response","467","20393366","0.0-6.0-1.82","","<img src=""img/pink-n.png"">","null","trial","32","","0.8,0.2","1:go_a","0",""
"null","","html-keyboard-response","468","20394367","0.0-6.0-2.82","","<div style=""font-size:60px;"">+</div>","null","","","","","","",""
"442.52000000327826","","image-keyboard-response","469","20394811","0.0-6.0-0.83","","img/red.png","32","trial","null","false","0.2,0.8","2:nogo_b","",""
"null","","html-keyboard-response","470","20395830","0.0-6.0-1.83","","<img src=""img/red-r.png"" border=""10"">","null","trial","null","","0.2,0.8","2:nogo_b","1",""
"null","","html-keyboard-response","471","20396832","0.0-6.0-2.83","","<div style=""font-size:60px;"">+</div>","null","","","","","","",""
"null","","image-keyboard-response","472","20398335","0.0-6.0-0.84","","img/orange.png","null","trial","32","false","0.8,0.2","3:go_c","",""
"null","","html-keyboard-response","473","20399337","0.0-6.0-1.84","","<img src=""img/orange-n.png"">","null","trial","32","","0.8,0.2","3:go_c","0",""
"null","","html-keyboard-response","474","20400340","0.0-6.0-2.84","","<div style=""font-size:60px;"">+</div>","null","","","","","","",""
"null","","image-keyboard-response","475","20401842","0.0-6.0-0.85","","img/grey.png","null","trial","null","true","0.2,0.8","4:nogo_d","",""
"null","","html-keyboard-response","476","20402844","0.0-6.0-1.85","","<img src=""img/grey-n.png"">","null","trial","null","","0.2,0.8","4:nogo_d","0",""
"null","","html-keyboard-response","477","20403845","0.0-6.0-2.85","","<div style=""font-size:60px;"">+</div>","null","","","","","","",""
"null","","image-keyboard-response","478","20405347","0.0-6.0-0.86","","img/pink.png","null","trial","32","false","0.8,0.2","1:go_a","",""
"null","","html-keyboard-response","479","20406350","0.0-6.0-1.86","","<img src=""img/pink-n.png"">","null","trial","32","","0.8,0.2","1:go_a","0",""
"null","","html-keyboard-response","480","20407351","0.0-6.0-2.86","","<div style=""font-size:60px;"">+</div>","null","","","","","","",""
"null","","image-keyboard-response","481","20408852","0.0-6.0-0.87","","img/red.png","null","trial","null","true","0.2,0.8","2:nogo_b","",""
"null","","html-keyboard-response","482","20409854","0.0-6.0-1.87","","<img src=""img/red-n.png"">","null","trial","null","","0.2,0.8","2:nogo_b","0",""
"null","","html-keyboard-response","483","20410860","0.0-6.0-2.87","","<div style=""font-size:60px;"">+</div>","null","","","","","","",""
"null","","image-keyboard-response","484","20412362","0.0-6.0-0.88","","img/orange.png","null","trial","32","false","0.8,0.2","3:go_c","",""
"null","","html-keyboard-response","485","20413363","0.0-6.0-1.88","","<img src=""img/orange-n.png"">","null","trial","32","","0.8,0.2","3:go_c","0",""
"null","","html-keyboard-response","486","20414365","0.0-6.0-2.88","","<div style=""font-size:60px;"">+</div>","null","","","","","","",""
"null","","image-keyboard-response","487","20415867","0.0-6.0-0.89","","img/grey.png","null","trial","null","true","0.2,0.8","4:nogo_d","",""
"null","","html-keyboard-response","488","20416869","0.0-6.0-1.89","","<img src=""img/grey-n.png"">","null","trial","null","","0.2,0.8","4:nogo_d","0",""
"null","","html-keyboard-response","489","20417871","0.0-6.0-2.89","","<div style=""font-size:60px;"">+</div>","null","","","","","","",""
"365.160000000149","","image-keyboard-response","490","20418238","0.0-6.0-0.90","","img/red.png","32","trial","null","false","0.2,0.8","2:nogo_b","",""
"null","","html-keyboard-response","491","20419241","0.0-6.0-1.90","","<img src=""img/red-r.png"" border=""10"">","null","trial","null","","0.2,0.8","2:nogo_b","1",""
"null","","html-keyboard-response","492","20420242","0.0-6.0-2.90","","<div style=""font-size:60px;"">+</div>","null","","","","","","",""
"null","","image-keyboard-response","493","20421744","0.0-6.0-0.91","","img/pink.png","null","trial","32","false","0.8,0.2","1:go_a","",""
"null","","html-keyboard-response","494","20422745","0.0-6.0-1.91","","<img src=""img/pink-r.png"">","null","trial","32","","0.8,0.2","1:go_a","1",""
"null","","html-keyboard-response","495","20423747","0.0-6.0-2.91","","<div style=""font-size:60px;"">+</div>","null","","","","","","",""
"null","","image-keyboard-response","496","20425249","0.0-6.0-0.92","","img/orange.png","null","trial","32","false","0.8,0.2","3:go_c","",""
"null","","html-keyboard-response","497","20426251","0.0-6.0-1.92","","<img src=""img/orange-n.png"">","null","trial","32","","0.8,0.2","3:go_c","0",""
"null","","html-keyboard-response","498","20427252","0.0-6.0-2.92","","<div style=""font-size:60px;"">+</div>","null","","","","","","",""
"null","","image-keyboard-response","499","20428754","0.0-6.0-0.93","","img/grey.png","null","trial","null","true","0.2,0.8","4:nogo_d","",""
"null","","html-keyboard-response","500","20429759","0.0-6.0-1.93","","<img src=""img/grey-r.png"">","null","trial","null","","0.2,0.8","4:nogo_d","1",""
"null","","html-keyboard-response","501","20430761","0.0-6.0-2.93","","<div style=""font-size:60px;"">+</div>","null","","","","","","",""
"null","","image-keyboard-response","502","20432262","0.0-6.0-0.94","","img/red.png","null","trial","null","true","0.2,0.8","2:nogo_b","",""
"null","","html-keyboard-response","503","20433265","0.0-6.0-1.94","","<img src=""img/red-r.png"">","null","trial","null","","0.2,0.8","2:nogo_b","1",""
"null","","html-keyboard-response","504","20434267","0.0-6.0-2.94","","<div style=""font-size:60px;"">+</div>","null","","","","","","",""
"null","","image-keyboard-response","505","20435769","0.0-6.0-0.95","","img/pink.png","null","trial","32","false","0.8,0.2","1:go_a","",""
"null","","html-keyboard-response","506","20436771","0.0-6.0-1.95","","<img src=""img/pink-r.png"">","null","trial","32","","0.8,0.2","1:go_a","1",""
"null","","html-keyboard-response","507","20437774","0.0-6.0-2.95","","<div style=""font-size:60px;"">+</div>","null","","","","","","",""
"null","","image-keyboard-response","508","20439275","0.0-6.0-0.96","","img/red.png","null","trial","null","true","0.2,0.8","2:nogo_b","",""
"null","","html-keyboard-response","509","20440277","0.0-6.0-1.96","","<img src=""img/red-r.png"">","null","trial","null","","0.2,0.8","2:nogo_b","1",""
"null","","html-keyboard-response","510","20441279","0.0-6.0-2.96","","<div style=""font-size:60px;"">+</div>","null","","","","","","",""
"null","","image-keyboard-response","511","20442781","0.0-6.0-0.97","","img/orange.png","null","trial","32","false","0.8,0.2","3:go_c","",""
"null","","html-keyboard-response","512","20443783","0.0-6.0-1.97","","<img src=""img/orange-n.png"">","null","trial","32","","0.8,0.2","3:go_c","0",""
"null","","html-keyboard-response","513","20444785","0.0-6.0-2.97","","<div style=""font-size:60px;"">+</div>","null","","","","","","",""
"null","","image-keyboard-response","514","20446287","0.0-6.0-0.98","","img/pink.png","null","trial","32","false","0.8,0.2","1:go_a","",""
"null","","html-keyboard-response","515","20447290","0.0-6.0-1.98","","<img src=""img/pink-n.png"">","null","trial","32","","0.8,0.2","1:go_a","0",""
"null","","html-keyboard-response","516","20448293","0.0-6.0-2.98","","<div style=""font-size:60px;"">+</div>","null","","","","","","",""
"null","","image-keyboard-response","517","20449796","0.0-6.0-0.99","","img/grey.png","null","trial","null","true","0.2,0.8","4:nogo_d","",""
"null","","html-keyboard-response","518","20450798","0.0-6.0-1.99","","<img src=""img/grey-r.png"">","null","trial","null","","0.2,0.8","4:nogo_d","1",""
"null","","html-keyboard-response","519","20451799","0.0-6.0-2.99","","<div style=""font-size:60px;"">+</div>","null","","","","","","",""
"null","","image-keyboard-response","520","20453301","0.0-6.0-0.100","","img/red.png","null","trial","null","true","0.2,0.8","2:nogo_b","",""
"null","","html-keyboard-response","521","20454303","0.0-6.0-1.100","","<img src=""img/red-r.png"">","null","trial","null","","0.2,0.8","2:nogo_b","1",""
"null","","html-keyboard-response","522","20455304","0.0-6.0-2.100","","<div style=""font-size:60px;"">+</div>","null","","","","","","",""
"687.4949999973178","","image-keyboard-response","523","20455993","0.0-6.0-0.101","","img/pink.png","32","trial","32","true","0.8,0.2","1:go_a","",""
"null","","html-keyboard-response","524","20456996","0.0-6.0-1.101","","<img src=""img/pink-r.png"" border=""10"">","null","trial","32","","0.8,0.2","1:go_a","1",""
"null","","html-keyboard-response","525","20457997","0.0-6.0-2.101","","<div style=""font-size:60px;"">+</div>","null","","","","","","",""
"null","","image-keyboard-response","526","20459499","0.0-6.0-0.102","","img/grey.png","null","trial","null","true","0.2,0.8","4:nogo_d","",""
"null","","html-keyboard-response","527","20460502","0.0-6.0-1.102","","<img src=""img/grey-r.png"">","null","trial","null","","0.2,0.8","4:nogo_d","1",""
"null","","html-keyboard-response","528","20461503","0.0-6.0-2.102","","<div style=""font-size:60px;"">+</div>","null","","","","","","",""
"861.4449999965727","","image-keyboard-response","529","20462366","0.0-6.0-0.103","","img/orange.png","32","trial","32","true","0.8,0.2","3:go_c","",""
"null","","html-keyboard-response","530","20463368","0.0-6.0-1.103","","<img src=""img/orange-r.png"" border=""10"">","null","trial","32","","0.8,0.2","3:go_c","1",""
"null","","html-keyboard-response","531","20464369","0.0-6.0-2.103","","<div style=""font-size:60px;"">+</div>","null","","","","","","",""
"623.214999999851","","image-keyboard-response","532","20464993","0.0-6.0-0.104","","img/orange.png","32","trial","32","true","0.8,0.2","3:go_c","",""
"null","","html-keyboard-response","533","20465996","0.0-6.0-1.104","","<img src=""img/orange-n.png"" border=""10"">","null","trial","32","","0.8,0.2","3:go_c","0",""
"null","","html-keyboard-response","534","20466997","0.0-6.0-2.104","","<div style=""font-size:60px;"">+</div>","null","","","","","","",""
"1227.1699999980628","","image-keyboard-response","535","20468225","0.0-6.0-0.105","","img/red.png","32","trial","null","false","0.2,0.8","2:nogo_b","",""
"null","","html-keyboard-response","536","20469227","0.0-6.0-1.105","","<img src=""img/red-n.png"" border=""10"">","null","trial","null","","0.2,0.8","2:nogo_b","0",""
"null","","html-keyboard-response","537","20470229","0.0-6.0-2.105","","<div style=""font-size:60px;"">+</div>","null","","","","","","",""
"null","","image-keyboard-response","538","20471731","0.0-6.0-0.106","","img/pink.png","null","trial","32","false","0.8,0.2","1:go_a","",""
"null","","html-keyboard-response","539","20472733","0.0-6.0-1.106","","<img src=""img/pink-n.png"">","null","trial","32","","0.8,0.2","1:go_a","0",""
"null","","html-keyboard-response","540","20473735","0.0-6.0-2.106","","<div style=""font-size:60px;"">+</div>","null","","","","","","",""
"600.1550000011921","","image-keyboard-response","541","20474336","0.0-6.0-0.107","","img/grey.png","32","trial","null","false","0.2,0.8","4:nogo_d","",""
"null","","html-keyboard-response","542","20475337","0.0-6.0-1.107","","<img src=""img/grey-n.png"" border=""10"">","null","trial","null","","0.2,0.8","4:nogo_d","0",""
"null","","html-keyboard-response","543","20476338","0.0-6.0-2.107","","<div style=""font-size:60px;"">+</div>","null","","","","","","",""
"1410.890000000596","","image-keyboard-response","544","20477750","0.0-6.0-0.108","","img/red.png","32","trial","null","false","0.2,0.8","2:nogo_b","",""
"null","","html-keyboard-response","545","20478753","0.0-6.0-1.108","","<img src=""img/red-n.png"" border=""10"">","null","trial","null","","0.2,0.8","2:nogo_b","0",""
"null","","html-keyboard-response","546","20479755","0.0-6.0-2.108","","<div style=""font-size:60px;"">+</div>","null","","","","","","",""
"null","","image-keyboard-response","547","20481257","0.0-6.0-0.109","","img/grey.png","null","trial","null","true","0.2,0.8","4:nogo_d","",""
"null","","html-keyboard-response","548","20482261","0.0-6.0-1.109","","<img src=""img/grey-r.png"">","null","trial","null","","0.2,0.8","4:nogo_d","1",""
"null","","html-keyboard-response","549","20483263","0.0-6.0-2.109","","<div style=""font-size:60px;"">+</div>","null","","","","","","",""
"772.4450000040233","","image-keyboard-response","550","20484036","0.0-6.0-0.110","","img/orange.png","32","trial","32","true","0.8,0.2","3:go_c","",""
"null","","html-keyboard-response","551","20485038","0.0-6.0-1.110","","<img src=""img/orange-r.png"" border=""10"">","null","trial","32","","0.8,0.2","3:go_c","1",""
"null","","html-keyboard-response","552","20486040","0.0-6.0-2.110","","<div style=""font-size:60px;"">+</div>","null","","","","","","",""
"562.519999999553","","image-keyboard-response","553","20486605","0.0-6.0-0.111","","img/pink.png","32","trial","32","true","0.8,0.2","1:go_a","",""
"null","","html-keyboard-response","554","20487607","0.0-6.0-1.111","","<img src=""img/pink-n.png"" border=""10"">","null","trial","32","","0.8,0.2","1:go_a","0",""
"null","","html-keyboard-response","555","20488610","0.0-6.0-2.111","","<div style=""font-size:60px;"">+</div>","null","","","","","","",""
"null","","image-keyboard-response","556","20490112","0.0-6.0-0.112","","img/red.png","null","trial","null","true","0.2,0.8","2:nogo_b","",""
"null","","html-keyboard-response","557","20491114","0.0-6.0-1.112","","<img src=""img/red-r.png"">","null","trial","null","","0.2,0.8","2:nogo_b","1",""
"null","","html-keyboard-response","558","20492115","0.0-6.0-2.112","","<div style=""font-size:60px;"">+</div>","null","","","","","","",""
"null","","image-keyboard-response","559","20493616","0.0-6.0-0.113","","img/orange.png","null","trial","32","false","0.8,0.2","3:go_c","",""
"null","","html-keyboard-response","560","20494618","0.0-6.0-1.113","","<img src=""img/orange-n.png"">","null","trial","32","","0.8,0.2","3:go_c","0",""
"null","","html-keyboard-response","561","20495619","0.0-6.0-2.113","","<div style=""font-size:60px;"">+</div>","null","","","","","","",""
"192.65000000223517","","image-keyboard-response","562","20495813","0.0-6.0-0.114","","img/grey.png","32","trial","null","false","0.2,0.8","4:nogo_d","",""
"null","","html-keyboard-response","563","20496815","0.0-6.0-1.114","","<img src=""img/grey-n.png"" border=""10"">","null","trial","null","","0.2,0.8","4:nogo_d","0",""
"null","","html-keyboard-response","564","20497817","0.0-6.0-2.114","","<div style=""font-size:60px;"">+</div>","null","","","","","","",""
"null","","image-keyboard-response","565","20499318","0.0-6.0-0.115","","img/pink.png","null","trial","32","false","0.8,0.2","1:go_a","",""
"null","","html-keyboard-response","566","20500320","0.0-6.0-1.115","","<img src=""img/pink-r.png"">","null","trial","32","","0.8,0.2","1:go_a","1",""
"null","","html-keyboard-response","567","20501321","0.0-6.0-2.115","","<div style=""font-size:60px;"">+</div>","null","","","","","","",""
"484.94499999657273","","image-keyboard-response","568","20501807","0.0-6.0-0.116","","img/red.png","32","trial","null","false","0.2,0.8","2:nogo_b","",""
"null","","html-keyboard-response","569","20502810","0.0-6.0-1.116","","<img src=""img/red-n.png"" border=""10"">","null","trial","null","","0.2,0.8","2:nogo_b","0",""
"null","","html-keyboard-response","570","20503811","0.0-6.0-2.116","","<div style=""font-size:60px;"">+</div>","null","","","","","","",""
"null","","image-keyboard-response","571","20505313","0.0-6.0-0.117","","img/pink.png","null","trial","32","false","0.8,0.2","1:go_a","",""
"null","","html-keyboard-response","572","20506314","0.0-6.0-1.117","","<img src=""img/pink-n.png"">","null","trial","32","","0.8,0.2","1:go_a","0",""
"null","","html-keyboard-response","573","20507316","0.0-6.0-2.117","","<div style=""font-size:60px;"">+</div>","null","","","","","","",""
"null","","image-keyboard-response","574","20508818","0.0-6.0-0.118","","img/orange.png","null","trial","32","false","0.8,0.2","3:go_c","",""
"null","","html-keyboard-response","575","20509820","0.0-6.0-1.118","","<img src=""img/orange-n.png"">","null","trial","32","","0.8,0.2","3:go_c","0",""
"null","","html-keyboard-response","576","20510821","0.0-6.0-2.118","","<div style=""font-size:60px;"">+</div>","null","","","","","","",""
"null","","image-keyboard-response","577","20512322","0.0-6.0-0.119","","img/grey.png","null","trial","null","true","0.2,0.8","4:nogo_d","",""
"null","","html-keyboard-response","578","20513324","0.0-6.0-1.119","","<img src=""img/grey-n.png"">","null","trial","null","","0.2,0.8","4:nogo_d","0",""
"null","","html-keyboard-response","579","20514327","0.0-6.0-2.119","","<div style=""font-size:60px;"">+</div>","null","","","","","","",""
"11316604.919999998","","instructions","580","31830932","0.0-7.0","[{""page_index"":0,""viewing_time"":11316604.155000001}]","","","","","","","","",""
"null","","image-keyboard-response","581","31832436","0.0-8.0-0.0","","img/purple.png","null","trial","32","false","0.6,0.4","3:go_c","",""
"null","","html-keyboard-response","582","31833440","0.0-8.0-1.0","","<img src=""img/purple-n.png"">","null","trial","32","","0.6,0.4","3:go_c","0",""
"null","","html-keyboard-response","583","31834443","0.0-8.0-2.0","","<div style=""font-size:60px;"">+</div>","null","","","","","","",""
"null","","image-keyboard-response","584","31835944","0.0-8.0-0.1","","img/yellow.png","null","trial","null","true","0.4,0.6","4:nogo_d","",""
"null","","html-keyboard-response","585","31836946","0.0-8.0-1.1","","<img src=""img/yellow-r.png"">","null","trial","null","","0.4,0.6","4:nogo_d","1",""
"null","","html-keyboard-response","586","31837947","0.0-8.0-2.1","","<div style=""font-size:60px;"">+</div>","null","","","","","","",""
"505.4949999973178","","image-keyboard-response","587","31838454","0.0-8.0-0.2","","img/blue.png","32","trial","32","true","0.8,0.2","1:go_a","",""
"null","","html-keyboard-response","588","31839456","0.0-8.0-1.2","","<img src=""img/blue-r.png"" border=""10"">","null","trial","32","","0.8,0.2","1:go_a","1",""
"null","","html-keyboard-response","589","31840459","0.0-8.0-2.2","","<div style=""font-size:60px;"">+</div>","null","","","","","","",""
"428.04500000178814","","image-keyboard-response","590","31840888","0.0-8.0-0.3","","img/green.png","32","trial","null","false","0.2,0.8","2:nogo_b","",""
"null","","html-keyboard-response","591","31841889","0.0-8.0-1.3","","<img src=""img/green-n.png"" border=""10"">","null","trial","null","","0.2,0.8","2:nogo_b","0",""
"null","","html-keyboard-response","592","31842891","0.0-8.0-2.3","","<div style=""font-size:60px;"">+</div>","null","","","","","","",""
"566.1299999989569","","image-keyboard-response","593","31843458","0.0-8.0-0.4","","img/purple.png","32","trial","32","true","0.6,0.4","3:go_c","",""
"null","","html-keyboard-response","594","31844461","0.0-8.0-1.4","","<img src=""img/purple-n.png"" border=""10"">","null","trial","32","","0.6,0.4","3:go_c","0",""
"null","","html-keyboard-response","595","31845462","0.0-8.0-2.4","","<div style=""font-size:60px;"">+</div>","null","","","","","","",""
"488.9049999974668","","image-keyboard-response","596","31845952","0.0-8.0-0.5","","img/yellow.png","32","trial","null","false","0.4,0.6","4:nogo_d","",""
"null","","html-keyboard-response","597","31846954","0.0-8.0-1.5","","<img src=""img/yellow-n.png"" border=""10"">","null","trial","null","","0.4,0.6","4:nogo_d","0",""
"null","","html-keyboard-response","598","31847956","0.0-8.0-2.5","","<div style=""font-size:60px;"">+</div>","null","","","","","","",""
"null","","image-keyboard-response","599","31849457","0.0-8.0-0.6","","img/green.png","null","trial","null","true","0.2,0.8","2:nogo_b","",""
"null","","html-keyboard-response","600","31850461","0.0-8.0-1.6","","<img src=""img/green-r.png"">","null","trial","null","","0.2,0.8","2:nogo_b","1",""
"null","","html-keyboard-response","601","31851463","0.0-8.0-2.6","","<div style=""font-size:60px;"">+</div>","null","","","","","","",""
"null","","image-keyboard-response","602","31852964","0.0-8.0-0.7","","img/blue.png","null","trial","32","false","0.8,0.2","1:go_a","",""
"null","","html-keyboard-response","603","31853968","0.0-8.0-1.7","","<img src=""img/blue-r.png"">","null","trial","32","","0.8,0.2","1:go_a","1",""
"null","","html-keyboard-response","604","31854971","0.0-8.0-2.7","","<div style=""font-size:60px;"">+</div>","null","","","","","","",""
"null","","image-keyboard-response","605","31856472","0.0-8.0-0.8","","img/yellow.png","null","trial","null","true","0.4,0.6","4:nogo_d","",""
"null","","html-keyboard-response","606","31857474","0.0-8.0-1.8","","<img src=""img/yellow-n.png"">","null","trial","null","","0.4,0.6","4:nogo_d","0",""
"null","","html-keyboard-response","607","31858476","0.0-8.0-2.8","","<div style=""font-size:60px;"">+</div>","null","","","","","","",""
"766.9250000044703","","image-keyboard-response","608","31859244","0.0-8.0-0.9","","img/purple.png","32","trial","32","true","0.6,0.4","3:go_c","",""
"null","","html-keyboard-response","609","31860246","0.0-8.0-1.9","","<img src=""img/purple-n.png"" border=""10"">","null","trial","32","","0.6,0.4","3:go_c","0",""
"null","","html-keyboard-response","610","31861247","0.0-8.0-2.9","","<div style=""font-size:60px;"">+</div>","null","","","","","","",""
"null","","image-keyboard-response","611","31862756","0.0-8.0-0.10","","img/green.png","null","trial","null","true","0.2,0.8","2:nogo_b","",""
"null","","html-keyboard-response","612","31863759","0.0-8.0-1.10","","<img src=""img/green-r.png"">","null","trial","null","","0.2,0.8","2:nogo_b","1",""
"null","","html-keyboard-response","613","31864763","0.0-8.0-2.10","","<div style=""font-size:60px;"">+</div>","null","","","","","","",""
"null","","image-keyboard-response","614","31866265","0.0-8.0-0.11","","img/blue.png","null","trial","32","false","0.8,0.2","1:go_a","",""
"null","","html-keyboard-response","615","31867272","0.0-8.0-1.11","","<img src=""img/blue-r.png"">","null","trial","32","","0.8,0.2","1:go_a","1",""
"null","","html-keyboard-response","616","31868274","0.0-8.0-2.11","","<div style=""font-size:60px;"">+</div>","null","","","","","","",""
"null","","image-keyboard-response","617","31869777","0.0-8.0-0.12","","img/purple.png","null","trial","32","false","0.6,0.4","3:go_c","",""
"null","","html-keyboard-response","618","31870780","0.0-8.0-1.12","","<img src=""img/purple-r.png"">","null","trial","32","","0.6,0.4","3:go_c","1",""
"null","","html-keyboard-response","619","31871782","0.0-8.0-2.12","","<div style=""font-size:60px;"">+</div>","null","","","","","","",""
"576.0099999979138","","image-keyboard-response","620","31872359","0.0-8.0-0.13","","img/yellow.png","32","trial","null","false","0.4,0.6","4:nogo_d","",""
"null","","html-keyboard-response","621","31873361","0.0-8.0-1.13","","<img src=""img/yellow-n.png"" border=""10"">","null","trial","null","","0.4,0.6","4:nogo_d","0",""
"null","","html-keyboard-response","622","31874363","0.0-8.0-2.13","","<div style=""font-size:60px;"">+</div>","null","","","","","","",""
"859.7399999983609","","image-keyboard-response","623","31875224","0.0-8.0-0.14","","img/blue.png","32","trial","32","true","0.8,0.2","1:go_a","",""
"null","","html-keyboard-response","624","31876226","0.0-8.0-1.14","","<img src=""img/blue-r.png"" border=""10"">","null","trial","32","","0.8,0.2","1:go_a","1",""
"null","","html-keyboard-response","625","31877227","0.0-8.0-2.14","","<div style=""font-size:60px;"">+</div>","null","","","","","","",""
"793.3400000035763","","image-keyboard-response","626","31878021","0.0-8.0-0.15","","img/green.png","32","trial","null","false","0.2,0.8","2:nogo_b","",""
"null","","html-keyboard-response","627","31879022","0.0-8.0-1.15","","<img src=""img/green-n.png"" border=""10"">","null","trial","null","","0.2,0.8","2:nogo_b","0",""
"null","","html-keyboard-response","628","31880024","0.0-8.0-2.15","","<div style=""font-size:60px;"">+</div>","null","","","","","","",""
"null","","image-keyboard-response","629","31881525","0.0-8.0-0.16","","img/green.png","null","trial","null","true","0.2,0.8","2:nogo_b","",""
"null","","html-keyboard-response","630","31882528","0.0-8.0-1.16","","<img src=""img/green-r.png"">","null","trial","null","","0.2,0.8","2:nogo_b","1",""
"null","","html-keyboard-response","631","31883529","0.0-8.0-2.16","","<div style=""font-size:60px;"">+</div>","null","","","","","","",""
"510.4999999962747","","image-keyboard-response","632","31884041","0.0-8.0-0.17","","img/blue.png","32","trial","32","true","0.8,0.2","1:go_a","",""
"null","","html-keyboard-response","633","31885043","0.0-8.0-1.17","","<img src=""img/blue-n.png"" border=""10"">","null","trial","32","","0.8,0.2","1:go_a","0",""
"null","","html-keyboard-response","634","31886045","0.0-8.0-2.17","","<div style=""font-size:60px;"">+</div>","null","","","","","","",""
"null","","image-keyboard-response","635","31887547","0.0-8.0-0.18","","img/purple.png","null","trial","32","false","0.6,0.4","3:go_c","",""
"null","","html-keyboard-response","636","31888548","0.0-8.0-1.18","","<img src=""img/purple-n.png"">","null","trial","32","","0.6,0.4","3:go_c","0",""
"null","","html-keyboard-response","637","31889550","0.0-8.0-2.18","","<div style=""font-size:60px;"">+</div>","null","","","","","","",""
"null","","image-keyboard-response","638","31891051","0.0-8.0-0.19","","img/yellow.png","null","trial","null","true","0.4,0.6","4:nogo_d","",""
"null","","html-keyboard-response","639","31892052","0.0-8.0-1.19","","<img src=""img/yellow-r.png"">","null","trial","null","","0.4,0.6","4:nogo_d","1",""
"null","","html-keyboard-response","640","31893054","0.0-8.0-2.19","","<div style=""font-size:60px;"">+</div>","null","","","","","","",""
"774.2399999983609","","image-keyboard-response","641","31893830","0.0-8.0-0.20","","img/yellow.png","32","trial","null","false","0.4,0.6","4:nogo_d","",""
"null","","html-keyboard-response","642","31894832","0.0-8.0-1.20","","<img src=""img/yellow-n.png"" border=""10"">","null","trial","null","","0.4,0.6","4:nogo_d","0",""
"null","","html-keyboard-response","643","31895834","0.0-8.0-2.20","","<div style=""font-size:60px;"">+</div>","null","","","","","","",""
"null","","image-keyboard-response","644","31897335","0.0-8.0-0.21","","img/blue.png","null","trial","32","false","0.8,0.2","1:go_a","",""
"null","","html-keyboard-response","645","31898337","0.0-8.0-1.21","","<img src=""img/blue-n.png"">","null","trial","32","","0.8,0.2","1:go_a","0",""
"null","","html-keyboard-response","646","31899339","0.0-8.0-2.21","","<div style=""font-size:60px;"">+</div>","null","","","","","","",""
"null","","image-keyboard-response","647","31900841","0.0-8.0-0.22","","img/purple.png","null","trial","32","false","0.6,0.4","3:go_c","",""
"null","","html-keyboard-response","648","31901842","0.0-8.0-1.22","","<img src=""img/purple-n.png"">","null","trial","32","","0.6,0.4","3:go_c","0",""
"null","","html-keyboard-response","649","31902844","0.0-8.0-2.22","","<div style=""font-size:60px;"">+</div>","null","","","","","","",""
"438.04999999701977","","image-keyboard-response","650","31903283","0.0-8.0-0.23","","img/green.png","32","trial","null","false","0.2,0.8","2:nogo_b","",""
"null","","html-keyboard-response","651","31904285","0.0-8.0-1.23","","<img src=""img/green-n.png"" border=""10"">","null","trial","null","","0.2,0.8","2:nogo_b","0",""
"null","","html-keyboard-response","652","31905287","0.0-8.0-2.23","","<div style=""font-size:60px;"">+</div>","null","","","","","","",""
"null","","image-keyboard-response","653","31906788","0.0-8.0-0.24","","img/green.png","null","trial","null","true","0.2,0.8","2:nogo_b","",""
"null","","html-keyboard-response","654","31907791","0.0-8.0-1.24","","<img src=""img/green-r.png"">","null","trial","null","","0.2,0.8","2:nogo_b","1",""
"null","","html-keyboard-response","655","31908807","0.0-8.0-2.24","","<div style=""font-size:60px;"">+</div>","null","","","","","","",""
"null","","image-keyboard-response","656","31910309","0.0-8.0-0.25","","img/purple.png","null","trial","32","false","0.6,0.4","3:go_c","",""
"null","","html-keyboard-response","657","31911311","0.0-8.0-1.25","","<img src=""img/purple-r.png"">","null","trial","32","","0.6,0.4","3:go_c","1",""
"null","","html-keyboard-response","658","31912312","0.0-8.0-2.25","","<div style=""font-size:60px;"">+</div>","null","","","","","","",""
"789.5450000055134","","image-keyboard-response","659","31913103","0.0-8.0-0.26","","img/yellow.png","32","trial","null","false","0.4,0.6","4:nogo_d","",""
"null","","html-keyboard-response","660","31914105","0.0-8.0-1.26","","<img src=""img/yellow-n.png"" border=""10"">","null","trial","null","","0.4,0.6","4:nogo_d","0",""
"null","","html-keyboard-response","661","31915107","0.0-8.0-2.26","","<div style=""font-size:60px;"">+</div>","null","","","","","","",""
"null","","image-keyboard-response","662","31916608","0.0-8.0-0.27","","img/blue.png","null","trial","32","false","0.8,0.2","1:go_a","",""
"null","","html-keyboard-response","663","31917611","0.0-8.0-1.27","","<img src=""img/blue-n.png"">","null","trial","32","","0.8,0.2","1:go_a","0",""
"null","","html-keyboard-response","664","31918612","0.0-8.0-2.27","","<div style=""font-size:60px;"">+</div>","null","","","","","","",""
"1284.254999998957","","image-keyboard-response","665","31919898","0.0-8.0-0.28","","img/yellow.png","32","trial","null","false","0.4,0.6","4:nogo_d","",""
"null","","html-keyboard-response","666","31920899","0.0-8.0-1.28","","<img src=""img/yellow-r.png"" border=""10"">","null","trial","null","","0.4,0.6","4:nogo_d","1",""
"null","","html-keyboard-response","667","31921901","0.0-8.0-2.28","","<div style=""font-size:60px;"">+</div>","null","","","","","","",""
"1054.9749999977648","","image-keyboard-response","668","31922957","0.0-8.0-0.29","","img/blue.png","32","trial","32","true","0.8,0.2","1:go_a","",""
"null","","html-keyboard-response","669","31923959","0.0-8.0-1.29","","<img src=""img/blue-r.png"" border=""10"">","null","trial","32","","0.8,0.2","1:go_a","1",""
"null","","html-keyboard-response","670","31924961","0.0-8.0-2.29","","<div style=""font-size:60px;"">+</div>","null","","","","","","",""
"933.2549999952316","","image-keyboard-response","671","31925896","0.0-8.0-0.30","","img/green.png","32","trial","null","false","0.2,0.8","2:nogo_b","",""
"null","","html-keyboard-response","672","31926898","0.0-8.0-1.30","","<img src=""img/green-n.png"" border=""10"">","null","trial","null","","0.2,0.8","2:nogo_b","0",""
"null","","html-keyboard-response","673","31927899","0.0-8.0-2.30","","<div style=""font-size:60px;"">+</div>","null","","","","","","",""
"null","","image-keyboard-response","674","31929401","0.0-8.0-0.31","","img/purple.png","null","trial","32","false","0.6,0.4","3:go_c","",""
