"rt","url","trial_type","trial_index","time_elapsed","internal_node_id","view_history","stimulus","key_press","test_part","correct_response","correct","use_rew","which_stim","reward","responses"
"13537.599999999627","consent.html","external-html","0","13606","0.0-0.0","","","","","","","","","",""
"116199.5","","instructions","1","129812","0.0-1.0","[{""page_index"":0,""viewing_time"":3682.2999999988824},{""page_index"":1,""viewing_time"":26233.60000000149},{""page_index"":2,""viewing_time"":12613.89999999851},{""page_index"":3,""viewing_time"":36263.40000000037},{""page_index"":4,""viewing_time"":11209.099999999627},{""page_index"":5,""viewing_time"":9435.900000000373},{""page_index"":6,""viewing_time"":16758.200000001118}]","","","","","","","","",""
"null","","image-keyboard-response","2","131321","0.0-2.0-0.0","","img/test2.PNG","null","practice","null","true","","","",""
"null","","html-keyboard-response","3","132330","0.0-2.0-1.0","","<img src=""img/test2-reward.PNG"">","null","","","","","","",""
"null","","html-keyboard-response","4","133342","0.0-2.0-2.0","","<div style=""font-size:60px;"">+</div>","null","","","","","","",""
"null","","image-keyboard-response","5","134856","0.0-2.0-0.1","","img/test3.PNG","null","practice","null","true","","","",""
"null","","html-keyboard-response","6","135862","0.0-2.0-1.1","","<img src=""img/test3-reward.PNG"">","null","","","","","","",""
"null","","html-keyboard-response","7","136865","0.0-2.0-2.1","","<div style=""font-size:60px;"">+</div>","null","","","","","","",""
"449.59999999962747","","image-keyboard-response","8","137316","0.0-2.0-0.2","","img/test1.PNG","32","practice","32","true","","","",""
"null","","html-keyboard-response","9","138320","0.0-2.0-1.2","","<img src=""img/test1-reward.PNG"" border=""10px; grey"">","null","","","","","","",""
"null","","html-keyboard-response","10","139325","0.0-2.0-2.2","","<div style=""font-size:60px;"">+</div>","null","","","","","","",""
"null","","image-keyboard-response","11","140834","0.0-2.0-0.3","","img/test2.PNG","null","practice","null","true","","","",""
"null","","html-keyboard-response","12","141844","0.0-2.0-1.3","","<img src=""img/test2-reward.PNG"">","null","","","","","","",""
"null","","html-keyboard-response","13","142852","0.0-2.0-2.3","","<div style=""font-size:60px;"">+</div>","null","","","","","","",""
"452.5","","image-keyboard-response","14","143308","0.0-2.0-0.4","","img/test1.PNG","32","practice","32","true","","","",""
"null","","html-keyboard-response","15","144316","0.0-2.0-1.4","","<img src=""img/test1-reward.PNG"" border=""10px; grey"">","null","","","","","","",""
"null","","html-keyboard-response","16","145325","0.0-2.0-2.4","","<div style=""font-size:60px;"">+</div>","null","","","","","","",""
"null","","image-keyboard-response","17","146828","0.0-2.0-0.5","","img/test3.PNG","null","practice","null","true","","","",""
"null","","html-keyboard-response","18","147837","0.0-2.0-1.5","","<img src=""img/test3-reward.PNG"">","null","","","","","","",""
"null","","html-keyboard-response","19","148839","0.0-2.0-2.5","","<div style=""font-size:60px;"">+</div>","null","","","","","","",""
"1105.1000000014901","","image-keyboard-response","20","149948","0.0-2.0-0.6","","img/test1.PNG","32","practice","32","true","","","",""
"null","","html-keyboard-response","21","150959","0.0-2.0-1.6","","<img src=""img/test1-reward.PNG"" border=""10px; grey"">","null","","","","","","",""
"null","","html-keyboard-response","22","151971","0.0-2.0-2.6","","<div style=""font-size:60px;"">+</div>","null","","","","","","",""
"null","","image-keyboard-response","23","153476","0.0-2.0-0.7","","img/test2.PNG","null","practice","null","true","","","",""
"null","","html-keyboard-response","24","154479","0.0-2.0-1.7","","<img src=""img/test2-reward.PNG"">","null","","","","","","",""
"null","","html-keyboard-response","25","155489","0.0-2.0-2.7","","<div style=""font-size:60px;"">+</div>","null","","","","","","",""
"null","","image-keyboard-response","26","156992","0.0-2.0-0.8","","img/test3.PNG","null","practice","null","true","","","",""
"null","","html-keyboard-response","27","158004","0.0-2.0-1.8","","<img src=""img/test3-reward.PNG"">","null","","","","","","",""
"null","","html-keyboard-response","28","159007","0.0-2.0-2.8","","<div style=""font-size:60px;"">+</div>","null","","","","","","",""
"null","","image-keyboard-response","29","160512","0.0-2.0-0.9","","img/test2.PNG","null","practice","null","true","","","",""
"null","","html-keyboard-response","30","161522","0.0-2.0-1.9","","<img src=""img/test2-reward.PNG"">","null","","","","","","",""
"null","","html-keyboard-response","31","162526","0.0-2.0-2.9","","<div style=""font-size:60px;"">+</div>","null","","","","","","",""
"null","","image-keyboard-response","32","164029","0.0-2.0-0.10","","img/test3.PNG","null","practice","null","true","","","",""
"null","","html-keyboard-response","33","165044","0.0-2.0-1.10","","<img src=""img/test3-reward.PNG"">","null","","","","","","",""
"null","","html-keyboard-response","34","166054","0.0-2.0-2.10","","<div style=""font-size:60px;"">+</div>","null","","","","","","",""
"531.6999999992549","","image-keyboard-response","35","166589","0.0-2.0-0.11","","img/test1.PNG","32","practice","32","true","","","",""
"null","","html-keyboard-response","36","167593","0.0-2.0-1.11","","<img src=""img/test1-reward.PNG"" border=""10px; grey"">","null","","","","","","",""
"null","","html-keyboard-response","37","168610","0.0-2.0-2.11","","<div style=""font-size:60px;"">+</div>","null","","","","","","",""
"137374.59999999963","","instructions","38","305979","0.0-3.0","[{""page_index"":0,""viewing_time"":137374.09999999963}]","","","","","","","","",""
"null","","image-keyboard-response","39","307482","0.0-4.0-0.0","","img/yellow.png","null","trial","32","false","0.8,0.2","1:go_a","",""
"null","","html-keyboard-response","40","308494","0.0-4.0-1.0","","<img src=""img/yellow-n.png"">","null","trial","32","","0.8,0.2","1:go_a","0",""
"null","","html-keyboard-response","41","309500","0.0-4.0-2.0","","<div style=""font-size:60px;"">+</div>","null","","","","","","",""
"null","","image-keyboard-response","42","311003","0.0-4.0-0.1","","img/orange.png","null","trial","null","true","0.2,0.8","2:nogo_b","",""
"null","","html-keyboard-response","43","312008","0.0-4.0-1.1","","<img src=""img/orange-r.png"">","null","trial","null","","0.2,0.8","2:nogo_b","1",""
"null","","html-keyboard-response","44","313010","0.0-4.0-2.1","","<div style=""font-size:60px;"">+</div>","null","","","","","","",""
"845.5999999996275","","image-keyboard-response","45","313857","0.0-4.0-0.2","","img/orange.png","32","trial","null","false","0.2,0.8","2:nogo_b","",""
"null","","html-keyboard-response","46","314865","0.0-4.0-1.2","","<img src=""img/orange-r.png"" border=""10"">","null","trial","null","","0.2,0.8","2:nogo_b","1",""
"null","","html-keyboard-response","47","315867","0.0-4.0-2.2","","<div style=""font-size:60px;"">+</div>","null","","","","","","",""
"null","","image-keyboard-response","48","317369","0.0-4.0-0.3","","img/yellow.png","null","trial","32","false","0.8,0.2","1:go_a","",""
"null","","html-keyboard-response","49","318378","0.0-4.0-1.3","","<img src=""img/yellow-n.png"">","null","trial","32","","0.8,0.2","1:go_a","0",""
"null","","html-keyboard-response","50","319379","0.0-4.0-2.3","","<div style=""font-size:60px;"">+</div>","null","","","","","","",""
"null","","image-keyboard-response","51","320881","0.0-4.0-0.4","","img/yellow.png","null","trial","32","false","0.8,0.2","1:go_a","",""
"null","","html-keyboard-response","52","321897","0.0-4.0-1.4","","<img src=""img/yellow-r.png"">","null","trial","32","","0.8,0.2","1:go_a","1",""
"null","","html-keyboard-response","53","322899","0.0-4.0-2.4","","<div style=""font-size:60px;"">+</div>","null","","","","","","",""
"804.1000000014901","","image-keyboard-response","54","323706","0.0-4.0-0.5","","img/orange.png","32","trial","null","false","0.2,0.8","2:nogo_b","",""
"null","","html-keyboard-response","55","324722","0.0-4.0-1.5","","<img src=""img/orange-n.png"" border=""10"">","null","trial","null","","0.2,0.8","2:nogo_b","0",""
"null","","html-keyboard-response","56","325737","0.0-4.0-2.5","","<div style=""font-size:60px;"">+</div>","null","","","","","","",""
"526.8999999985099","","image-keyboard-response","57","326266","0.0-4.0-0.6","","img/yellow.png","32","trial","32","true","0.8,0.2","1:go_a","",""
"null","","html-keyboard-response","58","327277","0.0-4.0-1.6","","<img src=""img/yellow-r.png"" border=""10"">","null","trial","32","","0.8,0.2","1:go_a","1",""
"null","","html-keyboard-response","59","328291","0.0-4.0-2.6","","<div style=""font-size:60px;"">+</div>","null","","","","","","",""
"572.1999999992549","","image-keyboard-response","60","328866","0.0-4.0-0.7","","img/orange.png","32","trial","null","false","0.2,0.8","2:nogo_b","",""
"null","","html-keyboard-response","61","329877","0.0-4.0-1.7","","<img src=""img/orange-n.png"" border=""10"">","null","trial","null","","0.2,0.8","2:nogo_b","0",""
"null","","html-keyboard-response","62","330883","0.0-4.0-2.7","","<div style=""font-size:60px;"">+</div>","null","","","","","","",""
"501.19999999925494","","image-keyboard-response","63","331385","0.0-4.0-0.8","","img/orange.png","32","trial","null","false","0.2,0.8","2:nogo_b","",""
"null","","html-keyboard-response","64","332397","0.0-4.0-1.8","","<img src=""img/orange-n.png"" border=""10"">","null","trial","null","","0.2,0.8","2:nogo_b","0",""
"null","","html-keyboard-response","65","333403","0.0-4.0-2.8","","<div style=""font-size:60px;"">+</div>","null","","","","","","",""
"506.2999999988824","","image-keyboard-response","66","333913","0.0-4.0-0.9","","img/yellow.png","32","trial","32","true","0.8,0.2","1:go_a","",""
"null","","html-keyboard-response","67","334929","0.0-4.0-1.9","","<img src=""img/yellow-r.png"" border=""10"">","null","trial","32","","0.8,0.2","1:go_a","1",""
"null","","html-keyboard-response","68","335945","0.0-4.0-2.9","","<div style=""font-size:60px;"">+</div>","null","","","","","","",""
"655.2999999988824","","image-keyboard-response","69","336602","0.0-4.0-0.10","","img/yellow.png","32","trial","32","true","0.8,0.2","1:go_a","",""
"null","","html-keyboard-response","70","337627","0.0-4.0-1.10","","<img src=""img/yellow-r.png"" border=""10"">","null","trial","32","","0.8,0.2","1:go_a","1",""
"null","","html-keyboard-response","71","338633","0.0-4.0-2.10","","<div style=""font-size:60px;"">+</div>","null","","","","","","",""
"null","","image-keyboard-response","72","340145","0.0-4.0-0.11","","img/orange.png","null","trial","null","true","0.2,0.8","2:nogo_b","",""
"null","","html-keyboard-response","73","341171","0.0-4.0-1.11","","<img src=""img/orange-r.png"">","null","trial","null","","0.2,0.8","2:nogo_b","1",""
"null","","html-keyboard-response","74","342185","0.0-4.0-2.11","","<div style=""font-size:60px;"">+</div>","null","","","","","","",""
"446.30000000074506","","image-keyboard-response","75","342634","0.0-4.0-0.12","","img/orange.png","32","trial","null","false","0.2,0.8","2:nogo_b","",""
"null","","html-keyboard-response","76","343647","0.0-4.0-1.12","","<img src=""img/orange-n.png"" border=""10"">","null","trial","null","","0.2,0.8","2:nogo_b","0",""
"null","","html-keyboard-response","77","344650","0.0-4.0-2.12","","<div style=""font-size:60px;"">+</div>","null","","","","","","",""
"549.7000000011176","","image-keyboard-response","78","345202","0.0-4.0-0.13","","img/yellow.png","32","trial","32","true","0.8,0.2","1:go_a","",""
"null","","html-keyboard-response","79","346219","0.0-4.0-1.13","","<img src=""img/yellow-n.png"" border=""10"">","null","trial","32","","0.8,0.2","1:go_a","0",""
"null","","html-keyboard-response","80","347232","0.0-4.0-2.13","","<div style=""font-size:60px;"">+</div>","null","","","","","","",""
"520.5999999996275","","image-keyboard-response","81","347754","0.0-4.0-0.14","","img/yellow.png","32","trial","32","true","0.8,0.2","1:go_a","",""
"null","","html-keyboard-response","82","348762","0.0-4.0-1.14","","<img src=""img/yellow-r.png"" border=""10"">","null","trial","32","","0.8,0.2","1:go_a","1",""
"null","","html-keyboard-response","83","349764","0.0-4.0-2.14","","<div style=""font-size:60px;"">+</div>","null","","","","","","",""
"691.6999999992549","","image-keyboard-response","84","350458","0.0-4.0-0.15","","img/orange.png","32","trial","null","false","0.2,0.8","2:nogo_b","",""
"null","","html-keyboard-response","85","351474","0.0-4.0-1.15","","<img src=""img/orange-r.png"" border=""10"">","null","trial","null","","0.2,0.8","2:nogo_b","1",""
"null","","html-keyboard-response","86","352487","0.0-4.0-2.15","","<div style=""font-size:60px;"">+</div>","null","","","","","","",""
"560.0999999996275","","image-keyboard-response","87","353050","0.0-4.0-0.16","","img/orange.png","32","trial","null","false","0.2,0.8","2:nogo_b","",""
"null","","html-keyboard-response","88","354054","0.0-4.0-1.16","","<img src=""img/orange-n.png"" border=""10"">","null","trial","null","","0.2,0.8","2:nogo_b","0",""
"null","","html-keyboard-response","89","355055","0.0-4.0-2.16","","<div style=""font-size:60px;"">+</div>","null","","","","","","",""
"439.90000000037253","","image-keyboard-response","90","355497","0.0-4.0-0.17","","img/yellow.png","32","trial","32","true","0.8,0.2","1:go_a","",""
"null","","html-keyboard-response","91","356499","0.0-4.0-1.17","","<img src=""img/yellow-n.png"" border=""10"">","null","trial","32","","0.8,0.2","1:go_a","0",""
"null","","html-keyboard-response","92","357509","0.0-4.0-2.17","","<div style=""font-size:60px;"">+</div>","null","","","","","","",""
"null","","image-keyboard-response","93","359012","0.0-4.0-0.18","","img/orange.png","null","trial","null","true","0.2,0.8","2:nogo_b","",""
"null","","html-keyboard-response","94","360027","0.0-4.0-1.18","","<img src=""img/orange-r.png"">","null","trial","null","","0.2,0.8","2:nogo_b","1",""
"null","","html-keyboard-response","95","361041","0.0-4.0-2.18","","<div style=""font-size:60px;"">+</div>","null","","","","","","",""
"null","","image-keyboard-response","96","362545","0.0-4.0-0.19","","img/yellow.png","null","trial","32","false","0.8,0.2","1:go_a","",""
"null","","html-keyboard-response","97","363562","0.0-4.0-1.19","","<img src=""img/yellow-n.png"">","null","trial","32","","0.8,0.2","1:go_a","0",""
"null","","html-keyboard-response","98","364564","0.0-4.0-2.19","","<div style=""font-size:60px;"">+</div>","null","","","","","","",""
"null","","image-keyboard-response","99","366082","0.0-4.0-0.20","","img/yellow.png","null","trial","32","false","0.8,0.2","1:go_a","",""
"null","","html-keyboard-response","100","367092","0.0-4.0-1.20","","<img src=""img/yellow-n.png"">","null","trial","32","","0.8,0.2","1:go_a","0",""
"null","","html-keyboard-response","101","368095","0.0-4.0-2.20","","<div style=""font-size:60px;"">+</div>","null","","","","","","",""
"541.7999999988824","","image-keyboard-response","102","368639","0.0-4.0-0.21","","img/orange.png","32","trial","null","false","0.2,0.8","2:nogo_b","",""
"null","","html-keyboard-response","103","369656","0.0-4.0-1.21","","<img src=""img/orange-r.png"" border=""10"">","null","trial","null","","0.2,0.8","2:nogo_b","1",""
"null","","html-keyboard-response","104","370664","0.0-4.0-2.21","","<div style=""font-size:60px;"">+</div>","null","","","","","","",""
"null","","image-keyboard-response","105","372175","0.0-4.0-0.22","","img/yellow.png","null","trial","32","false","0.8,0.2","1:go_a","",""
"null","","html-keyboard-response","106","373207","0.0-4.0-1.22","","<img src=""img/yellow-r.png"">","null","trial","32","","0.8,0.2","1:go_a","1",""
"null","","html-keyboard-response","107","374208","0.0-4.0-2.22","","<div style=""font-size:60px;"">+</div>","null","","","","","","",""
"null","","image-keyboard-response","108","375719","0.0-4.0-0.23","","img/orange.png","null","trial","null","true","0.2,0.8","2:nogo_b","",""
"null","","html-keyboard-response","109","376735","0.0-4.0-1.23","","<img src=""img/orange-r.png"">","null","trial","null","","0.2,0.8","2:nogo_b","1",""
"null","","html-keyboard-response","110","377746","0.0-4.0-2.23","","<div style=""font-size:60px;"">+</div>","null","","","","","","",""
"519.6999999992549","","image-keyboard-response","111","378268","0.0-4.0-0.24","","img/yellow.png","32","trial","32","true","0.8,0.2","1:go_a","",""
"null","","html-keyboard-response","112","379272","0.0-4.0-1.24","","<img src=""img/yellow-r.png"" border=""10"">","null","trial","32","","0.8,0.2","1:go_a","1",""
"null","","html-keyboard-response","113","380273","0.0-4.0-2.24","","<div style=""font-size:60px;"">+</div>","null","","","","","","",""
"553.0999999996275","","image-keyboard-response","114","380829","0.0-4.0-0.25","","img/orange.png","32","trial","null","false","0.2,0.8","2:nogo_b","",""
"null","","html-keyboard-response","115","381833","0.0-4.0-1.25","","<img src=""img/orange-n.png"" border=""10"">","null","trial","null","","0.2,0.8","2:nogo_b","0",""
"null","","html-keyboard-response","116","382835","0.0-4.0-2.25","","<div style=""font-size:60px;"">+</div>","null","","","","","","",""
"535.0999999996275","","image-keyboard-response","117","383372","0.0-4.0-0.26","","img/orange.png","32","trial","null","false","0.2,0.8","2:nogo_b","",""
"null","","html-keyboard-response","118","384376","0.0-4.0-1.26","","<img src=""img/orange-r.png"" border=""10"">","null","trial","null","","0.2,0.8","2:nogo_b","1",""
"null","","html-keyboard-response","119","385391","0.0-4.0-2.26","","<div style=""font-size:60px;"">+</div>","null","","","","","","",""
"707","","image-keyboard-response","120","386100","0.0-4.0-0.27","","img/yellow.png","32","trial","32","true","0.8,0.2","1:go_a","",""
"null","","html-keyboard-response","121","387118","0.0-4.0-1.27","","<img src=""img/yellow-r.png"" border=""10"">","null","trial","32","","0.8,0.2","1:go_a","1",""
"null","","html-keyboard-response","122","388120","0.0-4.0-2.27","","<div style=""font-size:60px;"">+</div>","null","","","","","","",""
"793.3000000007451","","image-keyboard-response","123","388916","0.0-4.0-0.28","","img/orange.png","32","trial","null","false","0.2,0.8","2:nogo_b","",""
"null","","html-keyboard-response","124","389919","0.0-4.0-1.28","","<img src=""img/orange-n.png"" border=""10"">","null","trial","null","","0.2,0.8","2:nogo_b","0",""
"null","","html-keyboard-response","125","390932","0.0-4.0-2.28","","<div style=""font-size:60px;"">+</div>","null","","","","","","",""
"813.5","","image-keyboard-response","126","391748","0.0-4.0-0.29","","img/yellow.png","32","trial","32","true","0.8,0.2","1:go_a","",""
"null","","html-keyboard-response","127","392777","0.0-4.0-1.29","","<img src=""img/yellow-r.png"" border=""10"">","null","trial","32","","0.8,0.2","1:go_a","1",""
"null","","html-keyboard-response","128","393788","0.0-4.0-2.29","","<div style=""font-size:60px;"">+</div>","null","","","","","","",""
"null","","image-keyboard-response","129","395302","0.0-4.0-0.30","","img/orange.png","null","trial","null","true","0.2,0.8","2:nogo_b","",""
"null","","html-keyboard-response","130","396319","0.0-4.0-1.30","","<img src=""img/orange-r.png"">","null","trial","null","","0.2,0.8","2:nogo_b","1",""
"null","","html-keyboard-response","131","397334","0.0-4.0-2.30","","<div style=""font-size:60px;"">+</div>","null","","","","","","",""
"683.1999999992549","","image-keyboard-response","132","398019","0.0-4.0-0.31","","img/yellow.png","32","trial","32","true","0.8,0.2","1:go_a","",""
"null","","html-keyboard-response","133","399021","0.0-4.0-1.31","","<img src=""img/yellow-n.png"" border=""10"">","null","trial","32","","0.8,0.2","1:go_a","0",""
"null","","html-keyboard-response","134","400026","0.0-4.0-2.31","","<div style=""font-size:60px;"">+</div>","null","","","","","","",""
"616.5","","image-keyboard-response","135","400644","0.0-4.0-0.32","","img/orange.png","32","trial","null","false","0.2,0.8","2:nogo_b","",""
"null","","html-keyboard-response","136","401659","0.0-4.0-1.32","","<img src=""img/orange-n.png"" border=""10"">","null","trial","null","","0.2,0.8","2:nogo_b","0",""
"null","","html-keyboard-response","137","402665","0.0-4.0-2.32","","<div style=""font-size:60px;"">+</div>","null","","","","","","",""
"817.1999999992549","","image-keyboard-response","138","403485","0.0-4.0-0.33","","img/yellow.png","32","trial","32","true","0.8,0.2","1:go_a","",""
"null","","html-keyboard-response","139","404490","0.0-4.0-1.33","","<img src=""img/yellow-r.png"" border=""10"">","null","trial","32","","0.8,0.2","1:go_a","1",""
"null","","html-keyboard-response","140","405491","0.0-4.0-2.33","","<div style=""font-size:60px;"">+</div>","null","","","","","","",""
"null","","image-keyboard-response","141","406995","0.0-4.0-0.34","","img/orange.png","null","trial","null","true","0.2,0.8","2:nogo_b","",""
"null","","html-keyboard-response","142","407999","0.0-4.0-1.34","","<img src=""img/orange-n.png"">","null","trial","null","","0.2,0.8","2:nogo_b","0",""
"null","","html-keyboard-response","143","409004","0.0-4.0-2.34","","<div style=""font-size:60px;"">+</div>","null","","","","","","",""
"485.59999999962747","","image-keyboard-response","144","409492","0.0-4.0-0.35","","img/yellow.png","32","trial","32","true","0.8,0.2","1:go_a","",""
"null","","html-keyboard-response","145","410500","0.0-4.0-1.35","","<img src=""img/yellow-r.png"" border=""10"">","null","trial","32","","0.8,0.2","1:go_a","1",""
"null","","html-keyboard-response","146","411503","0.0-4.0-2.35","","<div style=""font-size:60px;"">+</div>","null","","","","","","",""
"null","","image-keyboard-response","147","413005","0.0-4.0-0.36","","img/yellow.png","null","trial","32","false","0.8,0.2","1:go_a","",""
"null","","html-keyboard-response","148","414013","0.0-4.0-1.36","","<img src=""img/yellow-n.png"">","null","trial","32","","0.8,0.2","1:go_a","0",""
"null","","html-keyboard-response","149","415023","0.0-4.0-2.36","","<div style=""font-size:60px;"">+</div>","null","","","","","","",""
"501.30000000074506","","image-keyboard-response","150","415526","0.0-4.0-0.37","","img/orange.png","32","trial","null","false","0.2,0.8","2:nogo_b","",""
"null","","html-keyboard-response","151","416529","0.0-4.0-1.37","","<img src=""img/orange-n.png"" border=""10"">","null","trial","null","","0.2,0.8","2:nogo_b","0",""
"null","","html-keyboard-response","152","417537","0.0-4.0-2.37","","<div style=""font-size:60px;"">+</div>","null","","","","","","",""
"null","","image-keyboard-response","153","419047","0.0-4.0-0.38","","img/yellow.png","null","trial","32","false","0.8,0.2","1:go_a","",""
"null","","html-keyboard-response","154","420051","0.0-4.0-1.38","","<img src=""img/yellow-n.png"">","null","trial","32","","0.8,0.2","1:go_a","0",""
"null","","html-keyboard-response","155","421057","0.0-4.0-2.38","","<div style=""font-size:60px;"">+</div>","null","","","","","","",""
"631.3000000007451","","image-keyboard-response","156","421691","0.0-4.0-0.39","","img/orange.png","32","trial","null","false","0.2,0.8","2:nogo_b","",""
"null","","html-keyboard-response","157","422695","0.0-4.0-1.39","","<img src=""img/orange-n.png"" border=""10"">","null","trial","null","","0.2,0.8","2:nogo_b","0",""
"null","","html-keyboard-response","158","423706","0.0-4.0-2.39","","<div style=""font-size:60px;"">+</div>","null","","","","","","",""
"null","","image-keyboard-response","159","425208","0.0-4.0-0.40","","img/yellow.png","null","trial","32","false","0.8,0.2","1:go_a","",""
"null","","html-keyboard-response","160","426213","0.0-4.0-1.40","","<img src=""img/yellow-n.png"">","null","trial","32","","0.8,0.2","1:go_a","0",""
"null","","html-keyboard-response","161","427215","0.0-4.0-2.40","","<div style=""font-size:60px;"">+</div>","null","","","","","","",""
"1018.6999999992549","","image-keyboard-response","162","428236","0.0-4.0-0.41","","img/orange.png","32","trial","null","false","0.2,0.8","2:nogo_b","",""
"null","","html-keyboard-response","163","429239","0.0-4.0-1.41","","<img src=""img/orange-n.png"" border=""10"">","null","trial","null","","0.2,0.8","2:nogo_b","0",""
"null","","html-keyboard-response","164","430243","0.0-4.0-2.41","","<div style=""font-size:60px;"">+</div>","null","","","","","","",""
"null","","image-keyboard-response","165","431745","0.0-4.0-0.42","","img/yellow.png","null","trial","32","false","0.8,0.2","1:go_a","",""
"null","","html-keyboard-response","166","432754","0.0-4.0-1.42","","<img src=""img/yellow-n.png"">","null","trial","32","","0.8,0.2","1:go_a","0",""
"null","","html-keyboard-response","167","433758","0.0-4.0-2.42","","<div style=""font-size:60px;"">+</div>","null","","","","","","",""
"null","","image-keyboard-response","168","435262","0.0-4.0-0.43","","img/orange.png","null","trial","null","true","0.2,0.8","2:nogo_b","",""
"null","","html-keyboard-response","169","436264","0.0-4.0-1.43","","<img src=""img/orange-r.png"">","null","trial","null","","0.2,0.8","2:nogo_b","1",""
"null","","html-keyboard-response","170","437272","0.0-4.0-2.43","","<div style=""font-size:60px;"">+</div>","null","","","","","","",""
"769.6000000014901","","image-keyboard-response","171","438044","0.0-4.0-0.44","","img/orange.png","32","trial","null","false","0.2,0.8","2:nogo_b","",""
"null","","html-keyboard-response","172","439056","0.0-4.0-1.44","","<img src=""img/orange-n.png"" border=""10"">","null","trial","null","","0.2,0.8","2:nogo_b","0",""
"null","","html-keyboard-response","173","440058","0.0-4.0-2.44","","<div style=""font-size:60px;"">+</div>","null","","","","","","",""
"488","","image-keyboard-response","174","440549","0.0-4.0-0.45","","img/yellow.png","32","trial","32","true","0.8,0.2","1:go_a","",""
"null","","html-keyboard-response","175","441559","0.0-4.0-1.45","","<img src=""img/yellow-r.png"" border=""10"">","null","trial","32","","0.8,0.2","1:go_a","1",""
"null","","html-keyboard-response","176","442562","0.0-4.0-2.45","","<div style=""font-size:60px;"">+</div>","null","","","","","","",""
"null","","image-keyboard-response","177","444065","0.0-4.0-0.46","","img/yellow.png","null","trial","32","false","0.8,0.2","1:go_a","",""
"null","","html-keyboard-response","178","445083","0.0-4.0-1.46","","<img src=""img/yellow-n.png"">","null","trial","32","","0.8,0.2","1:go_a","0",""
"null","","html-keyboard-response","179","446084","0.0-4.0-2.46","","<div style=""font-size:60px;"">+</div>","null","","","","","","",""
"660.5999999996275","","image-keyboard-response","180","446747","0.0-4.0-0.47","","img/orange.png","32","trial","null","false","0.2,0.8","2:nogo_b","",""
"null","","html-keyboard-response","181","447750","0.0-4.0-1.47","","<img src=""img/orange-n.png"" border=""10"">","null","trial","null","","0.2,0.8","2:nogo_b","0",""
"null","","html-keyboard-response","182","448757","0.0-4.0-2.47","","<div style=""font-size:60px;"">+</div>","null","","","","","","",""
"null","","image-keyboard-response","183","450273","0.0-4.0-0.48","","img/yellow.png","null","trial","32","false","0.8,0.2","1:go_a","",""
"null","","html-keyboard-response","184","451282","0.0-4.0-1.48","","<img src=""img/yellow-r.png"">","null","trial","32","","0.8,0.2","1:go_a","1",""
"null","","html-keyboard-response","185","452286","0.0-4.0-2.48","","<div style=""font-size:60px;"">+</div>","null","","","","","","",""
"1060","","image-keyboard-response","186","453348","0.0-4.0-0.49","","img/orange.png","32","trial","null","false","0.2,0.8","2:nogo_b","",""
"null","","html-keyboard-response","187","454362","0.0-4.0-1.49","","<img src=""img/orange-r.png"" border=""10"">","null","trial","null","","0.2,0.8","2:nogo_b","1",""
"null","","html-keyboard-response","188","455380","0.0-4.0-2.49","","<div style=""font-size:60px;"">+</div>","null","","","","","","",""
"null","","image-keyboard-response","189","456913","0.0-4.0-0.50","","img/yellow.png","null","trial","32","false","0.8,0.2","1:go_a","",""
"null","","html-keyboard-response","190","457916","0.0-4.0-1.50","","<img src=""img/yellow-n.png"">","null","trial","32","","0.8,0.2","1:go_a","0",""
"null","","html-keyboard-response","191","458927","0.0-4.0-2.50","","<div style=""font-size:60px;"">+</div>","null","","","","","","",""
"null","","image-keyboard-response","192","460429","0.0-4.0-0.51","","img/orange.png","null","trial","null","true","0.2,0.8","2:nogo_b","",""
"null","","html-keyboard-response","193","461434","0.0-4.0-1.51","","<img src=""img/orange-r.png"">","null","trial","null","","0.2,0.8","2:nogo_b","1",""
"null","","html-keyboard-response","194","462447","0.0-4.0-2.51","","<div style=""font-size:60px;"">+</div>","null","","","","","","",""
"1147.199999999255","","image-keyboard-response","195","463597","0.0-4.0-0.52","","img/yellow.png","32","trial","32","true","0.8,0.2","1:go_a","",""
"null","","html-keyboard-response","196","464615","0.0-4.0-1.52","","<img src=""img/yellow-n.png"" border=""10"">","null","trial","32","","0.8,0.2","1:go_a","0",""
"null","","html-keyboard-response","197","465623","0.0-4.0-2.52","","<div style=""font-size:60px;"">+</div>","null","","","","","","",""
"1034.6000000014901","","image-keyboard-response","198","466660","0.0-4.0-0.53","","img/orange.png","32","trial","null","false","0.2,0.8","2:nogo_b","",""
"null","","html-keyboard-response","199","467666","0.0-4.0-1.53","","<img src=""img/orange-n.png"" border=""10"">","null","trial","null","","0.2,0.8","2:nogo_b","0",""
"null","","html-keyboard-response","200","468671","0.0-4.0-2.53","","<div style=""font-size:60px;"">+</div>","null","","","","","","",""
"898","","image-keyboard-response","201","469571","0.0-4.0-0.54","","img/orange.png","32","trial","null","false","0.2,0.8","2:nogo_b","",""
"null","","html-keyboard-response","202","470584","0.0-4.0-1.54","","<img src=""img/orange-n.png"" border=""10"">","null","trial","null","","0.2,0.8","2:nogo_b","0",""
"null","","html-keyboard-response","203","471588","0.0-4.0-2.54","","<div style=""font-size:60px;"">+</div>","null","","","","","","",""
"852.2999999988824","","image-keyboard-response","204","472442","0.0-4.0-0.55","","img/yellow.png","32","trial","32","true","0.8,0.2","1:go_a","",""
"null","","html-keyboard-response","205","473459","0.0-4.0-1.55","","<img src=""img/yellow-r.png"" border=""10"">","null","trial","32","","0.8,0.2","1:go_a","1",""
"null","","html-keyboard-response","206","474463","0.0-4.0-2.55","","<div style=""font-size:60px;"">+</div>","null","","","","","","",""
"null","","image-keyboard-response","207","475979","0.0-4.0-0.56","","img/orange.png","null","trial","null","true","0.2,0.8","2:nogo_b","",""
"null","","html-keyboard-response","208","476992","0.0-4.0-1.56","","<img src=""img/orange-n.png"">","null","trial","null","","0.2,0.8","2:nogo_b","0",""
"null","","html-keyboard-response","209","477995","0.0-4.0-2.56","","<div style=""font-size:60px;"">+</div>","null","","","","","","",""
"975","","image-keyboard-response","210","478972","0.0-4.0-0.57","","img/yellow.png","32","trial","32","true","0.8,0.2","1:go_a","",""
"null","","html-keyboard-response","211","479988","0.0-4.0-1.57","","<img src=""img/yellow-r.png"" border=""10"">","null","trial","32","","0.8,0.2","1:go_a","1",""
"null","","html-keyboard-response","212","480991","0.0-4.0-2.57","","<div style=""font-size:60px;"">+</div>","null","","","","","","",""
"937.0999999996275","","image-keyboard-response","213","481930","0.0-4.0-0.58","","img/orange.png","32","trial","null","false","0.2,0.8","2:nogo_b","",""
"null","","html-keyboard-response","214","482944","0.0-4.0-1.58","","<img src=""img/orange-n.png"" border=""10"">","null","trial","null","","0.2,0.8","2:nogo_b","0",""
"null","","html-keyboard-response","215","483951","0.0-4.0-2.58","","<div style=""font-size:60px;"">+</div>","null","","","","","","",""
"null","","image-keyboard-response","216","485464","0.0-4.0-0.59","","img/yellow.png","null","trial","32","false","0.8,0.2","1:go_a","",""
"null","","html-keyboard-response","217","486477","0.0-4.0-1.59","","<img src=""img/yellow-n.png"">","null","trial","32","","0.8,0.2","1:go_a","0",""
"null","","html-keyboard-response","218","487488","0.0-4.0-2.59","","<div style=""font-size:60px;"">+</div>","null","","","","","","",""
"10192.799999998882","","instructions","219","497681","0.0-5.0","[{""page_index"":0,""viewing_time"":10192.099999999627}]","","","","","","","","",""
"1102.199999999255","","image-keyboard-response","220","498788","0.0-6.0-0.0","","img/orange.png","32","trial","32","true","0.6,0.4","3:go_c","",""
"null","","html-keyboard-response","221","499798","0.0-6.0-1.0","","<img src=""img/orange-r.png"" border=""10"">","null","trial","32","","0.6,0.4","3:go_c","1",""
"null","","html-keyboard-response","222","500802","0.0-6.0-2.0","","<div style=""font-size:60px;"">+</div>","null","","","","","","",""
"null","","image-keyboard-response","223","502318","0.0-6.0-0.1","","img/purple.png","null","trial","null","true","0.4,0.6","4:nogo_d","",""
"null","","html-keyboard-response","224","503330","0.0-6.0-1.1","","<img src=""img/purple-n.png"">","null","trial","null","","0.4,0.6","4:nogo_d","0",""
"null","","html-keyboard-response","225","504336","0.0-6.0-2.1","","<div style=""font-size:60px;"">+</div>","null","","","","","","",""
"null","","image-keyboard-response","226","505843","0.0-6.0-0.2","","img/yellow.png","null","trial","32","false","0.6,0.4","1:go_a","",""
"null","","html-keyboard-response","227","506846","0.0-6.0-1.2","","<img src=""img/yellow-n.png"">","null","trial","32","","0.6,0.4","1:go_a","0",""
"null","","html-keyboard-response","228","507854","0.0-6.0-2.2","","<div style=""font-size:60px;"">+</div>","null","","","","","","",""
"null","","image-keyboard-response","229","509361","0.0-6.0-0.3","","img/red.png","null","trial","null","true","0.4,0.6","2:nogo_b","",""
"null","","html-keyboard-response","230","510373","0.0-6.0-1.3","","<img src=""img/red-n.png"">","null","trial","null","","0.4,0.6","2:nogo_b","0",""
"null","","html-keyboard-response","231","511384","0.0-6.0-2.3","","<div style=""font-size:60px;"">+</div>","null","","","","","","",""
"null","","image-keyboard-response","232","512887","0.0-6.0-0.4","","img/yellow.png","null","trial","32","false","0.6,0.4","1:go_a","",""
"null","","html-keyboard-response","233","513905","0.0-6.0-1.4","","<img src=""img/yellow-n.png"">","null","trial","32","","0.6,0.4","1:go_a","0",""
"null","","html-keyboard-response","234","514914","0.0-6.0-2.4","","<div style=""font-size:60px;"">+</div>","null","","","","","","",""
"547.3000000007451","","image-keyboard-response","235","515464","0.0-6.0-0.5","","img/purple.png","32","trial","null","false","0.4,0.6","4:nogo_d","",""
"null","","html-keyboard-response","236","516469","0.0-6.0-1.5","","<img src=""img/purple-r.png"" border=""10"">","null","trial","null","","0.4,0.6","4:nogo_d","1",""
"null","","html-keyboard-response","237","517488","0.0-6.0-2.5","","<div style=""font-size:60px;"">+</div>","null","","","","","","",""
"null","","image-keyboard-response","238","518989","0.0-6.0-0.6","","img/red.png","null","trial","null","true","0.4,0.6","2:nogo_b","",""
"null","","html-keyboard-response","239","520007","0.0-6.0-1.6","","<img src=""img/red-r.png"">","null","trial","null","","0.4,0.6","2:nogo_b","1",""
"null","","html-keyboard-response","240","521014","0.0-6.0-2.6","","<div style=""font-size:60px;"">+</div>","null","","","","","","",""
"null","","image-keyboard-response","241","522534","0.0-6.0-0.7","","img/orange.png","null","trial","32","false","0.6,0.4","3:go_c","",""
"null","","html-keyboard-response","242","523540","0.0-6.0-1.7","","<img src=""img/orange-r.png"">","null","trial","32","","0.6,0.4","3:go_c","1",""
"null","","html-keyboard-response","243","524545","0.0-6.0-2.7","","<div style=""font-size:60px;"">+</div>","null","","","","","","",""
"983.4000000003725","","image-keyboard-response","244","525531","0.0-6.0-0.8","","img/red.png","32","trial","null","false","0.4,0.6","2:nogo_b","",""
"null","","html-keyboard-response","245","526539","0.0-6.0-1.8","","<img src=""img/red-n.png"" border=""10"">","null","trial","null","","0.4,0.6","2:nogo_b","0",""
"null","","html-keyboard-response","246","527553","0.0-6.0-2.8","","<div style=""font-size:60px;"">+</div>","null","","","","","","",""
"800.8000000007451","","image-keyboard-response","247","528355","0.0-6.0-0.9","","img/orange.png","32","trial","32","true","0.6,0.4","3:go_c","",""
"null","","html-keyboard-response","248","529373","0.0-6.0-1.9","","<img src=""img/orange-r.png"" border=""10"">","null","trial","32","","0.6,0.4","3:go_c","1",""
"null","","html-keyboard-response","249","530379","0.0-6.0-2.9","","<div style=""font-size:60px;"">+</div>","null","","","","","","",""
"764.5","","image-keyboard-response","250","531147","0.0-6.0-0.10","","img/yellow.png","32","trial","32","true","0.6,0.4","1:go_a","",""
"null","","html-keyboard-response","251","532156","0.0-6.0-1.10","","<img src=""img/yellow-r.png"" border=""10"">","null","trial","32","","0.6,0.4","1:go_a","1",""
"null","","html-keyboard-response","252","533172","0.0-6.0-2.10","","<div style=""font-size:60px;"">+</div>","null","","","","","","",""
"788.5","","image-keyboard-response","253","533963","0.0-6.0-0.11","","img/purple.png","32","trial","null","false","0.4,0.6","4:nogo_d","",""
"null","","html-keyboard-response","254","534978","0.0-6.0-1.11","","<img src=""img/purple-n.png"" border=""10"">","null","trial","null","","0.4,0.6","4:nogo_d","0",""
"null","","html-keyboard-response","255","535980","0.0-6.0-2.11","","<div style=""font-size:60px;"">+</div>","null","","","","","","",""
"null","","image-keyboard-response","256","537485","0.0-6.0-0.12","","img/yellow.png","null","trial","32","false","0.6,0.4","1:go_a","",""
"null","","html-keyboard-response","257","538497","0.0-6.0-1.12","","<img src=""img/yellow-n.png"">","null","trial","32","","0.6,0.4","1:go_a","0",""
"null","","html-keyboard-response","258","539499","0.0-6.0-2.12","","<div style=""font-size:60px;"">+</div>","null","","","","","","",""
"1157.7000000011176","","image-keyboard-response","259","540660","0.0-6.0-0.13","","img/red.png","32","trial","null","false","0.4,0.6","2:nogo_b","",""
"null","","html-keyboard-response","260","541673","0.0-6.0-1.13","","<img src=""img/red-r.png"" border=""10"">","null","trial","null","","0.4,0.6","2:nogo_b","1",""
"null","","html-keyboard-response","261","542683","0.0-6.0-2.13","","<div style=""font-size:60px;"">+</div>","null","","","","","","",""
"null","","image-keyboard-response","262","544195","0.0-6.0-0.14","","img/purple.png","null","trial","null","true","0.4,0.6","4:nogo_d","",""
"null","","html-keyboard-response","263","545205","0.0-6.0-1.14","","<img src=""img/purple-r.png"">","null","trial","null","","0.4,0.6","4:nogo_d","1",""
"null","","html-keyboard-response","264","546208","0.0-6.0-2.14","","<div style=""font-size:60px;"">+</div>","null","","","","","","",""
"1041","","image-keyboard-response","265","547252","0.0-6.0-0.15","","img/orange.png","32","trial","32","true","0.6,0.4","3:go_c","",""
"null","","html-keyboard-response","266","548262","0.0-6.0-1.15","","<img src=""img/orange-r.png"" border=""10"">","null","trial","32","","0.6,0.4","3:go_c","1",""
"null","","html-keyboard-response","267","549273","0.0-6.0-2.15","","<div style=""font-size:60px;"">+</div>","null","","","","","","",""
"null","","image-keyboard-response","268","550783","0.0-6.0-0.16","","img/yellow.png","null","trial","32","false","0.6,0.4","1:go_a","",""
"null","","html-keyboard-response","269","551786","0.0-6.0-1.16","","<img src=""img/yellow-r.png"">","null","trial","32","","0.6,0.4","1:go_a","1",""
"null","","html-keyboard-response","270","552790","0.0-6.0-2.16","","<div style=""font-size:60px;"">+</div>","null","","","","","","",""
"859.6999999992549","","image-keyboard-response","271","553652","0.0-6.0-0.17","","img/purple.png","32","trial","null","false","0.4,0.6","4:nogo_d","",""
"null","","html-keyboard-response","272","554658","0.0-6.0-1.17","","<img src=""img/purple-r.png"" border=""10"">","null","trial","null","","0.4,0.6","4:nogo_d","1",""
"null","","html-keyboard-response","273","555660","0.0-6.0-2.17","","<div style=""font-size:60px;"">+</div>","null","","","","","","",""
"1054.5999999996275","","image-keyboard-response","274","556716","0.0-6.0-0.18","","img/orange.png","32","trial","32","true","0.6,0.4","3:go_c","",""
"null","","html-keyboard-response","275","557728","0.0-6.0-1.18","","<img src=""img/orange-r.png"" border=""10"">","null","trial","32","","0.6,0.4","3:go_c","1",""
"null","","html-keyboard-response","276","558729","0.0-6.0-2.18","","<div style=""font-size:60px;"">+</div>","null","","","","","","",""
"null","","image-keyboard-response","277","560235","0.0-6.0-0.19","","img/red.png","null","trial","null","true","0.4,0.6","2:nogo_b","",""
"null","","html-keyboard-response","278","561244","0.0-6.0-1.19","","<img src=""img/red-r.png"">","null","trial","null","","0.4,0.6","2:nogo_b","1",""
"null","","html-keyboard-response","279","562254","0.0-6.0-2.19","","<div style=""font-size:60px;"">+</div>","null","","","","","","",""
"1108.199999999255","","image-keyboard-response","280","563365","0.0-6.0-0.20","","img/purple.png","32","trial","null","false","0.4,0.6","4:nogo_d","",""
"null","","html-keyboard-response","281","564377","0.0-6.0-1.20","","<img src=""img/purple-r.png"" border=""10"">","null","trial","null","","0.4,0.6","4:nogo_d","1",""
"null","","html-keyboard-response","282","565384","0.0-6.0-2.20","","<div style=""font-size:60px;"">+</div>","null","","","","","","",""
"1183.800000000745","","image-keyboard-response","283","566572","0.0-6.0-0.21","","img/red.png","32","trial","null","false","0.4,0.6","2:nogo_b","",""
"null","","html-keyboard-response","284","567577","0.0-6.0-1.21","","<img src=""img/red-n.png"" border=""10"">","null","trial","null","","0.4,0.6","2:nogo_b","0",""
"null","","html-keyboard-response","285","568581","0.0-6.0-2.21","","<div style=""font-size:60px;"">+</div>","null","","","","","","",""
"null","","image-keyboard-response","286","570089","0.0-6.0-0.22","","img/yellow.png","null","trial","32","false","0.6,0.4","1:go_a","",""
"null","","html-keyboard-response","287","571092","0.0-6.0-1.22","","<img src=""img/yellow-n.png"">","null","trial","32","","0.6,0.4","1:go_a","0",""
"null","","html-keyboard-response","288","572108","0.0-6.0-2.22","","<div style=""font-size:60px;"">+</div>","null","","","","","","",""
"1173.6000000014901","","image-keyboard-response","289","573284","0.0-6.0-0.23","","img/orange.png","32","trial","32","true","0.6,0.4","3:go_c","",""
"null","","html-keyboard-response","290","574288","0.0-6.0-1.23","","<img src=""img/orange-r.png"" border=""10"">","null","trial","32","","0.6,0.4","3:go_c","1",""
"null","","html-keyboard-response","291","575294","0.0-6.0-2.23","","<div style=""font-size:60px;"">+</div>","null","","","","","","",""
"null","","image-keyboard-response","292","576805","0.0-6.0-0.24","","img/orange.png","null","trial","32","false","0.6,0.4","3:go_c","",""
"null","","html-keyboard-response","293","577810","0.0-6.0-1.24","","<img src=""img/orange-r.png"">","null","trial","32","","0.6,0.4","3:go_c","1",""
"null","","html-keyboard-response","294","578820","0.0-6.0-2.24","","<div style=""font-size:60px;"">+</div>","null","","","","","","",""
"1109.1000000014901","","image-keyboard-response","295","579932","0.0-6.0-0.25","","img/yellow.png","32","trial","32","true","0.6,0.4","1:go_a","",""
"null","","html-keyboard-response","296","580942","0.0-6.0-1.25","","<img src=""img/yellow-n.png"" border=""10"">","null","trial","32","","0.6,0.4","1:go_a","0",""
"null","","html-keyboard-response","297","581956","0.0-6.0-2.25","","<div style=""font-size:60px;"">+</div>","null","","","","","","",""
"1077.9000000003725","","image-keyboard-response","298","583036","0.0-6.0-0.26","","img/red.png","32","trial","null","false","0.4,0.6","2:nogo_b","",""
"null","","html-keyboard-response","299","584039","0.0-6.0-1.26","","<img src=""img/red-n.png"" border=""10"">","null","trial","null","","0.4,0.6","2:nogo_b","0",""
"null","","html-keyboard-response","300","585058","0.0-6.0-2.26","","<div style=""font-size:60px;"">+</div>","null","","","","","","",""
"743.7000000011176","","image-keyboard-response","301","585804","0.0-6.0-0.27","","img/purple.png","32","trial","null","false","0.4,0.6","4:nogo_d","",""
"null","","html-keyboard-response","302","586815","0.0-6.0-1.27","","<img src=""img/purple-r.png"" border=""10"">","null","trial","null","","0.4,0.6","4:nogo_d","1",""
"null","","html-keyboard-response","303","587827","0.0-6.0-2.27","","<div style=""font-size:60px;"">+</div>","null","","","","","","",""
"694.8000000007451","","image-keyboard-response","304","588524","0.0-6.0-0.28","","img/purple.png","32","trial","null","false","0.4,0.6","4:nogo_d","",""
"null","","html-keyboard-response","305","589540","0.0-6.0-1.28","","<img src=""img/purple-r.png"" border=""10"">","null","trial","null","","0.4,0.6","4:nogo_d","1",""
"null","","html-keyboard-response","306","590546","0.0-6.0-2.28","","<div style=""font-size:60px;"">+</div>","null","","","","","","",""
"null","","image-keyboard-response","307","592051","0.0-6.0-0.29","","img/red.png","null","trial","null","true","0.4,0.6","2:nogo_b","",""
"null","","html-keyboard-response","308","593055","0.0-6.0-1.29","","<img src=""img/red-n.png"">","null","trial","null","","0.4,0.6","2:nogo_b","0",""
"null","","html-keyboard-response","309","594056","0.0-6.0-2.29","","<div style=""font-size:60px;"">+</div>","null","","","","","","",""
"968.1000000014901","","image-keyboard-response","310","595026","0.0-6.0-0.30","","img/yellow.png","32","trial","32","true","0.6,0.4","1:go_a","",""
"null","","html-keyboard-response","311","596030","0.0-6.0-1.30","","<img src=""img/yellow-n.png"" border=""10"">","null","trial","32","","0.6,0.4","1:go_a","0",""
"null","","html-keyboard-response","312","597036","0.0-6.0-2.30","","<div style=""font-size:60px;"">+</div>","null","","","","","","",""
"878","","image-keyboard-response","313","597915","0.0-6.0-0.31","","img/orange.png","32","trial","32","true","0.6,0.4","3:go_c","",""
"null","","html-keyboard-response","314","598928","0.0-6.0-1.31","","<img src=""img/orange-n.png"" border=""10"">","null","trial","32","","0.6,0.4","3:go_c","0",""
"null","","html-keyboard-response","315","599935","0.0-6.0-2.31","","<div style=""font-size:60px;"">+</div>","null","","","","","","",""
"null","","image-keyboard-response","316","601442","0.0-6.0-0.32","","img/orange.png","null","trial","32","false","0.6,0.4","3:go_c","",""
"null","","html-keyboard-response","317","602458","0.0-6.0-1.32","","<img src=""img/orange-n.png"">","null","trial","32","","0.6,0.4","3:go_c","0",""
"null","","html-keyboard-response","318","603468","0.0-6.0-2.32","","<div style=""font-size:60px;"">+</div>","null","","","","","","",""
"1061.199999999255","","image-keyboard-response","319","604532","0.0-6.0-0.33","","img/red.png","32","trial","null","false","0.4,0.6","2:nogo_b","",""
"null","","html-keyboard-response","320","605541","0.0-6.0-1.33","","<img src=""img/red-r.png"" border=""10"">","null","trial","null","","0.4,0.6","2:nogo_b","1",""
"null","","html-keyboard-response","321","606550","0.0-6.0-2.33","","<div style=""font-size:60px;"">+</div>","null","","","","","","",""
"732.0999999996275","","image-keyboard-response","322","607284","0.0-6.0-0.34","","img/purple.png","32","trial","null","false","0.4,0.6","4:nogo_d","",""
"null","","html-keyboard-response","323","608296","0.0-6.0-1.34","","<img src=""img/purple-n.png"" border=""10"">","null","trial","null","","0.4,0.6","4:nogo_d","0",""
"null","","html-keyboard-response","324","609304","0.0-6.0-2.34","","<div style=""font-size:60px;"">+</div>","null","","","","","","",""
"null","","image-keyboard-response","325","610808","0.0-6.0-0.35","","img/yellow.png","null","trial","32","false","0.6,0.4","1:go_a","",""
"null","","html-keyboard-response","326","611811","0.0-6.0-1.35","","<img src=""img/yellow-r.png"">","null","trial","32","","0.6,0.4","1:go_a","1",""
"null","","html-keyboard-response","327","612814","0.0-6.0-2.35","","<div style=""font-size:60px;"">+</div>","null","","","","","","",""
"null","","image-keyboard-response","328","614328","0.0-6.0-0.36","","img/orange.png","null","trial","32","false","0.6,0.4","3:go_c","",""
"null","","html-keyboard-response","329","615341","0.0-6.0-1.36","","<img src=""img/orange-r.png"">","null","trial","32","","0.6,0.4","3:go_c","1",""
"null","","html-keyboard-response","330","616348","0.0-6.0-2.36","","<div style=""font-size:60px;"">+</div>","null","","","","","","",""
"1021.5","","image-keyboard-response","331","617372","0.0-6.0-0.37","","img/purple.png","32","trial","null","false","0.4,0.6","4:nogo_d","",""
"null","","html-keyboard-response","332","618389","0.0-6.0-1.37","","<img src=""img/purple-n.png"" border=""10"">","null","trial","null","","0.4,0.6","4:nogo_d","0",""
"null","","html-keyboard-response","333","619403","0.0-6.0-2.37","","<div style=""font-size:60px;"">+</div>","null","","","","","","",""
"926.7000000011176","","image-keyboard-response","334","620331","0.0-6.0-0.38","","img/red.png","32","trial","null","false","0.4,0.6","2:nogo_b","",""
"null","","html-keyboard-response","335","621346","0.0-6.0-1.38","","<img src=""img/red-n.png"" border=""10"">","null","trial","null","","0.4,0.6","2:nogo_b","0",""
"null","","html-keyboard-response","336","622359","0.0-6.0-2.38","","<div style=""font-size:60px;"">+</div>","null","","","","","","",""
"754.3999999985099","","image-keyboard-response","337","623115","0.0-6.0-0.39","","img/yellow.png","32","trial","32","true","0.6,0.4","1:go_a","",""
"null","","html-keyboard-response","338","624128","0.0-6.0-1.39","","<img src=""img/yellow-r.png"" border=""10"">","null","trial","32","","0.6,0.4","1:go_a","1",""
"null","","html-keyboard-response","339","625130","0.0-6.0-2.39","","<div style=""font-size:60px;"">+</div>","null","","","","","","",""
"754.5","","image-keyboard-response","340","625886","0.0-6.0-0.40","","img/orange.png","32","trial","32","true","0.6,0.4","3:go_c","",""
"null","","html-keyboard-response","341","626899","0.0-6.0-1.40","","<img src=""img/orange-n.png"" border=""10"">","null","trial","32","","0.6,0.4","3:go_c","0",""
"null","","html-keyboard-response","342","627905","0.0-6.0-2.40","","<div style=""font-size:60px;"">+</div>","null","","","","","","",""
"1385.300000000745","","image-keyboard-response","343","629292","0.0-6.0-0.41","","img/red.png","32","trial","null","false","0.4,0.6","2:nogo_b","",""
"null","","html-keyboard-response","344","630304","0.0-6.0-1.41","","<img src=""img/red-n.png"" border=""10"">","null","trial","null","","0.4,0.6","2:nogo_b","0",""
"null","","html-keyboard-response","345","631306","0.0-6.0-2.41","","<div style=""font-size:60px;"">+</div>","null","","","","","","",""
"990.7999999988824","","image-keyboard-response","346","632299","0.0-6.0-0.42","","img/purple.png","32","trial","null","false","0.4,0.6","4:nogo_d","",""
"null","","html-keyboard-response","347","633313","0.0-6.0-1.42","","<img src=""img/purple-n.png"" border=""10"">","null","trial","null","","0.4,0.6","4:nogo_d","0",""
"null","","html-keyboard-response","348","634328","0.0-6.0-2.42","","<div style=""font-size:60px;"">+</div>","null","","","","","","",""
"null","","image-keyboard-response","349","635834","0.0-6.0-0.43","","img/yellow.png","null","trial","32","false","0.6,0.4","1:go_a","",""
"null","","html-keyboard-response","350","636838","0.0-6.0-1.43","","<img src=""img/yellow-n.png"">","null","trial","32","","0.6,0.4","1:go_a","0",""
"null","","html-keyboard-response","351","637840","0.0-6.0-2.43","","<div style=""font-size:60px;"">+</div>","null","","","","","","",""
"null","","image-keyboard-response","352","639354","0.0-6.0-0.44","","img/red.png","null","trial","null","true","0.4,0.6","2:nogo_b","",""
"null","","html-keyboard-response","353","640358","0.0-6.0-1.44","","<img src=""img/red-r.png"">","null","trial","null","","0.4,0.6","2:nogo_b","1",""
"null","","html-keyboard-response","354","641375","0.0-6.0-2.44","","<div style=""font-size:60px;"">+</div>","null","","","","","","",""
"817.5","","image-keyboard-response","355","642196","0.0-6.0-0.45","","img/yellow.png","32","trial","32","true","0.6,0.4","1:go_a","",""
"null","","html-keyboard-response","356","643199","0.0-6.0-1.45","","<img src=""img/yellow-r.png"" border=""10"">","null","trial","32","","0.6,0.4","1:go_a","1",""
"null","","html-keyboard-response","357","644206","0.0-6.0-2.45","","<div style=""font-size:60px;"">+</div>","null","","","","","","",""
"null","","image-keyboard-response","358","645723","0.0-6.0-0.46","","img/orange.png","null","trial","32","false","0.6,0.4","3:go_c","",""
"null","","html-keyboard-response","359","646727","0.0-6.0-1.46","","<img src=""img/orange-r.png"">","null","trial","32","","0.6,0.4","3:go_c","1",""
"null","","html-keyboard-response","360","647729","0.0-6.0-2.46","","<div style=""font-size:60px;"">+</div>","null","","","","","","",""
"null","","image-keyboard-response","361","649236","0.0-6.0-0.47","","img/purple.png","null","trial","null","true","0.4,0.6","4:nogo_d","",""
"null","","html-keyboard-response","362","650239","0.0-6.0-1.47","","<img src=""img/purple-n.png"">","null","trial","null","","0.4,0.6","4:nogo_d","0",""
"null","","html-keyboard-response","363","651255","0.0-6.0-2.47","","<div style=""font-size:60px;"">+</div>","null","","","","","","",""
"null","","image-keyboard-response","364","652759","0.0-6.0-0.48","","img/purple.png","null","trial","null","true","0.4,0.6","4:nogo_d","",""
"null","","html-keyboard-response","365","653776","0.0-6.0-1.48","","<img src=""img/purple-r.png"">","null","trial","null","","0.4,0.6","4:nogo_d","1",""
"null","","html-keyboard-response","366","654777","0.0-6.0-2.48","","<div style=""font-size:60px;"">+</div>","null","","","","","","",""
"1144.5999999996275","","image-keyboard-response","367","655924","0.0-6.0-0.49","","img/yellow.png","32","trial","32","true","0.6,0.4","1:go_a","",""
"null","","html-keyboard-response","368","656928","0.0-6.0-1.49","","<img src=""img/yellow-n.png"" border=""10"">","null","trial","32","","0.6,0.4","1:go_a","0",""
"null","","html-keyboard-response","369","657931","0.0-6.0-2.49","","<div style=""font-size:60px;"">+</div>","null","","","","","","",""
"1334","","image-keyboard-response","370","659267","0.0-6.0-0.50","","img/red.png","32","trial","null","false","0.4,0.6","2:nogo_b","",""
"null","","html-keyboard-response","371","660274","0.0-6.0-1.50","","<img src=""img/red-r.png"" border=""10"">","null","trial","null","","0.4,0.6","2:nogo_b","1",""
"null","","html-keyboard-response","372","661276","0.0-6.0-2.50","","<div style=""font-size:60px;"">+</div>","null","","","","","","",""
"734.1000000014901","","image-keyboard-response","373","662011","0.0-6.0-0.51","","img/orange.png","32","trial","32","true","0.6,0.4","3:go_c","",""
"null","","html-keyboard-response","374","663015","0.0-6.0-1.51","","<img src=""img/orange-r.png"" border=""10"">","null","trial","32","","0.6,0.4","3:go_c","1",""
"null","","html-keyboard-response","375","664026","0.0-6.0-2.51","","<div style=""font-size:60px;"">+</div>","null","","","","","","",""
"945.7999999988824","","image-keyboard-response","376","664975","0.0-6.0-0.52","","img/orange.png","32","trial","32","true","0.6,0.4","3:go_c","",""
"null","","html-keyboard-response","377","665980","0.0-6.0-1.52","","<img src=""img/orange-n.png"" border=""10"">","null","trial","32","","0.6,0.4","3:go_c","0",""
"null","","html-keyboard-response","378","666988","0.0-6.0-2.52","","<div style=""font-size:60px;"">+</div>","null","","","","","","",""
"640.8000000007451","","image-keyboard-response","379","667630","0.0-6.0-0.53","","img/purple.png","32","trial","null","false","0.4,0.6","4:nogo_d","",""
"null","","html-keyboard-response","380","668638","0.0-6.0-1.53","","<img src=""img/purple-r.png"" border=""10"">","null","trial","null","","0.4,0.6","4:nogo_d","1",""
"null","","html-keyboard-response","381","669653","0.0-6.0-2.53","","<div style=""font-size:60px;"">+</div>","null","","","","","","",""
"null","","image-keyboard-response","382","671156","0.0-6.0-0.54","","img/yellow.png","null","trial","32","false","0.6,0.4","1:go_a","",""
"null","","html-keyboard-response","383","672166","0.0-6.0-1.54","","<img src=""img/yellow-n.png"">","null","trial","32","","0.6,0.4","1:go_a","0",""
"null","","html-keyboard-response","384","673169","0.0-6.0-2.54","","<div style=""font-size:60px;"">+</div>","null","","","","","","",""
"1096.9000000003725","","image-keyboard-response","385","674268","0.0-6.0-0.55","","img/red.png","32","trial","null","false","0.4,0.6","2:nogo_b","",""
"null","","html-keyboard-response","386","675272","0.0-6.0-1.55","","<img src=""img/red-r.png"" border=""10"">","null","trial","null","","0.4,0.6","2:nogo_b","1",""
"null","","html-keyboard-response","387","676286","0.0-6.0-2.55","","<div style=""font-size:60px;"">+</div>","null","","","","","","",""
"null","","image-keyboard-response","388","677792","0.0-6.0-0.56","","img/red.png","null","trial","null","true","0.4,0.6","2:nogo_b","",""
"null","","html-keyboard-response","389","678799","0.0-6.0-1.56","","<img src=""img/red-r.png"">","null","trial","null","","0.4,0.6","2:nogo_b","1",""
"null","","html-keyboard-response","390","679806","0.0-6.0-2.56","","<div style=""font-size:60px;"">+</div>","null","","","","","","",""
"null","","image-keyboard-response","391","681308","0.0-6.0-0.57","","img/yellow.png","null","trial","32","false","0.6,0.4","1:go_a","",""
"null","","html-keyboard-response","392","682319","0.0-6.0-1.57","","<img src=""img/yellow-n.png"">","null","trial","32","","0.6,0.4","1:go_a","0",""
"null","","html-keyboard-response","393","683324","0.0-6.0-2.57","","<div style=""font-size:60px;"">+</div>","null","","","","","","",""
"774.2999999988824","","image-keyboard-response","394","684099","0.0-6.0-0.58","","img/purple.png","32","trial","null","false","0.4,0.6","4:nogo_d","",""
"null","","html-keyboard-response","395","685102","0.0-6.0-1.58","","<img src=""img/purple-r.png"" border=""10"">","null","trial","null","","0.4,0.6","4:nogo_d","1",""
"null","","html-keyboard-response","396","686104","0.0-6.0-2.58","","<div style=""font-size:60px;"">+</div>","null","","","","","","",""
"1249.300000000745","","image-keyboard-response","397","687356","0.0-6.0-0.59","","img/orange.png","32","trial","32","true","0.6,0.4","3:go_c","",""
"null","","html-keyboard-response","398","688374","0.0-6.0-1.59","","<img src=""img/orange-n.png"" border=""10"">","null","trial","32","","0.6,0.4","3:go_c","0",""
"null","","html-keyboard-response","399","689390","0.0-6.0-2.59","","<div style=""font-size:60px;"">+</div>","null","","","","","","",""
"1044.699999999255","","image-keyboard-response","400","690436","0.0-6.0-0.60","","img/orange.png","32","trial","32","true","0.6,0.4","3:go_c","",""
"null","","html-keyboard-response","401","691454","0.0-6.0-1.60","","<img src=""img/orange-n.png"" border=""10"">","null","trial","32","","0.6,0.4","3:go_c","0",""
"null","","html-keyboard-response","402","692456","0.0-6.0-2.60","","<div style=""font-size:60px;"">+</div>","null","","","","","","",""
"null","","image-keyboard-response","403","693964","0.0-6.0-0.61","","img/red.png","null","trial","null","true","0.4,0.6","2:nogo_b","",""
"null","","html-keyboard-response","404","694967","0.0-6.0-1.61","","<img src=""img/red-r.png"">","null","trial","null","","0.4,0.6","2:nogo_b","1",""
"null","","html-keyboard-response","405","695979","0.0-6.0-2.61","","<div style=""font-size:60px;"">+</div>","null","","","","","","",""
"null","","image-keyboard-response","406","697494","0.0-6.0-0.62","","img/yellow.png","null","trial","32","false","0.6,0.4","1:go_a","",""
"null","","html-keyboard-response","407","698502","0.0-6.0-1.62","","<img src=""img/yellow-r.png"">","null","trial","32","","0.6,0.4","1:go_a","1",""
"null","","html-keyboard-response","408","699516","0.0-6.0-2.62","","<div style=""font-size:60px;"">+</div>","null","","","","","","",""
"null","","image-keyboard-response","409","701019","0.0-6.0-0.63","","img/purple.png","null","trial","null","true","0.4,0.6","4:nogo_d","",""
"null","","html-keyboard-response","410","702028","0.0-6.0-1.63","","<img src=""img/purple-n.png"">","null","trial","null","","0.4,0.6","4:nogo_d","0",""
"null","","html-keyboard-response","411","703032","0.0-6.0-2.63","","<div style=""font-size:60px;"">+</div>","null","","","","","","",""
"null","","image-keyboard-response","412","704535","0.0-6.0-0.64","","img/orange.png","null","trial","32","false","0.6,0.4","3:go_c","",""
"null","","html-keyboard-response","413","705543","0.0-6.0-1.64","","<img src=""img/orange-n.png"">","null","trial","32","","0.6,0.4","3:go_c","0",""
"null","","html-keyboard-response","414","706557","0.0-6.0-2.64","","<div style=""font-size:60px;"">+</div>","null","","","","","","",""
"588.0999999996275","","image-keyboard-response","415","707147","0.0-6.0-0.65","","img/yellow.png","32","trial","32","true","0.6,0.4","1:go_a","",""
"null","","html-keyboard-response","416","708150","0.0-6.0-1.65","","<img src=""img/yellow-n.png"" border=""10"">","null","trial","32","","0.6,0.4","1:go_a","0",""
"null","","html-keyboard-response","417","709162","0.0-6.0-2.65","","<div style=""font-size:60px;"">+</div>","null","","","","","","",""
"486.40000000037253","","image-keyboard-response","418","709650","0.0-6.0-0.66","","img/purple.png","32","trial","null","false","0.4,0.6","4:nogo_d","",""
"null","","html-keyboard-response","419","710654","0.0-6.0-1.66","","<img src=""img/purple-r.png"" border=""10"">","null","trial","null","","0.4,0.6","4:nogo_d","1",""
"null","","html-keyboard-response","420","711668","0.0-6.0-2.66","","<div style=""font-size:60px;"">+</div>","null","","","","","","",""
"796.5","","image-keyboard-response","421","712467","0.0-6.0-0.67","","img/red.png","32","trial","null","false","0.4,0.6","2:nogo_b","",""
"null","","html-keyboard-response","422","713477","0.0-6.0-1.67","","<img src=""img/red-r.png"" border=""10"">","null","trial","null","","0.4,0.6","2:nogo_b","1",""
"null","","html-keyboard-response","423","714479","0.0-6.0-2.67","","<div style=""font-size:60px;"">+</div>","null","","","","","","",""
"993.8000000007451","","image-keyboard-response","424","715475","0.0-6.0-0.68","","img/orange.png","32","trial","32","true","0.6,0.4","3:go_c","",""
"null","","html-keyboard-response","425","716483","0.0-6.0-1.68","","<img src=""img/orange-n.png"" border=""10"">","null","trial","32","","0.6,0.4","3:go_c","0",""
"null","","html-keyboard-response","426","717491","0.0-6.0-2.68","","<div style=""font-size:60px;"">+</div>","null","","","","","","",""
"686.6000000014901","","image-keyboard-response","427","718180","0.0-6.0-0.69","","img/purple.png","32","trial","null","false","0.4,0.6","4:nogo_d","",""
"null","","html-keyboard-response","428","719199","0.0-6.0-1.69","","<img src=""img/purple-n.png"" border=""10"">","null","trial","null","","0.4,0.6","4:nogo_d","0",""
"null","","html-keyboard-response","429","720202","0.0-6.0-2.69","","<div style=""font-size:60px;"">+</div>","null","","","","","","",""
"630.9000000003725","","image-keyboard-response","430","720836","0.0-6.0-0.70","","img/red.png","32","trial","null","false","0.4,0.6","2:nogo_b","",""
"null","","html-keyboard-response","431","721848","0.0-6.0-1.70","","<img src=""img/red-r.png"" border=""10"">","null","trial","null","","0.4,0.6","2:nogo_b","1",""
"null","","html-keyboard-response","432","722850","0.0-6.0-2.70","","<div style=""font-size:60px;"">+</div>","null","","","","","","",""
"null","","image-keyboard-response","433","724367","0.0-6.0-0.71","","img/yellow.png","null","trial","32","false","0.6,0.4","1:go_a","",""
"null","","html-keyboard-response","434","725373","0.0-6.0-1.71","","<img src=""img/yellow-n.png"">","null","trial","32","","0.6,0.4","1:go_a","0",""
"null","","html-keyboard-response","435","726389","0.0-6.0-2.71","","<div style=""font-size:60px;"">+</div>","null","","","","","","",""
"null","","image-keyboard-response","436","727902","0.0-6.0-0.72","","img/yellow.png","null","trial","32","false","0.6,0.4","1:go_a","",""
"null","","html-keyboard-response","437","728906","0.0-6.0-1.72","","<img src=""img/yellow-r.png"">","null","trial","32","","0.6,0.4","1:go_a","1",""
"null","","html-keyboard-response","438","729915","0.0-6.0-2.72","","<div style=""font-size:60px;"">+</div>","null","","","","","","",""
"815.5999999996275","","image-keyboard-response","439","730733","0.0-6.0-0.73","","img/purple.png","32","trial","null","false","0.4,0.6","4:nogo_d","",""
"null","","html-keyboard-response","440","731746","0.0-6.0-1.73","","<img src=""img/purple-n.png"" border=""10"">","null","trial","null","","0.4,0.6","4:nogo_d","0",""
"null","","html-keyboard-response","441","732752","0.0-6.0-2.73","","<div style=""font-size:60px;"">+</div>","null","","","","","","",""
"1057.2999999988824","","image-keyboard-response","442","733812","0.0-6.0-0.74","","img/orange.png","32","trial","32","true","0.6,0.4","3:go_c","",""
"null","","html-keyboard-response","443","734816","0.0-6.0-1.74","","<img src=""img/orange-n.png"" border=""10"">","null","trial","32","","0.6,0.4","3:go_c","0",""
"null","","html-keyboard-response","444","735826","0.0-6.0-2.74","","<div style=""font-size:60px;"">+</div>","null","","","","","","",""
"791.3000000007451","","image-keyboard-response","445","736620","0.0-6.0-0.75","","img/red.png","32","trial","null","false","0.4,0.6","2:nogo_b","",""
"null","","html-keyboard-response","446","737633","0.0-6.0-1.75","","<img src=""img/red-n.png"" border=""10"">","null","trial","null","","0.4,0.6","2:nogo_b","0",""
"null","","html-keyboard-response","447","738634","0.0-6.0-2.75","","<div style=""font-size:60px;"">+</div>","null","","","","","","",""
"863.2000000011176","","image-keyboard-response","448","739500","0.0-6.0-0.76","","img/purple.png","32","trial","null","false","0.4,0.6","4:nogo_d","",""
"null","","html-keyboard-response","449","740515","0.0-6.0-1.76","","<img src=""img/purple-n.png"" border=""10"">","null","trial","null","","0.4,0.6","4:nogo_d","0",""
"null","","html-keyboard-response","450","741523","0.0-6.0-2.76","","<div style=""font-size:60px;"">+</div>","null","","","","","","",""
"null","","image-keyboard-response","451","743031","0.0-6.0-0.77","","img/red.png","null","trial","null","true","0.4,0.6","2:nogo_b","",""
"null","","html-keyboard-response","452","744039","0.0-6.0-1.77","","<img src=""img/red-n.png"">","null","trial","null","","0.4,0.6","2:nogo_b","0",""
"null","","html-keyboard-response","453","745048","0.0-6.0-2.77","","<div style=""font-size:60px;"">+</div>","null","","","","","","",""
"811","","image-keyboard-response","454","745860","0.0-6.0-0.78","","img/yellow.png","32","trial","32","true","0.6,0.4","1:go_a","",""
"null","","html-keyboard-response","455","746863","0.0-6.0-1.78","","<img src=""img/yellow-r.png"" border=""10"">","null","trial","32","","0.6,0.4","1:go_a","1",""
"null","","html-keyboard-response","456","747870","0.0-6.0-2.78","","<div style=""font-size:60px;"">+</div>","null","","","","","","",""
"1122.5","","image-keyboard-response","457","748995","0.0-6.0-0.79","","img/orange.png","32","trial","32","true","0.6,0.4","3:go_c","",""
"null","","html-keyboard-response","458","750019","0.0-6.0-1.79","","<img src=""img/orange-r.png"" border=""10"">","null","trial","32","","0.6,0.4","3:go_c","1",""
"null","","html-keyboard-response","459","751024","0.0-6.0-2.79","","<div style=""font-size:60px;"">+</div>","null","","","","","","",""
"null","","image-keyboard-response","460","752526","0.0-6.0-0.80","","img/red.png","null","trial","null","true","0.4,0.6","2:nogo_b","",""
"null","","html-keyboard-response","461","753539","0.0-6.0-1.80","","<img src=""img/red-n.png"">","null","trial","null","","0.4,0.6","2:nogo_b","0",""
"null","","html-keyboard-response","462","754541","0.0-6.0-2.80","","<div style=""font-size:60px;"">+</div>","null","","","","","","",""
"964.1000000014901","","image-keyboard-response","463","755508","0.0-6.0-0.81","","img/purple.png","32","trial","null","false","0.4,0.6","4:nogo_d","",""
"null","","html-keyboard-response","464","756517","0.0-6.0-1.81","","<img src=""img/purple-n.png"" border=""10"">","null","trial","null","","0.4,0.6","4:nogo_d","0",""
"null","","html-keyboard-response","465","757520","0.0-6.0-2.81","","<div style=""font-size:60px;"">+</div>","null","","","","","","",""
"889.6999999992549","","image-keyboard-response","466","758412","0.0-6.0-0.82","","img/yellow.png","32","trial","32","true","0.6,0.4","1:go_a","",""
"null","","html-keyboard-response","467","759448","0.0-6.0-1.82","","<img src=""img/yellow-r.png"" border=""10"">","null","trial","32","","0.6,0.4","1:go_a","1",""
"null","","html-keyboard-response","468","760450","0.0-6.0-2.82","","<div style=""font-size:60px;"">+</div>","null","","","","","","",""
"567.0999999996275","","image-keyboard-response","469","761020","0.0-6.0-0.83","","img/orange.png","32","trial","32","true","0.6,0.4","3:go_c","",""
"null","","html-keyboard-response","470","762052","0.0-6.0-1.83","","<img src=""img/orange-n.png"" border=""10"">","null","trial","32","","0.6,0.4","3:go_c","0",""
"null","","html-keyboard-response","471","763054","0.0-6.0-2.83","","<div style=""font-size:60px;"">+</div>","null","","","","","","",""
"747.9000000003725","","image-keyboard-response","472","763803","0.0-6.0-0.84","","img/purple.png","32","trial","null","false","0.4,0.6","4:nogo_d","",""
"null","","html-keyboard-response","473","764814","0.0-6.0-1.84","","<img src=""img/purple-n.png"" border=""10"">","null","trial","null","","0.4,0.6","4:nogo_d","0",""
"null","","html-keyboard-response","474","765822","0.0-6.0-2.84","","<div style=""font-size:60px;"">+</div>","null","","","","","","",""
"null","","image-keyboard-response","475","767324","0.0-6.0-0.85","","img/red.png","null","trial","null","true","0.4,0.6","2:nogo_b","",""
"null","","html-keyboard-response","476","768330","0.0-6.0-1.85","","<img src=""img/red-r.png"">","null","trial","null","","0.4,0.6","2:nogo_b","1",""
"null","","html-keyboard-response","477","769337","0.0-6.0-2.85","","<div style=""font-size:60px;"">+</div>","null","","","","","","",""
"721.1999999992549","","image-keyboard-response","478","770060","0.0-6.0-0.86","","img/orange.png","32","trial","32","true","0.6,0.4","3:go_c","",""
"null","","html-keyboard-response","479","771062","0.0-6.0-1.86","","<img src=""img/orange-n.png"" border=""10"">","null","trial","32","","0.6,0.4","3:go_c","0",""
"null","","html-keyboard-response","480","772073","0.0-6.0-2.86","","<div style=""font-size:60px;"">+</div>","null","","","","","","",""
"752.4000000003725","","image-keyboard-response","481","772827","0.0-6.0-0.87","","img/yellow.png","32","trial","32","true","0.6,0.4","1:go_a","",""
"null","","html-keyboard-response","482","773841","0.0-6.0-1.87","","<img src=""img/yellow-n.png"" border=""10"">","null","trial","32","","0.6,0.4","1:go_a","0",""
"null","","html-keyboard-response","483","774843","0.0-6.0-2.87","","<div style=""font-size:60px;"">+</div>","null","","","","","","",""
"1101.300000000745","","image-keyboard-response","484","775947","0.0-6.0-0.88","","img/orange.png","32","trial","32","true","0.6,0.4","3:go_c","",""
"null","","html-keyboard-response","485","776951","0.0-6.0-1.88","","<img src=""img/orange-r.png"" border=""10"">","null","trial","32","","0.6,0.4","3:go_c","1",""
"null","","html-keyboard-response","486","777955","0.0-6.0-2.88","","<div style=""font-size:60px;"">+</div>","null","","","","","","",""
"null","","image-keyboard-response","487","779458","0.0-6.0-0.89","","img/red.png","null","trial","null","true","0.4,0.6","2:nogo_b","",""
"null","","html-keyboard-response","488","780470","0.0-6.0-1.89","","<img src=""img/red-r.png"">","null","trial","null","","0.4,0.6","2:nogo_b","1",""
"null","","html-keyboard-response","489","781480","0.0-6.0-2.89","","<div style=""font-size:60px;"">+</div>","null","","","","","","",""
"null","","image-keyboard-response","490","782988","0.0-6.0-0.90","","img/yellow.png","null","trial","32","false","0.6,0.4","1:go_a","",""
"null","","html-keyboard-response","491","784007","0.0-6.0-1.90","","<img src=""img/yellow-n.png"">","null","trial","32","","0.6,0.4","1:go_a","0",""
"null","","html-keyboard-response","492","785009","0.0-6.0-2.90","","<div style=""font-size:60px;"">+</div>","null","","","","","","",""
"823.2999999988824","","image-keyboard-response","493","785825","0.0-6.0-0.91","","img/purple.png","32","trial","null","false","0.4,0.6","4:nogo_d","",""
"null","","html-keyboard-response","494","786829","0.0-6.0-1.91","","<img src=""img/purple-n.png"" border=""10"">","null","trial","null","","0.4,0.6","4:nogo_d","0",""
"null","","html-keyboard-response","495","787846","0.0-6.0-2.91","","<div style=""font-size:60px;"">+</div>","null","","","","","","",""
"1424.3999999985099","","image-keyboard-response","496","789273","0.0-6.0-0.92","","img/orange.png","32","trial","32","true","0.6,0.4","3:go_c","",""
"null","","html-keyboard-response","497","790285","0.0-6.0-1.92","","<img src=""img/orange-r.png"" border=""10"">","null","trial","32","","0.6,0.4","3:go_c","1",""
"null","","html-keyboard-response","498","791287","0.0-6.0-2.92","","<div style=""font-size:60px;"">+</div>","null","","","","","","",""
"null","","image-keyboard-response","499","792797","0.0-6.0-0.93","","img/yellow.png","null","trial","32","false","0.6,0.4","1:go_a","",""
"null","","html-keyboard-response","500","793816","0.0-6.0-1.93","","<img src=""img/yellow-n.png"">","null","trial","32","","0.6,0.4","1:go_a","0",""
"null","","html-keyboard-response","501","794824","0.0-6.0-2.93","","<div style=""font-size:60px;"">+</div>","null","","","","","","",""
"766.3000000007451","","image-keyboard-response","502","795592","0.0-6.0-0.94","","img/red.png","32","trial","null","false","0.4,0.6","2:nogo_b","",""
"null","","html-keyboard-response","503","796609","0.0-6.0-1.94","","<img src=""img/red-n.png"" border=""10"">","null","trial","null","","0.4,0.6","2:nogo_b","0",""
"null","","html-keyboard-response","504","797612","0.0-6.0-2.94","","<div style=""font-size:60px;"">+</div>","null","","","","","","",""
"715.9000000003725","","image-keyboard-response","505","798330","0.0-6.0-0.95","","img/purple.png","32","trial","null","false","0.4,0.6","4:nogo_d","",""
"null","","html-keyboard-response","506","799339","0.0-6.0-1.95","","<img src=""img/purple-n.png"" border=""10"">","null","trial","null","","0.4,0.6","4:nogo_d","0",""
"null","","html-keyboard-response","507","800353","0.0-6.0-2.95","","<div style=""font-size:60px;"">+</div>","null","","","","","","",""
"717.7000000011176","","image-keyboard-response","508","801073","0.0-6.0-0.96","","img/purple.png","32","trial","null","false","0.4,0.6","4:nogo_d","",""
"null","","html-keyboard-response","509","802077","0.0-6.0-1.96","","<img src=""img/purple-n.png"" border=""10"">","null","trial","null","","0.4,0.6","4:nogo_d","0",""
"null","","html-keyboard-response","510","803084","0.0-6.0-2.96","","<div style=""font-size:60px;"">+</div>","null","","","","","","",""
"1002.0999999996275","","image-keyboard-response","511","804088","0.0-6.0-0.97","","img/yellow.png","32","trial","32","true","0.6,0.4","1:go_a","",""
"null","","html-keyboard-response","512","805091","0.0-6.0-1.97","","<img src=""img/yellow-n.png"" border=""10"">","null","trial","32","","0.6,0.4","1:go_a","0",""
"null","","html-keyboard-response","513","806094","0.0-6.0-2.97","","<div style=""font-size:60px;"">+</div>","null","","","","","","",""
"751.5999999996275","","image-keyboard-response","514","806848","0.0-6.0-0.98","","img/red.png","32","trial","null","false","0.4,0.6","2:nogo_b","",""
"null","","html-keyboard-response","515","807874","0.0-6.0-1.98","","<img src=""img/red-r.png"" border=""10"">","null","trial","null","","0.4,0.6","2:nogo_b","1",""
"null","","html-keyboard-response","516","808884","0.0-6.0-2.98","","<div style=""font-size:60px;"">+</div>","null","","","","","","",""
"810.1999999992549","","image-keyboard-response","517","809696","0.0-6.0-0.99","","img/orange.png","32","trial","32","true","0.6,0.4","3:go_c","",""
"null","","html-keyboard-response","518","810699","0.0-6.0-1.99","","<img src=""img/orange-r.png"" border=""10"">","null","trial","32","","0.6,0.4","3:go_c","1",""
"null","","html-keyboard-response","519","811712","0.0-6.0-2.99","","<div style=""font-size:60px;"">+</div>","null","","","","","","",""
"825.8999999985099","","image-keyboard-response","520","812545","0.0-6.0-0.100","","img/orange.png","32","trial","32","true","0.6,0.4","3:go_c","",""
"null","","html-keyboard-response","521","813559","0.0-6.0-1.100","","<img src=""img/orange-n.png"" border=""10"">","null","trial","32","","0.6,0.4","3:go_c","0",""
"null","","html-keyboard-response","522","814565","0.0-6.0-2.100","","<div style=""font-size:60px;"">+</div>","null","","","","","","",""
"778.5","","image-keyboard-response","523","815346","0.0-6.0-0.101","","img/purple.png","32","trial","null","false","0.4,0.6","4:nogo_d","",""
"null","","html-keyboard-response","524","816366","0.0-6.0-1.101","","<img src=""img/purple-r.png"" border=""10"">","null","trial","null","","0.4,0.6","4:nogo_d","1",""
"null","","html-keyboard-response","525","817369","0.0-6.0-2.101","","<div style=""font-size:60px;"">+</div>","null","","","","","","",""
"923.1999999992549","","image-keyboard-response","526","818296","0.0-6.0-0.102","","img/yellow.png","32","trial","32","true","0.6,0.4","1:go_a","",""
"null","","html-keyboard-response","527","819301","0.0-6.0-1.102","","<img src=""img/yellow-n.png"" border=""10"">","null","trial","32","","0.6,0.4","1:go_a","0",""
"null","","html-keyboard-response","528","820305","0.0-6.0-2.102","","<div style=""font-size:60px;"">+</div>","null","","","","","","",""
"1022.0999999996275","","image-keyboard-response","529","821328","0.0-6.0-0.103","","img/red.png","32","trial","null","false","0.4,0.6","2:nogo_b","",""
"null","","html-keyboard-response","530","822343","0.0-6.0-1.103","","<img src=""img/red-n.png"" border=""10"">","null","trial","null","","0.4,0.6","2:nogo_b","0",""
"null","","html-keyboard-response","531","823357","0.0-6.0-2.103","","<div style=""font-size:60px;"">+</div>","null","","","","","","",""
"856.3000000007451","","image-keyboard-response","532","824216","0.0-6.0-0.104","","img/red.png","32","trial","null","false","0.4,0.6","2:nogo_b","",""
"null","","html-keyboard-response","533","825218","0.0-6.0-1.104","","<img src=""img/red-r.png"" border=""10"">","null","trial","null","","0.4,0.6","2:nogo_b","1",""
"null","","html-keyboard-response","534","826224","0.0-6.0-2.104","","<div style=""font-size:60px;"">+</div>","null","","","","","","",""
"null","","image-keyboard-response","535","827734","0.0-6.0-0.105","","img/purple.png","null","trial","null","true","0.4,0.6","4:nogo_d","",""
"null","","html-keyboard-response","536","828736","0.0-6.0-1.105","","<img src=""img/purple-r.png"">","null","trial","null","","0.4,0.6","4:nogo_d","1",""
"null","","html-keyboard-response","537","829741","0.0-6.0-2.105","","<div style=""font-size:60px;"">+</div>","null","","","","","","",""
"null","","image-keyboard-response","538","831245","0.0-6.0-0.106","","img/yellow.png","null","trial","32","false","0.6,0.4","1:go_a","",""
"null","","html-keyboard-response","539","832259","0.0-6.0-1.106","","<img src=""img/yellow-n.png"">","null","trial","32","","0.6,0.4","1:go_a","0",""
"null","","html-keyboard-response","540","833261","0.0-6.0-2.106","","<div style=""font-size:60px;"">+</div>","null","","","","","","",""
"null","","image-keyboard-response","541","834774","0.0-6.0-0.107","","img/orange.png","null","trial","32","false","0.6,0.4","3:go_c","",""
"null","","html-keyboard-response","542","835786","0.0-6.0-1.107","","<img src=""img/orange-r.png"">","null","trial","32","","0.6,0.4","3:go_c","1",""
"null","","html-keyboard-response","543","836792","0.0-6.0-2.107","","<div style=""font-size:60px;"">+</div>","null","","","","","","",""
"838.5","","image-keyboard-response","544","837633","0.0-6.0-0.108","","img/yellow.png","32","trial","32","true","0.6,0.4","1:go_a","",""
"null","","html-keyboard-response","545","838638","0.0-6.0-1.108","","<img src=""img/yellow-r.png"" border=""10"">","null","trial","32","","0.6,0.4","1:go_a","1",""
"null","","html-keyboard-response","546","839641","0.0-6.0-2.108","","<div style=""font-size:60px;"">+</div>","null","","","","","","",""
"null","","image-keyboard-response","547","841144","0.0-6.0-0.109","","img/purple.png","null","trial","null","true","0.4,0.6","4:nogo_d","",""
"null","","html-keyboard-response","548","842147","0.0-6.0-1.109","","<img src=""img/purple-r.png"">","null","trial","null","","0.4,0.6","4:nogo_d","1",""
"null","","html-keyboard-response","549","843163","0.0-6.0-2.109","","<div style=""font-size:60px;"">+</div>","null","","","","","","",""
"873.8999999985099","","image-keyboard-response","550","844039","0.0-6.0-0.110","","img/red.png","32","trial","null","false","0.4,0.6","2:nogo_b","",""
"null","","html-keyboard-response","551","845048","0.0-6.0-1.110","","<img src=""img/red-n.png"" border=""10"">","null","trial","null","","0.4,0.6","2:nogo_b","0",""
"null","","html-keyboard-response","552","846062","0.0-6.0-2.110","","<div style=""font-size:60px;"">+</div>","null","","","","","","",""
"1027","","image-keyboard-response","553","847091","0.0-6.0-0.111","","img/orange.png","32","trial","32","true","0.6,0.4","3:go_c","",""
"null","","html-keyboard-response","554","848095","0.0-6.0-1.111","","<img src=""img/orange-n.png"" border=""10"">","null","trial","32","","0.6,0.4","3:go_c","0",""
"null","","html-keyboard-response","555","849097","0.0-6.0-2.111","","<div style=""font-size:60px;"">+</div>","null","","","","","","",""
"649.2000000011176","","image-keyboard-response","556","849748","0.0-6.0-0.112","","img/red.png","32","trial","null","false","0.4,0.6","2:nogo_b","",""
"null","","html-keyboard-response","557","850764","0.0-6.0-1.112","","<img src=""img/red-n.png"" border=""10"">","null","trial","null","","0.4,0.6","2:nogo_b","0",""
"null","","html-keyboard-response","558","851766","0.0-6.0-2.112","","<div style=""font-size:60px;"">+</div>","null","","","","","","",""
"null","","image-keyboard-response","559","853269","0.0-6.0-0.113","","img/yellow.png","null","trial","32","false","0.6,0.4","1:go_a","",""
"null","","html-keyboard-response","560","854294","0.0-6.0-1.113","","<img src=""img/yellow-r.png"">","null","trial","32","","0.6,0.4","1:go_a","1",""
"null","","html-keyboard-response","561","855299","0.0-6.0-2.113","","<div style=""font-size:60px;"">+</div>","null","","","","","","",""
"null","","image-keyboard-response","562","856802","0.0-6.0-0.114","","img/orange.png","null","trial","32","false","0.6,0.4","3:go_c","",""
"null","","html-keyboard-response","563","857806","0.0-6.0-1.114","","<img src=""img/orange-r.png"">","null","trial","32","","0.6,0.4","3:go_c","1",""
"null","","html-keyboard-response","564","858817","0.0-6.0-2.114","","<div style=""font-size:60px;"">+</div>","null","","","","","","",""
"null","","image-keyboard-response","565","860328","0.0-6.0-0.115","","img/purple.png","null","trial","null","true","0.4,0.6","4:nogo_d","",""
"null","","html-keyboard-response","566","861335","0.0-6.0-1.115","","<img src=""img/purple-r.png"">","null","trial","null","","0.4,0.6","4:nogo_d","1",""
"null","","html-keyboard-response","567","862340","0.0-6.0-2.115","","<div style=""font-size:60px;"">+</div>","null","","","","","","",""
"830.0999999996275","","image-keyboard-response","568","863172","0.0-6.0-0.116","","img/yellow.png","32","trial","32","true","0.6,0.4","1:go_a","",""
"null","","html-keyboard-response","569","864176","0.0-6.0-1.116","","<img src=""img/yellow-r.png"" border=""10"">","null","trial","32","","0.6,0.4","1:go_a","1",""
"null","","html-keyboard-response","570","865184","0.0-6.0-2.116","","<div style=""font-size:60px;"">+</div>","null","","","","","","",""
"937.6999999992549","","image-keyboard-response","571","866123","0.0-6.0-0.117","","img/purple.png","32","trial","null","false","0.4,0.6","4:nogo_d","",""
"null","","html-keyboard-response","572","867129","0.0-6.0-1.117","","<img src=""img/purple-r.png"" border=""10"">","null","trial","null","","0.4,0.6","4:nogo_d","1",""
"null","","html-keyboard-response","573","868133","0.0-6.0-2.117","","<div style=""font-size:60px;"">+</div>","null","","","","","","",""
"1028.6000000014901","","image-keyboard-response","574","869164","0.0-6.0-0.118","","img/orange.png","32","trial","32","true","0.6,0.4","3:go_c","",""
"null","","html-keyboard-response","575","870172","0.0-6.0-1.118","","<img src=""img/orange-n.png"" border=""10"">","null","trial","32","","0.6,0.4","3:go_c","0",""
"null","","html-keyboard-response","576","871174","0.0-6.0-2.118","","<div style=""font-size:60px;"">+</div>","null","","","","","","",""
"null","","image-keyboard-response","577","872690","0.0-6.0-0.119","","img/red.png","null","trial","null","true","0.4,0.6","2:nogo_b","",""
"null","","html-keyboard-response","578","873697","0.0-6.0-1.119","","<img src=""img/red-n.png"">","null","trial","null","","0.4,0.6","2:nogo_b","0",""
"null","","html-keyboard-response","579","874699","0.0-6.0-2.119","","<div style=""font-size:60px;"">+</div>","null","","","","","","",""
"11334.700000001118","","instructions","580","886035","0.0-7.0","[{""page_index"":0,""viewing_time"":11334}]","","","","","","","","",""
"811.8000000007451","","image-keyboard-response","581","886851","0.0-8.0-0.0","","img/purple.png","32","trial","32","true","0.6,0.4","3:go_c","",""
"null","","html-keyboard-response","582","887863","0.0-8.0-1.0","","<img src=""img/purple-r.png"" border=""10"">","null","trial","32","","0.6,0.4","3:go_c","1",""
"null","","html-keyboard-response","583","888880","0.0-8.0-2.0","","<div style=""font-size:60px;"">+</div>","null","","","","","","",""
"null","","image-keyboard-response","584","890383","0.0-8.0-0.1","","img/orange.png","null","trial","null","true","0.2,0.8","2:nogo_b","",""
"null","","html-keyboard-response","585","891392","0.0-8.0-1.1","","<img src=""img/orange-r.png"">","null","trial","null","","0.2,0.8","2:nogo_b","1",""
"null","","html-keyboard-response","586","892398","0.0-8.0-2.1","","<div style=""font-size:60px;"">+</div>","null","","","","","","",""
"null","","image-keyboard-response","587","893916","0.0-8.0-0.2","","img/grey.png","null","trial","null","true","0.4,0.6","4:nogo_d","",""
"null","","html-keyboard-response","588","894932","0.0-8.0-1.2","","<img src=""img/grey-r.png"">","null","trial","null","","0.4,0.6","4:nogo_d","1",""
"null","","html-keyboard-response","589","895942","0.0-8.0-2.2","","<div style=""font-size:60px;"">+</div>","null","","","","","","",""
"null","","image-keyboard-response","590","897447","0.0-8.0-0.3","","img/green.png","null","trial","32","false","0.8,0.2","1:go_a","",""
"null","","html-keyboard-response","591","898457","0.0-8.0-1.3","","<img src=""img/green-n.png"">","null","trial","32","","0.8,0.2","1:go_a","0",""
"null","","html-keyboard-response","592","899473","0.0-8.0-2.3","","<div style=""font-size:60px;"">+</div>","null","","","","","","",""
"639.9000000003725","","image-keyboard-response","593","900116","0.0-8.0-0.4","","img/purple.png","32","trial","32","true","0.6,0.4","3:go_c","",""
"null","","html-keyboard-response","594","901123","0.0-8.0-1.4","","<img src=""img/purple-n.png"" border=""10"">","null","trial","32","","0.6,0.4","3:go_c","0",""
"null","","html-keyboard-response","595","902136","0.0-8.0-2.4","","<div style=""font-size:60px;"">+</div>","null","","","","","","",""
"null","","image-keyboard-response","596","903645","0.0-8.0-0.5","","img/grey.png","null","trial","null","true","0.4,0.6","4:nogo_d","",""
"null","","html-keyboard-response","597","904651","0.0-8.0-1.5","","<img src=""img/grey-n.png"">","null","trial","null","","0.4,0.6","4:nogo_d","0",""
"null","","html-keyboard-response","598","905654","0.0-8.0-2.5","","<div style=""font-size:60px;"">+</div>","null","","","","","","",""
"626.4000000003725","","image-keyboard-response","599","906284","0.0-8.0-0.6","","img/green.png","32","trial","32","true","0.8,0.2","1:go_a","",""
"null","","html-keyboard-response","600","907301","0.0-8.0-1.6","","<img src=""img/green-r.png"" border=""10"">","null","trial","32","","0.8,0.2","1:go_a","1",""
"null","","html-keyboard-response","601","908303","0.0-8.0-2.6","","<div style=""font-size:60px;"">+</div>","null","","","","","","",""
"715","","image-keyboard-response","602","909020","0.0-8.0-0.7","","img/orange.png","32","trial","null","false","0.2,0.8","2:nogo_b","",""
"null","","html-keyboard-response","603","910023","0.0-8.0-1.7","","<img src=""img/orange-n.png"" border=""10"">","null","trial","null","","0.2,0.8","2:nogo_b","0",""
"null","","html-keyboard-response","604","911026","0.0-8.0-2.7","","<div style=""font-size:60px;"">+</div>","null","","","","","","",""
"736","","image-keyboard-response","605","911765","0.0-8.0-0.8","","img/green.png","32","trial","32","true","0.8,0.2","1:go_a","",""
"null","","html-keyboard-response","606","912772","0.0-8.0-1.8","","<img src=""img/green-n.png"" border=""10"">","null","trial","32","","0.8,0.2","1:go_a","0",""
"null","","html-keyboard-response","607","913774","0.0-8.0-2.8","","<div style=""font-size:60px;"">+</div>","null","","","","","","",""
"859.5","","image-keyboard-response","608","914636","0.0-8.0-0.9","","img/grey.png","32","trial","null","false","0.4,0.6","4:nogo_d","",""
"null","","html-keyboard-response","609","915640","0.0-8.0-1.9","","<img src=""img/grey-n.png"" border=""10"">","null","trial","null","","0.4,0.6","4:nogo_d","0",""
"null","","html-keyboard-response","610","916652","0.0-8.0-2.9","","<div style=""font-size:60px;"">+</div>","null","","","","","","",""
"null","","image-keyboard-response","611","918154","0.0-8.0-0.10","","img/orange.png","null","trial","null","true","0.2,0.8","2:nogo_b","",""
"null","","html-keyboard-response","612","919168","0.0-8.0-1.10","","<img src=""img/orange-r.png"">","null","trial","null","","0.2,0.8","2:nogo_b","1",""
"null","","html-keyboard-response","613","920171","0.0-8.0-2.10","","<div style=""font-size:60px;"">+</div>","null","","","","","","",""
"911.5999999996275","","image-keyboard-response","614","921084","0.0-8.0-0.11","","img/purple.png","32","trial","32","true","0.6,0.4","3:go_c","",""
"null","","html-keyboard-response","615","922088","0.0-8.0-1.11","","<img src=""img/purple-n.png"" border=""10"">","null","trial","32","","0.6,0.4","3:go_c","0",""
"null","","html-keyboard-response","616","923092","0.0-8.0-2.11","","<div style=""font-size:60px;"">+</div>","null","","","","","","",""
"1093.5999999996275","","image-keyboard-response","617","924187","0.0-8.0-0.12","","img/grey.png","32","trial","null","false","0.4,0.6","4:nogo_d","",""
"null","","html-keyboard-response","618","925193","0.0-8.0-1.12","","<img src=""img/grey-r.png"" border=""10"">","null","trial","null","","0.4,0.6","4:nogo_d","1",""
"null","","html-keyboard-response","619","926195","0.0-8.0-2.12","","<div style=""font-size:60px;"">+</div>","null","","","","","","",""
"941.7999999988824","","image-keyboard-response","620","927140","0.0-8.0-0.13","","img/green.png","32","trial","32","true","0.8,0.2","1:go_a","",""
"null","","html-keyboard-response","621","928144","0.0-8.0-1.13","","<img src=""img/green-r.png"" border=""10"">","null","trial","32","","0.8,0.2","1:go_a","1",""
"null","","html-keyboard-response","622","929159","0.0-8.0-2.13","","<div style=""font-size:60px;"">+</div>","null","","","","","","",""
"791.2999999988824","","image-keyboard-response","623","929952","0.0-8.0-0.14","","img/purple.png","32","trial","32","true","0.6,0.4","3:go_c","",""
"null","","html-keyboard-response","624","930969","0.0-8.0-1.14","","<img src=""img/purple-n.png"" border=""10"">","null","trial","32","","0.6,0.4","3:go_c","0",""
"null","","html-keyboard-response","625","931971","0.0-8.0-2.14","","<div style=""font-size:60px;"">+</div>","null","","","","","","",""
"null","","image-keyboard-response","626","933475","0.0-8.0-0.15","","img/orange.png","null","trial","null","true","0.2,0.8","2:nogo_b","",""
"null","","html-keyboard-response","627","934489","0.0-8.0-1.15","","<img src=""img/orange-r.png"">","null","trial","null","","0.2,0.8","2:nogo_b","1",""
"null","","html-keyboard-response","628","935492","0.0-8.0-2.15","","<div style=""font-size:60px;"">+</div>","null","","","","","","",""
"null","","image-keyboard-response","629","937002","0.0-8.0-0.16","","img/green.png","null","trial","32","false","0.8,0.2","1:go_a","",""
"null","","html-keyboard-response","630","938014","0.0-8.0-1.16","","<img src=""img/green-n.png"">","null","trial","32","","0.8,0.2","1:go_a","0",""
"null","","html-keyboard-response","631","939016","0.0-8.0-2.16","","<div style=""font-size:60px;"">+</div>","null","","","","","","",""
"786.3000000007451","","image-keyboard-response","632","939804","0.0-8.0-0.17","","img/orange.png","32","trial","null","false","0.2,0.8","2:nogo_b","",""
"null","","html-keyboard-response","633","940815","0.0-8.0-1.17","","<img src=""img/orange-n.png"" border=""10"">","null","trial","null","","0.2,0.8","2:nogo_b","0",""
"null","","html-keyboard-response","634","941826","0.0-8.0-2.17","","<div style=""font-size:60px;"">+</div>","null","","","","","","",""
"887.8000000007451","","image-keyboard-response","635","942715","0.0-8.0-0.18","","img/purple.png","32","trial","32","true","0.6,0.4","3:go_c","",""
"null","","html-keyboard-response","636","943722","0.0-8.0-1.18","","<img src=""img/purple-r.png"" border=""10"">","null","trial","32","","0.6,0.4","3:go_c","1",""
"null","","html-keyboard-response","637","944725","0.0-8.0-2.18","","<div style=""font-size:60px;"">+</div>","null","","","","","","",""
"786.8000000007451","","image-keyboard-response","638","945515","0.0-8.0-0.19","","img/grey.png","32","trial","null","false","0.4,0.6","4:nogo_d","",""
"null","","html-keyboard-response","639","946519","0.0-8.0-1.19","","<img src=""img/grey-n.png"" border=""10"">","null","trial","null","","0.4,0.6","4:nogo_d","0",""
"null","","html-keyboard-response","640","947521","0.0-8.0-2.19","","<div style=""font-size:60px;"">+</div>","null","","","","","","",""
"872.3000000007451","","image-keyboard-response","641","948394","0.0-8.0-0.20","","img/orange.png","32","trial","null","false","0.2,0.8","2:nogo_b","",""
"null","","html-keyboard-response","642","949402","0.0-8.0-1.20","","<img src=""img/orange-n.png"" border=""10"">","null","trial","null","","0.2,0.8","2:nogo_b","0",""
"null","","html-keyboard-response","643","950405","0.0-8.0-2.20","","<div style=""font-size:60px;"">+</div>","null","","","","","","",""
"844.9000000003725","","image-keyboard-response","644","951251","0.0-8.0-0.21","","img/grey.png","32","trial","null","false","0.4,0.6","4:nogo_d","",""
"null","","html-keyboard-response","645","952260","0.0-8.0-1.21","","<img src=""img/grey-r.png"" border=""10"">","null","trial","null","","0.4,0.6","4:nogo_d","1",""
"null","","html-keyboard-response","646","953267","0.0-8.0-2.21","","<div style=""font-size:60px;"">+</div>","null","","","","","","",""
"694.2000000011176","","image-keyboard-response","647","953963","0.0-8.0-0.22","","img/green.png","32","trial","32","true","0.8,0.2","1:go_a","",""
"null","","html-keyboard-response","648","954967","0.0-8.0-1.22","","<img src=""img/green-r.png"" border=""10"">","null","trial","32","","0.8,0.2","1:go_a","1",""
"null","","html-keyboard-response","649","955977","0.0-8.0-2.22","","<div style=""font-size:60px;"">+</div>","null","","","","","","",""
"null","","image-keyboard-response","650","957493","0.0-8.0-0.23","","img/purple.png","null","trial","32","false","0.6,0.4","3:go_c","",""
"null","","html-keyboard-response","651","958504","0.0-8.0-1.23","","<img src=""img/purple-n.png"">","null","trial","32","","0.6,0.4","3:go_c","0",""
"null","","html-keyboard-response","652","959511","0.0-8.0-2.23","","<div style=""font-size:60px;"">+</div>","null","","","","","","",""
"null","","image-keyboard-response","653","961027","0.0-8.0-0.24","","img/green.png","null","trial","32","false","0.8,0.2","1:go_a","",""
"null","","html-keyboard-response","654","962051","0.0-8.0-1.24","","<img src=""img/green-n.png"">","null","trial","32","","0.8,0.2","1:go_a","0",""
"null","","html-keyboard-response","655","963064","0.0-8.0-2.24","","<div style=""font-size:60px;"">+</div>","null","","","","","","",""
"866.0999999996275","","image-keyboard-response","656","963932","0.0-8.0-0.25","","img/grey.png","32","trial","null","false","0.4,0.6","4:nogo_d","",""
"null","","html-keyboard-response","657","964936","0.0-8.0-1.25","","<img src=""img/grey-n.png"" border=""10"">","null","trial","null","","0.4,0.6","4:nogo_d","0",""
"null","","html-keyboard-response","658","965941","0.0-8.0-2.25","","<div style=""font-size:60px;"">+</div>","null","","","","","","",""
"948.4000000003725","","image-keyboard-response","659","966884","0.0-8.0-0.26","","img/purple.png","32","trial","32","true","0.6,0.4","3:go_c","",""
"null","","html-keyboard-response","660","967899","0.0-8.0-1.26","","<img src=""img/purple-r.png"" border=""10"">","null","trial","32","","0.6,0.4","3:go_c","1",""
"null","","html-keyboard-response","661","968908","0.0-8.0-2.26","","<div style=""font-size:60px;"">+</div>","null","","","","","","",""
"884.7000000011176","","image-keyboard-response","662","969795","0.0-8.0-0.27","","img/orange.png","32","trial","null","false","0.2,0.8","2:nogo_b","",""
"null","","html-keyboard-response","663","970806","0.0-8.0-1.27","","<img src=""img/orange-r.png"" border=""10"">","null","trial","null","","0.2,0.8","2:nogo_b","1",""
"null","","html-keyboard-response","664","971820","0.0-8.0-2.27","","<div style=""font-size:60px;"">+</div>","null","","","","","","",""
"null","","image-keyboard-response","665","973324","0.0-8.0-0.28","","img/orange.png","null","trial","null","true","0.2,0.8","2:nogo_b","",""
"null","","html-keyboard-response","666","974336","0.0-8.0-1.28","","<img src=""img/orange-r.png"">","null","trial","null","","0.2,0.8","2:nogo_b","1",""
"null","","html-keyboard-response","667","975350","0.0-8.0-2.28","","<div style=""font-size:60px;"">+</div>","null","","","","","","",""
"null","","image-keyboard-response","668","976853","0.0-8.0-0.29","","img/purple.png","null","trial","32","false","0.6,0.4","3:go_c","",""
"null","","html-keyboard-response","669","977865","0.0-8.0-1.29","","<img src=""img/purple-n.png"">","null","trial","32","","0.6,0.4","3:go_c","0",""
"null","","html-keyboard-response","670","978872","0.0-8.0-2.29","","<div style=""font-size:60px;"">+</div>","null","","","","","","",""
"818.5","","image-keyboard-response","671","979692","0.0-8.0-0.30","","img/green.png","32","trial","32","true","0.8,0.2","1:go_a","",""
"null","","html-keyboard-response","672","980700","0.0-8.0-1.30","","<img src=""img/green-r.png"" border=""10"">","null","trial","32","","0.8,0.2","1:go_a","1",""
"null","","html-keyboard-response","673","981716","0.0-8.0-2.30","","<div style=""font-size:60px;"">+</div>","null","","","","","","",""
"764.5","","image-keyboard-response","674","982483","0.0-8.0-0.31","","img/grey.png","32","trial","null","false","0.4,0.6","4:nogo_d","",""
"null","","html-keyboard-response","675","983488","0.0-8.0-1.31","","<img src=""img/grey-n.png"" border=""10"">","null","trial","null","","0.4,0.6","4:nogo_d","0",""
"null","","html-keyboard-response","676","984495","0.0-8.0-2.31","","<div style=""font-size:60px;"">+</div>","null","","","","","","",""
"1059.5999999996275","","image-keyboard-response","677","985555","0.0-8.0-0.32","","img/grey.png","32","trial","null","false","0.4,0.6","4:nogo_d","",""
