"rt","url","trial_type","trial_index","time_elapsed","internal_node_id","view_history","stimulus","key_press","test_part","correct_response","correct","use_rew","which_stim","reward","responses"
"7105409.299999952","consent.html","external-html","0","7105445","0.0-0.0","","","","","","","","","",""
"714446.100000143","","instructions","1","7819895","0.0-1.0","[{""page_index"":0,""viewing_time"":47269.5},{""page_index"":1,""viewing_time"":524334.9000000954},{""page_index"":2,""viewing_time"":3149.2000000476837},{""page_index"":3,""viewing_time"":16043.099999904633},{""page_index"":4,""viewing_time"":20839.60000014305},{""page_index"":5,""viewing_time"":6879.399999856949},{""page_index"":6,""viewing_time"":95928.90000009537}]","","","","","","","","",""
"null","","image-keyboard-response","2","7821400","0.0-2.0-0.0","","img/test3.PNG","null","practice","null","true","","","",""
"null","","html-keyboard-response","3","7822420","0.0-2.0-1.0","","<img src=""img/test3-reward.PNG"">","null","","","","","","",""
"null","","html-keyboard-response","4","7823425","0.0-2.0-2.0","","<div style=""font-size:60px;"">+</div>","null","","","","","","",""
"555.2999999523163","","image-keyboard-response","5","7823982","0.0-2.0-0.1","","img/test1.PNG","32","practice","32","true","","","",""
"null","","html-keyboard-response","6","7824996","0.0-2.0-1.1","","<img src=""img/test1-reward.PNG"" border=""10px; grey"">","null","","","","","","",""
"null","","html-keyboard-response","7","7826012","0.0-2.0-2.1","","<div style=""font-size:60px;"">+</div>","null","","","","","","",""
"null","","image-keyboard-response","8","7827528","0.0-2.0-0.2","","img/test2.PNG","null","practice","null","true","","","",""
"null","","html-keyboard-response","9","7828539","0.0-2.0-1.2","","<img src=""img/test2-reward.PNG"">","null","","","","","","",""
"null","","html-keyboard-response","10","7829543","0.0-2.0-2.2","","<div style=""font-size:60px;"">+</div>","null","","","","","","",""
"null","","image-keyboard-response","11","7831056","0.0-2.0-0.3","","img/test3.PNG","null","practice","null","true","","","",""
"null","","html-keyboard-response","12","7832061","0.0-2.0-1.3","","<img src=""img/test3-reward.PNG"">","null","","","","","","",""
"null","","html-keyboard-response","13","7833069","0.0-2.0-2.3","","<div style=""font-size:60px;"">+</div>","null","","","","","","",""
"null","","image-keyboard-response","14","7834574","0.0-2.0-0.4","","img/test2.PNG","null","practice","null","true","","","",""
"null","","html-keyboard-response","15","7835584","0.0-2.0-1.4","","<img src=""img/test2-reward.PNG"">","null","","","","","","",""
"null","","html-keyboard-response","16","7836591","0.0-2.0-2.4","","<div style=""font-size:60px;"">+</div>","null","","","","","","",""
"418","","image-keyboard-response","17","7837010","0.0-2.0-0.5","","img/test1.PNG","32","practice","32","true","","","",""
"null","","html-keyboard-response","18","7838020","0.0-2.0-1.5","","<img src=""img/test1-reward.PNG"" border=""10px; grey"">","null","","","","","","",""
"null","","html-keyboard-response","19","7839025","0.0-2.0-2.5","","<div style=""font-size:60px;"">+</div>","null","","","","","","",""
"618.5","","image-keyboard-response","20","7839644","0.0-2.0-0.6","","img/test1.PNG","32","practice","32","true","","","",""
"null","","html-keyboard-response","21","7840654","0.0-2.0-1.6","","<img src=""img/test1-reward.PNG"" border=""10px; grey"">","null","","","","","","",""
"null","","html-keyboard-response","22","7841662","0.0-2.0-2.6","","<div style=""font-size:60px;"">+</div>","null","","","","","","",""
"null","","image-keyboard-response","23","7843174","0.0-2.0-0.7","","img/test2.PNG","null","practice","null","true","","","",""
"null","","html-keyboard-response","24","7844187","0.0-2.0-1.7","","<img src=""img/test2-reward.PNG"">","null","","","","","","",""
"null","","html-keyboard-response","25","7845194","0.0-2.0-2.7","","<div style=""font-size:60px;"">+</div>","null","","","","","","",""
"null","","image-keyboard-response","26","7846698","0.0-2.0-0.8","","img/test3.PNG","null","practice","null","true","","","",""
"null","","html-keyboard-response","27","7847707","0.0-2.0-1.8","","<img src=""img/test3-reward.PNG"">","null","","","","","","",""
"null","","html-keyboard-response","28","7848720","0.0-2.0-2.8","","<div style=""font-size:60px;"">+</div>","null","","","","","","",""
"null","","image-keyboard-response","29","7850230","0.0-2.0-0.9","","img/test3.PNG","null","practice","null","true","","","",""
"null","","html-keyboard-response","30","7851234","0.0-2.0-1.9","","<img src=""img/test3-reward.PNG"">","null","","","","","","",""
"null","","html-keyboard-response","31","7852243","0.0-2.0-2.9","","<div style=""font-size:60px;"">+</div>","null","","","","","","",""
"null","","image-keyboard-response","32","7853748","0.0-2.0-0.10","","img/test2.PNG","null","practice","null","true","","","",""
"null","","html-keyboard-response","33","7854755","0.0-2.0-1.10","","<img src=""img/test2-reward.PNG"">","null","","","","","","",""
"null","","html-keyboard-response","34","7855765","0.0-2.0-2.10","","<div style=""font-size:60px;"">+</div>","null","","","","","","",""
"369.39999985694885","","image-keyboard-response","35","7856135","0.0-2.0-0.11","","img/test1.PNG","32","practice","32","true","","","",""
"null","","html-keyboard-response","36","7857138","0.0-2.0-1.11","","<img src=""img/test1-reward.PNG"" border=""10px; grey"">","null","","","","","","",""
"null","","html-keyboard-response","37","7858140","0.0-2.0-2.11","","<div style=""font-size:60px;"">+</div>","null","","","","","","",""
"149902.79999995232","","instructions","38","8008043","0.0-3.0","[{""page_index"":0,""viewing_time"":149902.29999995232}]","","","","","","","","",""
"null","","image-keyboard-response","39","8009555","0.0-4.0-0.0","","img/green.png","null","trial","null","true","0.2,0.8","2:nogo_b","",""
"null","","html-keyboard-response","40","8010566","0.0-4.0-1.0","","<img src=""img/green-r.png"">","null","trial","null","","0.2,0.8","2:nogo_b","1",""
"null","","html-keyboard-response","41","8011575","0.0-4.0-2.0","","<div style=""font-size:60px;"">+</div>","null","","","","","","",""
"684.7000000476837","","image-keyboard-response","42","8012261","0.0-4.0-0.1","","img/red.png","32","trial","32","true","0.8,0.2","1:go_a","",""
"null","","html-keyboard-response","43","8013268","0.0-4.0-1.1","","<img src=""img/red-r.png"" border=""10"">","null","trial","32","","0.8,0.2","1:go_a","1",""
"null","","html-keyboard-response","44","8014277","0.0-4.0-2.1","","<div style=""font-size:60px;"">+</div>","null","","","","","","",""
"1155.5","","image-keyboard-response","45","8015433","0.0-4.0-0.2","","img/green.png","32","trial","null","false","0.2,0.8","2:nogo_b","",""
"null","","html-keyboard-response","46","8016438","0.0-4.0-1.2","","<img src=""img/green-n.png"" border=""10"">","null","trial","null","","0.2,0.8","2:nogo_b","0",""
"null","","html-keyboard-response","47","8017439","0.0-4.0-2.2","","<div style=""font-size:60px;"">+</div>","null","","","","","","",""
"387.5","","image-keyboard-response","48","8017828","0.0-4.0-0.3","","img/red.png","32","trial","32","true","0.8,0.2","1:go_a","",""
"null","","html-keyboard-response","49","8018830","0.0-4.0-1.3","","<img src=""img/red-r.png"" border=""10"">","null","trial","32","","0.8,0.2","1:go_a","1",""
"null","","html-keyboard-response","50","8019840","0.0-4.0-2.3","","<div style=""font-size:60px;"">+</div>","null","","","","","","",""
"344.89999985694885","","image-keyboard-response","51","8020186","0.0-4.0-0.4","","img/red.png","32","trial","32","true","0.8,0.2","1:go_a","",""
"null","","html-keyboard-response","52","8021194","0.0-4.0-1.4","","<img src=""img/red-r.png"" border=""10"">","null","trial","32","","0.8,0.2","1:go_a","1",""
"null","","html-keyboard-response","53","8022202","0.0-4.0-2.4","","<div style=""font-size:60px;"">+</div>","null","","","","","","",""
"null","","image-keyboard-response","54","8023705","0.0-4.0-0.5","","img/green.png","null","trial","null","true","0.2,0.8","2:nogo_b","",""
"null","","html-keyboard-response","55","8024715","0.0-4.0-1.5","","<img src=""img/green-r.png"">","null","trial","null","","0.2,0.8","2:nogo_b","1",""
"null","","html-keyboard-response","56","8025723","0.0-4.0-2.5","","<div style=""font-size:60px;"">+</div>","null","","","","","","",""
"377.60000014305115","","image-keyboard-response","57","8026102","0.0-4.0-0.6","","img/red.png","32","trial","32","true","0.8,0.2","1:go_a","",""
"null","","html-keyboard-response","58","8027110","0.0-4.0-1.6","","<img src=""img/red-r.png"" border=""10"">","null","trial","32","","0.8,0.2","1:go_a","1",""
"null","","html-keyboard-response","59","8028122","0.0-4.0-2.6","","<div style=""font-size:60px;"">+</div>","null","","","","","","",""
"395.59999990463257","","image-keyboard-response","60","8028519","0.0-4.0-0.7","","img/green.png","32","trial","null","false","0.2,0.8","2:nogo_b","",""
"null","","html-keyboard-response","61","8029532","0.0-4.0-1.7","","<img src=""img/green-r.png"" border=""10"">","null","trial","null","","0.2,0.8","2:nogo_b","1",""
"null","","html-keyboard-response","62","8030537","0.0-4.0-2.7","","<div style=""font-size:60px;"">+</div>","null","","","","","","",""
"413.2999999523163","","image-keyboard-response","63","8030952","0.0-4.0-0.8","","img/red.png","32","trial","32","true","0.8,0.2","1:go_a","",""
"null","","html-keyboard-response","64","8031963","0.0-4.0-1.8","","<img src=""img/red-r.png"" border=""10"">","null","trial","32","","0.8,0.2","1:go_a","1",""
"null","","html-keyboard-response","65","8032966","0.0-4.0-2.8","","<div style=""font-size:60px;"">+</div>","null","","","","","","",""
"null","","image-keyboard-response","66","8034469","0.0-4.0-0.9","","img/green.png","null","trial","null","true","0.2,0.8","2:nogo_b","",""
"null","","html-keyboard-response","67","8035485","0.0-4.0-1.9","","<img src=""img/green-n.png"">","null","trial","null","","0.2,0.8","2:nogo_b","0",""
"null","","html-keyboard-response","68","8036494","0.0-4.0-2.9","","<div style=""font-size:60px;"">+</div>","null","","","","","","",""
"300.2000000476837","","image-keyboard-response","69","8036795","0.0-4.0-0.10","","img/red.png","32","trial","32","true","0.8,0.2","1:go_a","",""
"null","","html-keyboard-response","70","8037802","0.0-4.0-1.10","","<img src=""img/red-r.png"" border=""10"">","null","trial","32","","0.8,0.2","1:go_a","1",""
"null","","html-keyboard-response","71","8038812","0.0-4.0-2.10","","<div style=""font-size:60px;"">+</div>","null","","","","","","",""
"463.59999990463257","","image-keyboard-response","72","8039277","0.0-4.0-0.11","","img/green.png","32","trial","null","false","0.2,0.8","2:nogo_b","",""
"null","","html-keyboard-response","73","8040287","0.0-4.0-1.11","","<img src=""img/green-n.png"" border=""10"">","null","trial","null","","0.2,0.8","2:nogo_b","0",""
"null","","html-keyboard-response","74","8041293","0.0-4.0-2.11","","<div style=""font-size:60px;"">+</div>","null","","","","","","",""
"null","","image-keyboard-response","75","8042806","0.0-4.0-0.12","","img/green.png","null","trial","null","true","0.2,0.8","2:nogo_b","",""
"null","","html-keyboard-response","76","8043811","0.0-4.0-1.12","","<img src=""img/green-r.png"">","null","trial","null","","0.2,0.8","2:nogo_b","1",""
"null","","html-keyboard-response","77","8044817","0.0-4.0-2.12","","<div style=""font-size:60px;"">+</div>","null","","","","","","",""
"409.40000009536743","","image-keyboard-response","78","8045228","0.0-4.0-0.13","","img/red.png","32","trial","32","true","0.8,0.2","1:go_a","",""
"null","","html-keyboard-response","79","8046244","0.0-4.0-1.13","","<img src=""img/red-n.png"" border=""10"">","null","trial","32","","0.8,0.2","1:go_a","0",""
"null","","html-keyboard-response","80","8047252","0.0-4.0-2.13","","<div style=""font-size:60px;"">+</div>","null","","","","","","",""
"611.3999998569489","","image-keyboard-response","81","8047865","0.0-4.0-0.14","","img/green.png","32","trial","null","false","0.2,0.8","2:nogo_b","",""
"null","","html-keyboard-response","82","8048881","0.0-4.0-1.14","","<img src=""img/green-n.png"" border=""10"">","null","trial","null","","0.2,0.8","2:nogo_b","0",""
"null","","html-keyboard-response","83","8049887","0.0-4.0-2.14","","<div style=""font-size:60px;"">+</div>","null","","","","","","",""
"494.2999999523163","","image-keyboard-response","84","8050383","0.0-4.0-0.15","","img/red.png","32","trial","32","true","0.8,0.2","1:go_a","",""
"null","","html-keyboard-response","85","8051397","0.0-4.0-1.15","","<img src=""img/red-r.png"" border=""10"">","null","trial","32","","0.8,0.2","1:go_a","1",""
"null","","html-keyboard-response","86","8052407","0.0-4.0-2.15","","<div style=""font-size:60px;"">+</div>","null","","","","","","",""
"377.5","","image-keyboard-response","87","8052786","0.0-4.0-0.16","","img/red.png","32","trial","32","true","0.8,0.2","1:go_a","",""
"null","","html-keyboard-response","88","8053793","0.0-4.0-1.16","","<img src=""img/red-r.png"" border=""10"">","null","trial","32","","0.8,0.2","1:go_a","1",""
"null","","html-keyboard-response","89","8054805","0.0-4.0-2.16","","<div style=""font-size:60px;"">+</div>","null","","","","","","",""
"null","","image-keyboard-response","90","8056314","0.0-4.0-0.17","","img/green.png","null","trial","null","true","0.2,0.8","2:nogo_b","",""
"null","","html-keyboard-response","91","8057328","0.0-4.0-1.17","","<img src=""img/green-r.png"">","null","trial","null","","0.2,0.8","2:nogo_b","1",""
"null","","html-keyboard-response","92","8058343","0.0-4.0-2.17","","<div style=""font-size:60px;"">+</div>","null","","","","","","",""
"null","","image-keyboard-response","93","8059853","0.0-4.0-0.18","","img/red.png","null","trial","32","false","0.8,0.2","1:go_a","",""
"null","","html-keyboard-response","94","8060865","0.0-4.0-1.18","","<img src=""img/red-n.png"">","null","trial","32","","0.8,0.2","1:go_a","0",""
"null","","html-keyboard-response","95","8061880","0.0-4.0-2.18","","<div style=""font-size:60px;"">+</div>","null","","","","","","",""
"384.7000000476837","","image-keyboard-response","96","8062266","0.0-4.0-0.19","","img/green.png","32","trial","null","false","0.2,0.8","2:nogo_b","",""
"null","","html-keyboard-response","97","8063271","0.0-4.0-1.19","","<img src=""img/green-n.png"" border=""10"">","null","trial","null","","0.2,0.8","2:nogo_b","0",""
"null","","html-keyboard-response","98","8064276","0.0-4.0-2.19","","<div style=""font-size:60px;"">+</div>","null","","","","","","",""
"622.1000001430511","","image-keyboard-response","99","8064899","0.0-4.0-0.20","","img/red.png","32","trial","32","true","0.8,0.2","1:go_a","",""
"null","","html-keyboard-response","100","8065907","0.0-4.0-1.20","","<img src=""img/red-r.png"" border=""10"">","null","trial","32","","0.8,0.2","1:go_a","1",""
"null","","html-keyboard-response","101","8066915","0.0-4.0-2.20","","<div style=""font-size:60px;"">+</div>","null","","","","","","",""
"null","","image-keyboard-response","102","8068428","0.0-4.0-0.21","","img/green.png","null","trial","null","true","0.2,0.8","2:nogo_b","",""
"null","","html-keyboard-response","103","8069432","0.0-4.0-1.21","","<img src=""img/green-r.png"">","null","trial","null","","0.2,0.8","2:nogo_b","1",""
"null","","html-keyboard-response","104","8070439","0.0-4.0-2.21","","<div style=""font-size:60px;"">+</div>","null","","","","","","",""
"null","","image-keyboard-response","105","8071955","0.0-4.0-0.22","","img/green.png","null","trial","null","true","0.2,0.8","2:nogo_b","",""
"null","","html-keyboard-response","106","8072965","0.0-4.0-1.22","","<img src=""img/green-r.png"">","null","trial","null","","0.2,0.8","2:nogo_b","1",""
"null","","html-keyboard-response","107","8073976","0.0-4.0-2.22","","<div style=""font-size:60px;"">+</div>","null","","","","","","",""
"393.10000014305115","","image-keyboard-response","108","8074370","0.0-4.0-0.23","","img/red.png","32","trial","32","true","0.8,0.2","1:go_a","",""
"null","","html-keyboard-response","109","8075372","0.0-4.0-1.23","","<img src=""img/red-n.png"" border=""10"">","null","trial","32","","0.8,0.2","1:go_a","0",""
"null","","html-keyboard-response","110","8076376","0.0-4.0-2.23","","<div style=""font-size:60px;"">+</div>","null","","","","","","",""
"591.0999999046326","","image-keyboard-response","111","8076968","0.0-4.0-0.24","","img/red.png","32","trial","32","true","0.8,0.2","1:go_a","",""
"null","","html-keyboard-response","112","8077983","0.0-4.0-1.24","","<img src=""img/red-r.png"" border=""10"">","null","trial","32","","0.8,0.2","1:go_a","1",""
"null","","html-keyboard-response","113","8078990","0.0-4.0-2.24","","<div style=""font-size:60px;"">+</div>","null","","","","","","",""
"849.9000000953674","","image-keyboard-response","114","8079841","0.0-4.0-0.25","","img/green.png","32","trial","null","false","0.2,0.8","2:nogo_b","",""
"null","","html-keyboard-response","115","8080853","0.0-4.0-1.25","","<img src=""img/green-n.png"" border=""10"">","null","trial","null","","0.2,0.8","2:nogo_b","0",""
"null","","html-keyboard-response","116","8081862","0.0-4.0-2.25","","<div style=""font-size:60px;"">+</div>","null","","","","","","",""
"490.69999980926514","","image-keyboard-response","117","8082354","0.0-4.0-0.26","","img/red.png","32","trial","32","true","0.8,0.2","1:go_a","",""
"null","","html-keyboard-response","118","8083364","0.0-4.0-1.26","","<img src=""img/red-r.png"" border=""10"">","null","trial","32","","0.8,0.2","1:go_a","1",""
"null","","html-keyboard-response","119","8084375","0.0-4.0-2.26","","<div style=""font-size:60px;"">+</div>","null","","","","","","",""
"545.7000000476837","","image-keyboard-response","120","8084922","0.0-4.0-0.27","","img/green.png","32","trial","null","false","0.2,0.8","2:nogo_b","",""
"null","","html-keyboard-response","121","8085930","0.0-4.0-1.27","","<img src=""img/green-n.png"" border=""10"">","null","trial","null","","0.2,0.8","2:nogo_b","0",""
"null","","html-keyboard-response","122","8086937","0.0-4.0-2.27","","<div style=""font-size:60px;"">+</div>","null","","","","","","",""
"576.7000000476837","","image-keyboard-response","123","8087515","0.0-4.0-0.28","","img/red.png","32","trial","32","true","0.8,0.2","1:go_a","",""
"null","","html-keyboard-response","124","8088528","0.0-4.0-1.28","","<img src=""img/red-r.png"" border=""10"">","null","trial","32","","0.8,0.2","1:go_a","1",""
"null","","html-keyboard-response","125","8089534","0.0-4.0-2.28","","<div style=""font-size:60px;"">+</div>","null","","","","","","",""
"null","","image-keyboard-response","126","8091045","0.0-4.0-0.29","","img/green.png","null","trial","null","true","0.2,0.8","2:nogo_b","",""
"null","","html-keyboard-response","127","8092055","0.0-4.0-1.29","","<img src=""img/green-r.png"">","null","trial","null","","0.2,0.8","2:nogo_b","1",""
"null","","html-keyboard-response","128","8093063","0.0-4.0-2.29","","<div style=""font-size:60px;"">+</div>","null","","","","","","",""
"557","","image-keyboard-response","129","8093621","0.0-4.0-0.30","","img/red.png","32","trial","32","true","0.8,0.2","1:go_a","",""
"null","","html-keyboard-response","130","8094630","0.0-4.0-1.30","","<img src=""img/red-r.png"" border=""10"">","null","trial","32","","0.8,0.2","1:go_a","1",""
"null","","html-keyboard-response","131","8095644","0.0-4.0-2.30","","<div style=""font-size:60px;"">+</div>","null","","","","","","",""
"null","","image-keyboard-response","132","8097148","0.0-4.0-0.31","","img/green.png","null","trial","null","true","0.2,0.8","2:nogo_b","",""
"null","","html-keyboard-response","133","8098160","0.0-4.0-1.31","","<img src=""img/green-r.png"">","null","trial","null","","0.2,0.8","2:nogo_b","1",""
"null","","html-keyboard-response","134","8099172","0.0-4.0-2.31","","<div style=""font-size:60px;"">+</div>","null","","","","","","",""
"null","","image-keyboard-response","135","8100673","0.0-4.0-0.32","","img/green.png","null","trial","null","true","0.2,0.8","2:nogo_b","",""
"null","","html-keyboard-response","136","8101690","0.0-4.0-1.32","","<img src=""img/green-r.png"">","null","trial","null","","0.2,0.8","2:nogo_b","1",""
"null","","html-keyboard-response","137","8102694","0.0-4.0-2.32","","<div style=""font-size:60px;"">+</div>","null","","","","","","",""
"614.5","","image-keyboard-response","138","8103310","0.0-4.0-0.33","","img/red.png","32","trial","32","true","0.8,0.2","1:go_a","",""
"null","","html-keyboard-response","139","8104315","0.0-4.0-1.33","","<img src=""img/red-r.png"" border=""10"">","null","trial","32","","0.8,0.2","1:go_a","1",""
"null","","html-keyboard-response","140","8105326","0.0-4.0-2.33","","<div style=""font-size:60px;"">+</div>","null","","","","","","",""
"null","","image-keyboard-response","141","8106833","0.0-4.0-0.34","","img/green.png","null","trial","null","true","0.2,0.8","2:nogo_b","",""
"null","","html-keyboard-response","142","8107843","0.0-4.0-1.34","","<img src=""img/green-r.png"">","null","trial","null","","0.2,0.8","2:nogo_b","1",""
"null","","html-keyboard-response","143","8108850","0.0-4.0-2.34","","<div style=""font-size:60px;"">+</div>","null","","","","","","",""
"798.5","","image-keyboard-response","144","8109649","0.0-4.0-0.35","","img/red.png","32","trial","32","true","0.8,0.2","1:go_a","",""
"null","","html-keyboard-response","145","8110657","0.0-4.0-1.35","","<img src=""img/red-r.png"" border=""10"">","null","trial","32","","0.8,0.2","1:go_a","1",""
"null","","html-keyboard-response","146","8111668","0.0-4.0-2.35","","<div style=""font-size:60px;"">+</div>","null","","","","","","",""
"986.0999999046326","","image-keyboard-response","147","8112655","0.0-4.0-0.36","","img/green.png","32","trial","null","false","0.2,0.8","2:nogo_b","",""
"null","","html-keyboard-response","148","8113665","0.0-4.0-1.36","","<img src=""img/green-n.png"" border=""10"">","null","trial","null","","0.2,0.8","2:nogo_b","0",""
"null","","html-keyboard-response","149","8114670","0.0-4.0-2.36","","<div style=""font-size:60px;"">+</div>","null","","","","","","",""
"462.5","","image-keyboard-response","150","8115134","0.0-4.0-0.37","","img/red.png","32","trial","32","true","0.8,0.2","1:go_a","",""
"null","","html-keyboard-response","151","8116149","0.0-4.0-1.37","","<img src=""img/red-n.png"" border=""10"">","null","trial","32","","0.8,0.2","1:go_a","0",""
"null","","html-keyboard-response","152","8117160","0.0-4.0-2.37","","<div style=""font-size:60px;"">+</div>","null","","","","","","",""
"767.8999998569489","","image-keyboard-response","153","8117929","0.0-4.0-0.38","","img/red.png","32","trial","32","true","0.8,0.2","1:go_a","",""
"null","","html-keyboard-response","154","8118944","0.0-4.0-1.38","","<img src=""img/red-r.png"" border=""10"">","null","trial","32","","0.8,0.2","1:go_a","1",""
"null","","html-keyboard-response","155","8119955","0.0-4.0-2.38","","<div style=""font-size:60px;"">+</div>","null","","","","","","",""
"1378","","image-keyboard-response","156","8121334","0.0-4.0-0.39","","img/green.png","32","trial","null","false","0.2,0.8","2:nogo_b","",""
"null","","html-keyboard-response","157","8122350","0.0-4.0-1.39","","<img src=""img/green-n.png"" border=""10"">","null","trial","null","","0.2,0.8","2:nogo_b","0",""
"null","","html-keyboard-response","158","8123365","0.0-4.0-2.39","","<div style=""font-size:60px;"">+</div>","null","","","","","","",""
"527.5","","image-keyboard-response","159","8123893","0.0-4.0-0.40","","img/red.png","32","trial","32","true","0.8,0.2","1:go_a","",""
"null","","html-keyboard-response","160","8124907","0.0-4.0-1.40","","<img src=""img/red-r.png"" border=""10"">","null","trial","32","","0.8,0.2","1:go_a","1",""
"null","","html-keyboard-response","161","8125909","0.0-4.0-2.40","","<div style=""font-size:60px;"">+</div>","null","","","","","","",""
"null","","image-keyboard-response","162","8127425","0.0-4.0-0.41","","img/green.png","null","trial","null","true","0.2,0.8","2:nogo_b","",""
"null","","html-keyboard-response","163","8128426","0.0-4.0-1.41","","<img src=""img/green-r.png"">","null","trial","null","","0.2,0.8","2:nogo_b","1",""
"null","","html-keyboard-response","164","8129432","0.0-4.0-2.41","","<div style=""font-size:60px;"">+</div>","null","","","","","","",""
"null","","image-keyboard-response","165","8130944","0.0-4.0-0.42","","img/green.png","null","trial","null","true","0.2,0.8","2:nogo_b","",""
"null","","html-keyboard-response","166","8131960","0.0-4.0-1.42","","<img src=""img/green-n.png"">","null","trial","null","","0.2,0.8","2:nogo_b","0",""
"null","","html-keyboard-response","167","8132970","0.0-4.0-2.42","","<div style=""font-size:60px;"">+</div>","null","","","","","","",""
"675.2000000476837","","image-keyboard-response","168","8133646","0.0-4.0-0.43","","img/red.png","32","trial","32","true","0.8,0.2","1:go_a","",""
"null","","html-keyboard-response","169","8134660","0.0-4.0-1.43","","<img src=""img/red-r.png"" border=""10"">","null","trial","32","","0.8,0.2","1:go_a","1",""
"null","","html-keyboard-response","170","8135670","0.0-4.0-2.43","","<div style=""font-size:60px;"">+</div>","null","","","","","","",""
"545.3000001907349","","image-keyboard-response","171","8136216","0.0-4.0-0.44","","img/red.png","32","trial","32","true","0.8,0.2","1:go_a","",""
"null","","html-keyboard-response","172","8137223","0.0-4.0-1.44","","<img src=""img/red-r.png"" border=""10"">","null","trial","32","","0.8,0.2","1:go_a","1",""
"null","","html-keyboard-response","173","8138239","0.0-4.0-2.44","","<div style=""font-size:60px;"">+</div>","null","","","","","","",""
"null","","image-keyboard-response","174","8139742","0.0-4.0-0.45","","img/green.png","null","trial","null","true","0.2,0.8","2:nogo_b","",""
"null","","html-keyboard-response","175","8140752","0.0-4.0-1.45","","<img src=""img/green-n.png"">","null","trial","null","","0.2,0.8","2:nogo_b","0",""
"null","","html-keyboard-response","176","8141763","0.0-4.0-2.45","","<div style=""font-size:60px;"">+</div>","null","","","","","","",""
"565.8000001907349","","image-keyboard-response","177","8142329","0.0-4.0-0.46","","img/green.png","32","trial","null","false","0.2,0.8","2:nogo_b","",""
"null","","html-keyboard-response","178","8143334","0.0-4.0-1.46","","<img src=""img/green-n.png"" border=""10"">","null","trial","null","","0.2,0.8","2:nogo_b","0",""
"null","","html-keyboard-response","179","8144345","0.0-4.0-2.46","","<div style=""font-size:60px;"">+</div>","null","","","","","","",""
"341.2000000476837","","image-keyboard-response","180","8144687","0.0-4.0-0.47","","img/red.png","32","trial","32","true","0.8,0.2","1:go_a","",""
"null","","html-keyboard-response","181","8145693","0.0-4.0-1.47","","<img src=""img/red-r.png"" border=""10"">","null","trial","32","","0.8,0.2","1:go_a","1",""
"null","","html-keyboard-response","182","8146700","0.0-4.0-2.47","","<div style=""font-size:60px;"">+</div>","null","","","","","","",""
"null","","image-keyboard-response","183","8148206","0.0-4.0-0.48","","img/green.png","null","trial","null","true","0.2,0.8","2:nogo_b","",""
"null","","html-keyboard-response","184","8149216","0.0-4.0-1.48","","<img src=""img/green-n.png"">","null","trial","null","","0.2,0.8","2:nogo_b","0",""
"null","","html-keyboard-response","185","8150224","0.0-4.0-2.48","","<div style=""font-size:60px;"">+</div>","null","","","","","","",""
"370.90000009536743","","image-keyboard-response","186","8150596","0.0-4.0-0.49","","img/red.png","32","trial","32","true","0.8,0.2","1:go_a","",""
"null","","html-keyboard-response","187","8151605","0.0-4.0-1.49","","<img src=""img/red-n.png"" border=""10"">","null","trial","32","","0.8,0.2","1:go_a","0",""
"null","","html-keyboard-response","188","8152618","0.0-4.0-2.49","","<div style=""font-size:60px;"">+</div>","null","","","","","","",""
"355.7000000476837","","image-keyboard-response","189","8152974","0.0-4.0-0.50","","img/red.png","32","trial","32","true","0.8,0.2","1:go_a","",""
"null","","html-keyboard-response","190","8153985","0.0-4.0-1.50","","<img src=""img/red-r.png"" border=""10"">","null","trial","32","","0.8,0.2","1:go_a","1",""
"null","","html-keyboard-response","191","8154999","0.0-4.0-2.50","","<div style=""font-size:60px;"">+</div>","null","","","","","","",""
"null","","image-keyboard-response","192","8156503","0.0-4.0-0.51","","img/green.png","null","trial","null","true","0.2,0.8","2:nogo_b","",""
"null","","html-keyboard-response","193","8157531","0.0-4.0-1.51","","<img src=""img/green-r.png"">","null","trial","null","","0.2,0.8","2:nogo_b","1",""
"null","","html-keyboard-response","194","8158534","0.0-4.0-2.51","","<div style=""font-size:60px;"">+</div>","null","","","","","","",""
"926.4000000953674","","image-keyboard-response","195","8159461","0.0-4.0-0.52","","img/green.png","32","trial","null","false","0.2,0.8","2:nogo_b","",""
"null","","html-keyboard-response","196","8160469","0.0-4.0-1.52","","<img src=""img/green-r.png"" border=""10"">","null","trial","null","","0.2,0.8","2:nogo_b","1",""
"null","","html-keyboard-response","197","8161470","0.0-4.0-2.52","","<div style=""font-size:60px;"">+</div>","null","","","","","","",""
"497.7999999523163","","image-keyboard-response","198","8161969","0.0-4.0-0.53","","img/red.png","32","trial","32","true","0.8,0.2","1:go_a","",""
"null","","html-keyboard-response","199","8162975","0.0-4.0-1.53","","<img src=""img/red-r.png"" border=""10"">","null","trial","32","","0.8,0.2","1:go_a","1",""
"null","","html-keyboard-response","200","8163983","0.0-4.0-2.53","","<div style=""font-size:60px;"">+</div>","null","","","","","","",""
"429.2000000476837","","image-keyboard-response","201","8164413","0.0-4.0-0.54","","img/red.png","32","trial","32","true","0.8,0.2","1:go_a","",""
"null","","html-keyboard-response","202","8165428","0.0-4.0-1.54","","<img src=""img/red-r.png"" border=""10"">","null","trial","32","","0.8,0.2","1:go_a","1",""
"null","","html-keyboard-response","203","8166437","0.0-4.0-2.54","","<div style=""font-size:60px;"">+</div>","null","","","","","","",""
"null","","image-keyboard-response","204","8167945","0.0-4.0-0.55","","img/green.png","null","trial","null","true","0.2,0.8","2:nogo_b","",""
"null","","html-keyboard-response","205","8168956","0.0-4.0-1.55","","<img src=""img/green-r.png"">","null","trial","null","","0.2,0.8","2:nogo_b","1",""
"null","","html-keyboard-response","206","8169963","0.0-4.0-2.55","","<div style=""font-size:60px;"">+</div>","null","","","","","","",""
"468.59999990463257","","image-keyboard-response","207","8170432","0.0-4.0-0.56","","img/green.png","32","trial","null","false","0.2,0.8","2:nogo_b","",""
"null","","html-keyboard-response","208","8171438","0.0-4.0-1.56","","<img src=""img/green-n.png"" border=""10"">","null","trial","null","","0.2,0.8","2:nogo_b","0",""
"null","","html-keyboard-response","209","8172451","0.0-4.0-2.56","","<div style=""font-size:60px;"">+</div>","null","","","","","","",""
"395.5","","image-keyboard-response","210","8172847","0.0-4.0-0.57","","img/red.png","32","trial","32","true","0.8,0.2","1:go_a","",""
"null","","html-keyboard-response","211","8173855","0.0-4.0-1.57","","<img src=""img/red-r.png"" border=""10"">","null","trial","32","","0.8,0.2","1:go_a","1",""
"null","","html-keyboard-response","212","8174864","0.0-4.0-2.57","","<div style=""font-size:60px;"">+</div>","null","","","","","","",""
"472.90000009536743","","image-keyboard-response","213","8175337","0.0-4.0-0.58","","img/red.png","32","trial","32","true","0.8,0.2","1:go_a","",""
"null","","html-keyboard-response","214","8176341","0.0-4.0-1.58","","<img src=""img/red-n.png"" border=""10"">","null","trial","32","","0.8,0.2","1:go_a","0",""
"null","","html-keyboard-response","215","8177343","0.0-4.0-2.58","","<div style=""font-size:60px;"">+</div>","null","","","","","","",""
"530","","image-keyboard-response","216","8177874","0.0-4.0-0.59","","img/green.png","32","trial","null","false","0.2,0.8","2:nogo_b","",""
"null","","html-keyboard-response","217","8178883","0.0-4.0-1.59","","<img src=""img/green-n.png"" border=""10"">","null","trial","null","","0.2,0.8","2:nogo_b","0",""
"null","","html-keyboard-response","218","8179892","0.0-4.0-2.59","","<div style=""font-size:60px;"">+</div>","null","","","","","","",""
"82645.90000009537","","instructions","219","8262538","0.0-5.0","[{""page_index"":0,""viewing_time"":82645.20000004768}]","","","","","","","","",""
"null","","image-keyboard-response","220","8264049","0.0-6.0-0.0","","img/purple.png","null","trial","32","false","0.8,0.2","1:go_a","",""
"null","","html-keyboard-response","221","8265054","0.0-6.0-1.0","","<img src=""img/purple-n.png"">","null","trial","32","","0.8,0.2","1:go_a","0",""
"null","","html-keyboard-response","222","8266066","0.0-6.0-2.0","","<div style=""font-size:60px;"">+</div>","null","","","","","","",""
"438.09999990463257","","image-keyboard-response","223","8266505","0.0-6.0-0.1","","img/grey.png","32","trial","null","false","0.2,0.8","2:nogo_b","",""
"null","","html-keyboard-response","224","8267516","0.0-6.0-1.1","","<img src=""img/grey-n.png"" border=""10"">","null","trial","null","","0.2,0.8","2:nogo_b","0",""
"null","","html-keyboard-response","225","8268525","0.0-6.0-2.1","","<div style=""font-size:60px;"">+</div>","null","","","","","","",""
"381","","image-keyboard-response","226","8268907","0.0-6.0-0.2","","img/blue.png","32","trial","32","true","1,0","3:go_c","",""
"null","","html-keyboard-response","227","8269920","0.0-6.0-1.2","","<img src=""img/blue-r.png"" border=""10"">","null","trial","32","","1,0","3:go_c","1",""
"null","","html-keyboard-response","228","8270930","0.0-6.0-2.2","","<div style=""font-size:60px;"">+</div>","null","","","","","","",""
"689.0999999046326","","image-keyboard-response","229","8271620","0.0-6.0-0.3","","img/red.png","32","trial","null","false","0,1","4:nogo_d","",""
"null","","html-keyboard-response","230","8272623","0.0-6.0-1.3","","<img src=""img/red-n.png"" border=""10"">","null","trial","null","","0,1","4:nogo_d","0",""
"null","","html-keyboard-response","231","8273628","0.0-6.0-2.3","","<div style=""font-size:60px;"">+</div>","null","","","","","","",""
"642.2000000476837","","image-keyboard-response","232","8274271","0.0-6.0-0.4","","img/red.png","32","trial","null","false","0,1","4:nogo_d","",""
"null","","html-keyboard-response","233","8275285","0.0-6.0-1.4","","<img src=""img/red-n.png"" border=""10"">","null","trial","null","","0,1","4:nogo_d","0",""
"null","","html-keyboard-response","234","8276294","0.0-6.0-2.4","","<div style=""font-size:60px;"">+</div>","null","","","","","","",""
"473.60000014305115","","image-keyboard-response","235","8276769","0.0-6.0-0.5","","img/purple.png","32","trial","32","true","0.8,0.2","1:go_a","",""
"null","","html-keyboard-response","236","8277781","0.0-6.0-1.5","","<img src=""img/purple-r.png"" border=""10"">","null","trial","32","","0.8,0.2","1:go_a","1",""
"null","","html-keyboard-response","237","8278783","0.0-6.0-2.5","","<div style=""font-size:60px;"">+</div>","null","","","","","","",""
"427.59999990463257","","image-keyboard-response","238","8279212","0.0-6.0-0.6","","img/blue.png","32","trial","32","true","1,0","3:go_c","",""
"null","","html-keyboard-response","239","8280225","0.0-6.0-1.6","","<img src=""img/blue-r.png"" border=""10"">","null","trial","32","","1,0","3:go_c","1",""
"null","","html-keyboard-response","240","8281233","0.0-6.0-2.6","","<div style=""font-size:60px;"">+</div>","null","","","","","","",""
"null","","image-keyboard-response","241","8282743","0.0-6.0-0.7","","img/grey.png","null","trial","null","true","0.2,0.8","2:nogo_b","",""
"null","","html-keyboard-response","242","8283746","0.0-6.0-1.7","","<img src=""img/grey-r.png"">","null","trial","null","","0.2,0.8","2:nogo_b","1",""
"null","","html-keyboard-response","243","8284753","0.0-6.0-2.7","","<div style=""font-size:60px;"">+</div>","null","","","","","","",""
"null","","image-keyboard-response","244","8286259","0.0-6.0-0.8","","img/red.png","null","trial","null","true","0,1","4:nogo_d","",""
"null","","html-keyboard-response","245","8287271","0.0-6.0-1.8","","<img src=""img/red-r.png"">","null","trial","null","","0,1","4:nogo_d","1",""
"null","","html-keyboard-response","246","8288279","0.0-6.0-2.8","","<div style=""font-size:60px;"">+</div>","null","","","","","","",""
"474","","image-keyboard-response","247","8288754","0.0-6.0-0.9","","img/blue.png","32","trial","32","true","1,0","3:go_c","",""
"null","","html-keyboard-response","248","8289767","0.0-6.0-1.9","","<img src=""img/blue-r.png"" border=""10"">","null","trial","32","","1,0","3:go_c","1",""
"null","","html-keyboard-response","249","8290772","0.0-6.0-2.9","","<div style=""font-size:60px;"">+</div>","null","","","","","","",""
"null","","image-keyboard-response","250","8292275","0.0-6.0-0.10","","img/grey.png","null","trial","null","true","0.2,0.8","2:nogo_b","",""
"null","","html-keyboard-response","251","8293288","0.0-6.0-1.10","","<img src=""img/grey-n.png"">","null","trial","null","","0.2,0.8","2:nogo_b","0",""
"null","","html-keyboard-response","252","8294292","0.0-6.0-2.10","","<div style=""font-size:60px;"">+</div>","null","","","","","","",""
"581.0999999046326","","image-keyboard-response","253","8294874","0.0-6.0-0.11","","img/purple.png","32","trial","32","true","0.8,0.2","1:go_a","",""
"null","","html-keyboard-response","254","8295886","0.0-6.0-1.11","","<img src=""img/purple-r.png"" border=""10"">","null","trial","32","","0.8,0.2","1:go_a","1",""
"null","","html-keyboard-response","255","8296888","0.0-6.0-2.11","","<div style=""font-size:60px;"">+</div>","null","","","","","","",""
"509.10000014305115","","image-keyboard-response","256","8297398","0.0-6.0-0.12","","img/purple.png","32","trial","32","true","0.8,0.2","1:go_a","",""
"null","","html-keyboard-response","257","8298408","0.0-6.0-1.12","","<img src=""img/purple-r.png"" border=""10"">","null","trial","32","","0.8,0.2","1:go_a","1",""
"null","","html-keyboard-response","258","8299420","0.0-6.0-2.12","","<div style=""font-size:60px;"">+</div>","null","","","","","","",""
"null","","image-keyboard-response","259","8300926","0.0-6.0-0.13","","img/red.png","null","trial","null","true","0,1","4:nogo_d","",""
"null","","html-keyboard-response","260","8301934","0.0-6.0-1.13","","<img src=""img/red-r.png"">","null","trial","null","","0,1","4:nogo_d","1",""
"null","","html-keyboard-response","261","8302949","0.0-6.0-2.13","","<div style=""font-size:60px;"">+</div>","null","","","","","","",""
"null","","image-keyboard-response","262","8304452","0.0-6.0-0.14","","img/grey.png","null","trial","null","true","0.2,0.8","2:nogo_b","",""
"null","","html-keyboard-response","263","8305457","0.0-6.0-1.14","","<img src=""img/grey-r.png"">","null","trial","null","","0.2,0.8","2:nogo_b","1",""
"null","","html-keyboard-response","264","8306466","0.0-6.0-2.14","","<div style=""font-size:60px;"">+</div>","null","","","","","","",""
"440.89999985694885","","image-keyboard-response","265","8306908","0.0-6.0-0.15","","img/blue.png","32","trial","32","true","1,0","3:go_c","",""
"null","","html-keyboard-response","266","8307915","0.0-6.0-1.15","","<img src=""img/blue-r.png"" border=""10"">","null","trial","32","","1,0","3:go_c","1",""
"null","","html-keyboard-response","267","8308920","0.0-6.0-2.15","","<div style=""font-size:60px;"">+</div>","null","","","","","","",""
"606.7999999523163","","image-keyboard-response","268","8309528","0.0-6.0-0.16","","img/purple.png","32","trial","32","true","0.8,0.2","1:go_a","",""
"null","","html-keyboard-response","269","8310532","0.0-6.0-1.16","","<img src=""img/purple-r.png"" border=""10"">","null","trial","32","","0.8,0.2","1:go_a","1",""
"null","","html-keyboard-response","270","8311542","0.0-6.0-2.16","","<div style=""font-size:60px;"">+</div>","null","","","","","","",""
"608.7999999523163","","image-keyboard-response","271","8312152","0.0-6.0-0.17","","img/red.png","32","trial","null","false","0,1","4:nogo_d","",""
"null","","html-keyboard-response","272","8313160","0.0-6.0-1.17","","<img src=""img/red-n.png"" border=""10"">","null","trial","null","","0,1","4:nogo_d","0",""
"null","","html-keyboard-response","273","8314166","0.0-6.0-2.17","","<div style=""font-size:60px;"">+</div>","null","","","","","","",""
"null","","image-keyboard-response","274","8315673","0.0-6.0-0.18","","img/grey.png","null","trial","null","true","0.2,0.8","2:nogo_b","",""
"null","","html-keyboard-response","275","8316683","0.0-6.0-1.18","","<img src=""img/grey-r.png"">","null","trial","null","","0.2,0.8","2:nogo_b","1",""
"null","","html-keyboard-response","276","8317695","0.0-6.0-2.18","","<div style=""font-size:60px;"">+</div>","null","","","","","","",""
"422.09999990463257","","image-keyboard-response","277","8318117","0.0-6.0-0.19","","img/blue.png","32","trial","32","true","1,0","3:go_c","",""
"null","","html-keyboard-response","278","8319125","0.0-6.0-1.19","","<img src=""img/blue-r.png"" border=""10"">","null","trial","32","","1,0","3:go_c","1",""
"null","","html-keyboard-response","279","8320139","0.0-6.0-2.19","","<div style=""font-size:60px;"">+</div>","null","","","","","","",""
"null","","image-keyboard-response","280","8321644","0.0-6.0-0.20","","img/grey.png","null","trial","null","true","0.2,0.8","2:nogo_b","",""
"null","","html-keyboard-response","281","8322658","0.0-6.0-1.20","","<img src=""img/grey-n.png"">","null","trial","null","","0.2,0.8","2:nogo_b","0",""
"null","","html-keyboard-response","282","8323666","0.0-6.0-2.20","","<div style=""font-size:60px;"">+</div>","null","","","","","","",""
"522.2999999523163","","image-keyboard-response","283","8324190","0.0-6.0-0.21","","img/blue.png","32","trial","32","true","1,0","3:go_c","",""
"null","","html-keyboard-response","284","8325200","0.0-6.0-1.21","","<img src=""img/blue-r.png"" border=""10"">","null","trial","32","","1,0","3:go_c","1",""
"null","","html-keyboard-response","285","8326209","0.0-6.0-2.21","","<div style=""font-size:60px;"">+</div>","null","","","","","","",""
"null","","image-keyboard-response","286","8327721","0.0-6.0-0.22","","img/red.png","null","trial","null","true","0,1","4:nogo_d","",""
"null","","html-keyboard-response","287","8328729","0.0-6.0-1.22","","<img src=""img/red-r.png"">","null","trial","null","","0,1","4:nogo_d","1",""
"null","","html-keyboard-response","288","8329739","0.0-6.0-2.22","","<div style=""font-size:60px;"">+</div>","null","","","","","","",""
"578.5","","image-keyboard-response","289","8330319","0.0-6.0-0.23","","img/purple.png","32","trial","32","true","0.8,0.2","1:go_a","",""
"null","","html-keyboard-response","290","8331323","0.0-6.0-1.23","","<img src=""img/purple-r.png"" border=""10"">","null","trial","32","","0.8,0.2","1:go_a","1",""
"null","","html-keyboard-response","291","8332330","0.0-6.0-2.23","","<div style=""font-size:60px;"">+</div>","null","","","","","","",""
"530.7999999523163","","image-keyboard-response","292","8332862","0.0-6.0-0.24","","img/purple.png","32","trial","32","true","0.8,0.2","1:go_a","",""
"null","","html-keyboard-response","293","8333870","0.0-6.0-1.24","","<img src=""img/purple-n.png"" border=""10"">","null","trial","32","","0.8,0.2","1:go_a","0",""
"null","","html-keyboard-response","294","8334881","0.0-6.0-2.24","","<div style=""font-size:60px;"">+</div>","null","","","","","","",""
"847.7999999523163","","image-keyboard-response","295","8335730","0.0-6.0-0.25","","img/red.png","32","trial","null","false","0,1","4:nogo_d","",""
"null","","html-keyboard-response","296","8336737","0.0-6.0-1.25","","<img src=""img/red-n.png"" border=""10"">","null","trial","null","","0,1","4:nogo_d","0",""
"null","","html-keyboard-response","297","8337747","0.0-6.0-2.25","","<div style=""font-size:60px;"">+</div>","null","","","","","","",""
"null","","image-keyboard-response","298","8339252","0.0-6.0-0.26","","img/grey.png","null","trial","null","true","0.2,0.8","2:nogo_b","",""
"null","","html-keyboard-response","299","8340262","0.0-6.0-1.26","","<img src=""img/grey-r.png"">","null","trial","null","","0.2,0.8","2:nogo_b","1",""
"null","","html-keyboard-response","300","8341268","0.0-6.0-2.26","","<div style=""font-size:60px;"">+</div>","null","","","","","","",""
"412.2000000476837","","image-keyboard-response","301","8341681","0.0-6.0-0.27","","img/blue.png","32","trial","32","true","1,0","3:go_c","",""
"null","","html-keyboard-response","302","8342686","0.0-6.0-1.27","","<img src=""img/blue-r.png"" border=""10"">","null","trial","32","","1,0","3:go_c","1",""
"null","","html-keyboard-response","303","8343702","0.0-6.0-2.27","","<div style=""font-size:60px;"">+</div>","null","","","","","","",""
"767.2999999523163","","image-keyboard-response","304","8344470","0.0-6.0-0.28","","img/purple.png","32","trial","32","true","0.8,0.2","1:go_a","",""
"null","","html-keyboard-response","305","8345483","0.0-6.0-1.28","","<img src=""img/purple-r.png"" border=""10"">","null","trial","32","","0.8,0.2","1:go_a","1",""
"null","","html-keyboard-response","306","8346493","0.0-6.0-2.28","","<div style=""font-size:60px;"">+</div>","null","","","","","","",""
"null","","image-keyboard-response","307","8347997","0.0-6.0-0.29","","img/grey.png","null","trial","null","true","0.2,0.8","2:nogo_b","",""
"null","","html-keyboard-response","308","8349002","0.0-6.0-1.29","","<img src=""img/grey-n.png"">","null","trial","null","","0.2,0.8","2:nogo_b","0",""
"null","","html-keyboard-response","309","8350010","0.0-6.0-2.29","","<div style=""font-size:60px;"">+</div>","null","","","","","","",""
"529.2000000476837","","image-keyboard-response","310","8350540","0.0-6.0-0.30","","img/blue.png","32","trial","32","true","1,0","3:go_c","",""
"null","","html-keyboard-response","311","8351548","0.0-6.0-1.30","","<img src=""img/blue-r.png"" border=""10"">","null","trial","32","","1,0","3:go_c","1",""
"null","","html-keyboard-response","312","8352556","0.0-6.0-2.30","","<div style=""font-size:60px;"">+</div>","null","","","","","","",""
"null","","image-keyboard-response","313","8354060","0.0-6.0-0.31","","img/red.png","null","trial","null","true","0,1","4:nogo_d","",""
"null","","html-keyboard-response","314","8355065","0.0-6.0-1.31","","<img src=""img/red-r.png"">","null","trial","null","","0,1","4:nogo_d","1",""
"null","","html-keyboard-response","315","8356068","0.0-6.0-2.31","","<div style=""font-size:60px;"">+</div>","null","","","","","","",""
"418.60000014305115","","image-keyboard-response","316","8356487","0.0-6.0-0.32","","img/blue.png","32","trial","32","true","1,0","3:go_c","",""
"null","","html-keyboard-response","317","8357499","0.0-6.0-1.32","","<img src=""img/blue-r.png"" border=""10"">","null","trial","32","","1,0","3:go_c","1",""
"null","","html-keyboard-response","318","8358509","0.0-6.0-2.32","","<div style=""font-size:60px;"">+</div>","null","","","","","","",""
"null","","image-keyboard-response","319","8360013","0.0-6.0-0.33","","img/grey.png","null","trial","null","true","0.2,0.8","2:nogo_b","",""
"null","","html-keyboard-response","320","8361019","0.0-6.0-1.33","","<img src=""img/grey-r.png"">","null","trial","null","","0.2,0.8","2:nogo_b","1",""
"null","","html-keyboard-response","321","8362024","0.0-6.0-2.33","","<div style=""font-size:60px;"">+</div>","null","","","","","","",""
"null","","image-keyboard-response","322","8363530","0.0-6.0-0.34","","img/red.png","null","trial","null","true","0,1","4:nogo_d","",""
"null","","html-keyboard-response","323","8364539","0.0-6.0-1.34","","<img src=""img/red-r.png"">","null","trial","null","","0,1","4:nogo_d","1",""
"null","","html-keyboard-response","324","8365544","0.0-6.0-2.34","","<div style=""font-size:60px;"">+</div>","null","","","","","","",""
"377.59999990463257","","image-keyboard-response","325","8365922","0.0-6.0-0.35","","img/purple.png","32","trial","32","true","0.8,0.2","1:go_a","",""
"null","","html-keyboard-response","326","8366937","0.0-6.0-1.35","","<img src=""img/purple-r.png"" border=""10"">","null","trial","32","","0.8,0.2","1:go_a","1",""
"null","","html-keyboard-response","327","8367947","0.0-6.0-2.35","","<div style=""font-size:60px;"">+</div>","null","","","","","","",""
"null","","image-keyboard-response","328","8369454","0.0-6.0-0.36","","img/red.png","null","trial","null","true","0,1","4:nogo_d","",""
"null","","html-keyboard-response","329","8370464","0.0-6.0-1.36","","<img src=""img/red-r.png"">","null","trial","null","","0,1","4:nogo_d","1",""
"null","","html-keyboard-response","330","8371469","0.0-6.0-2.36","","<div style=""font-size:60px;"">+</div>","null","","","","","","",""
"null","","image-keyboard-response","331","8372976","0.0-6.0-0.37","","img/grey.png","null","trial","null","true","0.2,0.8","2:nogo_b","",""
"null","","html-keyboard-response","332","8373986","0.0-6.0-1.37","","<img src=""img/grey-r.png"">","null","trial","null","","0.2,0.8","2:nogo_b","1",""
"null","","html-keyboard-response","333","8374996","0.0-6.0-2.37","","<div style=""font-size:60px;"">+</div>","null","","","","","","",""
"487.5","","image-keyboard-response","334","8375485","0.0-6.0-0.38","","img/blue.png","32","trial","32","true","1,0","3:go_c","",""
"null","","html-keyboard-response","335","8376496","0.0-6.0-1.38","","<img src=""img/blue-r.png"" border=""10"">","null","trial","32","","1,0","3:go_c","1",""
"null","","html-keyboard-response","336","8377507","0.0-6.0-2.38","","<div style=""font-size:60px;"">+</div>","null","","","","","","",""
"483","","image-keyboard-response","337","8377991","0.0-6.0-0.39","","img/purple.png","32","trial","32","true","0.8,0.2","1:go_a","",""
"null","","html-keyboard-response","338","8378998","0.0-6.0-1.39","","<img src=""img/purple-r.png"" border=""10"">","null","trial","32","","0.8,0.2","1:go_a","1",""
"null","","html-keyboard-response","339","8380008","0.0-6.0-2.39","","<div style=""font-size:60px;"">+</div>","null","","","","","","",""
"950.5999999046326","","image-keyboard-response","340","8380960","0.0-6.0-0.40","","img/grey.png","32","trial","null","false","0.2,0.8","2:nogo_b","",""
"null","","html-keyboard-response","341","8381962","0.0-6.0-1.40","","<img src=""img/grey-n.png"" border=""10"">","null","trial","null","","0.2,0.8","2:nogo_b","0",""
"null","","html-keyboard-response","342","8382979","0.0-6.0-2.40","","<div style=""font-size:60px;"">+</div>","null","","","","","","",""
"480.2000000476837","","image-keyboard-response","343","8383461","0.0-6.0-0.41","","img/blue.png","32","trial","32","true","1,0","3:go_c","",""
"null","","html-keyboard-response","344","8384476","0.0-6.0-1.41","","<img src=""img/blue-r.png"" border=""10"">","null","trial","32","","1,0","3:go_c","1",""
"null","","html-keyboard-response","345","8385485","0.0-6.0-2.41","","<div style=""font-size:60px;"">+</div>","null","","","","","","",""
"null","","image-keyboard-response","346","8386989","0.0-6.0-0.42","","img/red.png","null","trial","null","true","0,1","4:nogo_d","",""
"null","","html-keyboard-response","347","8388000","0.0-6.0-1.42","","<img src=""img/red-r.png"">","null","trial","null","","0,1","4:nogo_d","1",""
"null","","html-keyboard-response","348","8389009","0.0-6.0-2.42","","<div style=""font-size:60px;"">+</div>","null","","","","","","",""
"424.09999990463257","","image-keyboard-response","349","8389434","0.0-6.0-0.43","","img/purple.png","32","trial","32","true","0.8,0.2","1:go_a","",""
"null","","html-keyboard-response","350","8390441","0.0-6.0-1.43","","<img src=""img/purple-r.png"" border=""10"">","null","trial","32","","0.8,0.2","1:go_a","1",""
"null","","html-keyboard-response","351","8391452","0.0-6.0-2.43","","<div style=""font-size:60px;"">+</div>","null","","","","","","",""
"null","","image-keyboard-response","352","8392954","0.0-6.0-0.44","","img/grey.png","null","trial","null","true","0.2,0.8","2:nogo_b","",""
"null","","html-keyboard-response","353","8393968","0.0-6.0-1.44","","<img src=""img/grey-r.png"">","null","trial","null","","0.2,0.8","2:nogo_b","1",""
"null","","html-keyboard-response","354","8394976","0.0-6.0-2.44","","<div style=""font-size:60px;"">+</div>","null","","","","","","",""
"414","","image-keyboard-response","355","8395391","0.0-6.0-0.45","","img/purple.png","32","trial","32","true","0.8,0.2","1:go_a","",""
"null","","html-keyboard-response","356","8396408","0.0-6.0-1.45","","<img src=""img/purple-r.png"" border=""10"">","null","trial","32","","0.8,0.2","1:go_a","1",""
"null","","html-keyboard-response","357","8397420","0.0-6.0-2.45","","<div style=""font-size:60px;"">+</div>","null","","","","","","",""
"null","","image-keyboard-response","358","8398933","0.0-6.0-0.46","","img/red.png","null","trial","null","true","0,1","4:nogo_d","",""
"null","","html-keyboard-response","359","8399946","0.0-6.0-1.46","","<img src=""img/red-r.png"">","null","trial","null","","0,1","4:nogo_d","1",""
"null","","html-keyboard-response","360","8400962","0.0-6.0-2.46","","<div style=""font-size:60px;"">+</div>","null","","","","","","",""
"601","","image-keyboard-response","361","8401564","0.0-6.0-0.47","","img/blue.png","32","trial","32","true","1,0","3:go_c","",""
"null","","html-keyboard-response","362","8402567","0.0-6.0-1.47","","<img src=""img/blue-r.png"" border=""10"">","null","trial","32","","1,0","3:go_c","1",""
"null","","html-keyboard-response","363","8403579","0.0-6.0-2.47","","<div style=""font-size:60px;"">+</div>","null","","","","","","",""
"null","","image-keyboard-response","364","8405084","0.0-6.0-0.48","","img/red.png","null","trial","null","true","0,1","4:nogo_d","",""
"null","","html-keyboard-response","365","8406099","0.0-6.0-1.48","","<img src=""img/red-r.png"">","null","trial","null","","0,1","4:nogo_d","1",""
"null","","html-keyboard-response","366","8407110","0.0-6.0-2.48","","<div style=""font-size:60px;"">+</div>","null","","","","","","",""
"null","","image-keyboard-response","367","8408616","0.0-6.0-0.49","","img/grey.png","null","trial","null","true","0.2,0.8","2:nogo_b","",""
"null","","html-keyboard-response","368","8409627","0.0-6.0-1.49","","<img src=""img/grey-r.png"">","null","trial","null","","0.2,0.8","2:nogo_b","1",""
"null","","html-keyboard-response","369","8410637","0.0-6.0-2.49","","<div style=""font-size:60px;"">+</div>","null","","","","","","",""
"595.2999999523163","","image-keyboard-response","370","8411233","0.0-6.0-0.50","","img/purple.png","32","trial","32","true","0.8,0.2","1:go_a","",""
"null","","html-keyboard-response","371","8412245","0.0-6.0-1.50","","<img src=""img/purple-r.png"" border=""10"">","null","trial","32","","0.8,0.2","1:go_a","1",""
"null","","html-keyboard-response","372","8413256","0.0-6.0-2.50","","<div style=""font-size:60px;"">+</div>","null","","","","","","",""
"527.4000000953674","","image-keyboard-response","373","8413785","0.0-6.0-0.51","","img/blue.png","32","trial","32","true","1,0","3:go_c","",""
"null","","html-keyboard-response","374","8414797","0.0-6.0-1.51","","<img src=""img/blue-r.png"" border=""10"">","null","trial","32","","1,0","3:go_c","1",""
"null","","html-keyboard-response","375","8415809","0.0-6.0-2.51","","<div style=""font-size:60px;"">+</div>","null","","","","","","",""
"null","","image-keyboard-response","376","8417319","0.0-6.0-0.52","","img/red.png","null","trial","null","true","0,1","4:nogo_d","",""
"null","","html-keyboard-response","377","8418328","0.0-6.0-1.52","","<img src=""img/red-r.png"">","null","trial","null","","0,1","4:nogo_d","1",""
"null","","html-keyboard-response","378","8419340","0.0-6.0-2.52","","<div style=""font-size:60px;"">+</div>","null","","","","","","",""
"401.2000000476837","","image-keyboard-response","379","8419742","0.0-6.0-0.53","","img/purple.png","32","trial","32","true","0.8,0.2","1:go_a","",""
"null","","html-keyboard-response","380","8420755","0.0-6.0-1.53","","<img src=""img/purple-r.png"" border=""10"">","null","trial","32","","0.8,0.2","1:go_a","1",""
"null","","html-keyboard-response","381","8421768","0.0-6.0-2.53","","<div style=""font-size:60px;"">+</div>","null","","","","","","",""
"500","","image-keyboard-response","382","8422269","0.0-6.0-0.54","","img/blue.png","32","trial","32","true","1,0","3:go_c","",""
"null","","html-keyboard-response","383","8423278","0.0-6.0-1.54","","<img src=""img/blue-r.png"" border=""10"">","null","trial","32","","1,0","3:go_c","1",""
"null","","html-keyboard-response","384","8424293","0.0-6.0-2.54","","<div style=""font-size:60px;"">+</div>","null","","","","","","",""
"null","","image-keyboard-response","385","8425806","0.0-6.0-0.55","","img/grey.png","null","trial","null","true","0.2,0.8","2:nogo_b","",""
"null","","html-keyboard-response","386","8426821","0.0-6.0-1.55","","<img src=""img/grey-r.png"">","null","trial","null","","0.2,0.8","2:nogo_b","1",""
"null","","html-keyboard-response","387","8427834","0.0-6.0-2.55","","<div style=""font-size:60px;"">+</div>","null","","","","","","",""
"null","","image-keyboard-response","388","8429339","0.0-6.0-0.56","","img/red.png","null","trial","null","true","0,1","4:nogo_d","",""
"null","","html-keyboard-response","389","8430348","0.0-6.0-1.56","","<img src=""img/red-r.png"">","null","trial","null","","0,1","4:nogo_d","1",""
"null","","html-keyboard-response","390","8431350","0.0-6.0-2.56","","<div style=""font-size:60px;"">+</div>","null","","","","","","",""
"348.89999985694885","","image-keyboard-response","391","8431699","0.0-6.0-0.57","","img/blue.png","32","trial","32","true","1,0","3:go_c","",""
"null","","html-keyboard-response","392","8432705","0.0-6.0-1.57","","<img src=""img/blue-r.png"" border=""10"">","null","trial","32","","1,0","3:go_c","1",""
"null","","html-keyboard-response","393","8433711","0.0-6.0-2.57","","<div style=""font-size:60px;"">+</div>","null","","","","","","",""
"349.40000009536743","","image-keyboard-response","394","8434062","0.0-6.0-0.58","","img/purple.png","32","trial","32","true","0.8,0.2","1:go_a","",""
"null","","html-keyboard-response","395","8435075","0.0-6.0-1.58","","<img src=""img/purple-r.png"" border=""10"">","null","trial","32","","0.8,0.2","1:go_a","1",""
"null","","html-keyboard-response","396","8436085","0.0-6.0-2.58","","<div style=""font-size:60px;"">+</div>","null","","","","","","",""
"null","","image-keyboard-response","397","8437592","0.0-6.0-0.59","","img/grey.png","null","trial","null","true","0.2,0.8","2:nogo_b","",""
"null","","html-keyboard-response","398","8438601","0.0-6.0-1.59","","<img src=""img/grey-r.png"">","null","trial","null","","0.2,0.8","2:nogo_b","1",""
"null","","html-keyboard-response","399","8439608","0.0-6.0-2.59","","<div style=""font-size:60px;"">+</div>","null","","","","","","",""
"330.2000000476837","","image-keyboard-response","400","8439939","0.0-6.0-0.60","","img/blue.png","32","trial","32","true","1,0","3:go_c","",""
"null","","html-keyboard-response","401","8440954","0.0-6.0-1.60","","<img src=""img/blue-r.png"" border=""10"">","null","trial","32","","1,0","3:go_c","1",""
"null","","html-keyboard-response","402","8441961","0.0-6.0-2.60","","<div style=""font-size:60px;"">+</div>","null","","","","","","",""
"null","","image-keyboard-response","403","8443466","0.0-6.0-0.61","","img/grey.png","null","trial","null","true","0.2,0.8","2:nogo_b","",""
"null","","html-keyboard-response","404","8444478","0.0-6.0-1.61","","<img src=""img/grey-r.png"">","null","trial","null","","0.2,0.8","2:nogo_b","1",""
"null","","html-keyboard-response","405","8445485","0.0-6.0-2.61","","<div style=""font-size:60px;"">+</div>","null","","","","","","",""
"415.10000014305115","","image-keyboard-response","406","8445901","0.0-6.0-0.62","","img/purple.png","32","trial","32","true","0.8,0.2","1:go_a","",""
"null","","html-keyboard-response","407","8446917","0.0-6.0-1.62","","<img src=""img/purple-r.png"" border=""10"">","null","trial","32","","0.8,0.2","1:go_a","1",""
"null","","html-keyboard-response","408","8447932","0.0-6.0-2.62","","<div style=""font-size:60px;"">+</div>","null","","","","","","",""
"null","","image-keyboard-response","409","8449448","0.0-6.0-0.63","","img/red.png","null","trial","null","true","0,1","4:nogo_d","",""
"null","","html-keyboard-response","410","8450457","0.0-6.0-1.63","","<img src=""img/red-r.png"">","null","trial","null","","0,1","4:nogo_d","1",""
"null","","html-keyboard-response","411","8451469","0.0-6.0-2.63","","<div style=""font-size:60px;"">+</div>","null","","","","","","",""
"null","","image-keyboard-response","412","8452980","0.0-6.0-0.64","","img/red.png","null","trial","null","true","0,1","4:nogo_d","",""
"null","","html-keyboard-response","413","8453988","0.0-6.0-1.64","","<img src=""img/red-r.png"">","null","trial","null","","0,1","4:nogo_d","1",""
"null","","html-keyboard-response","414","8454992","0.0-6.0-2.64","","<div style=""font-size:60px;"">+</div>","null","","","","","","",""
"898.7999999523163","","image-keyboard-response","415","8455891","0.0-6.0-0.65","","img/blue.png","32","trial","32","true","1,0","3:go_c","",""
"null","","html-keyboard-response","416","8456896","0.0-6.0-1.65","","<img src=""img/blue-r.png"" border=""10"">","null","trial","32","","1,0","3:go_c","1",""
"null","","html-keyboard-response","417","8457907","0.0-6.0-2.65","","<div style=""font-size:60px;"">+</div>","null","","","","","","",""
"null","","image-keyboard-response","418","8459411","0.0-6.0-0.66","","img/grey.png","null","trial","null","true","0.2,0.8","2:nogo_b","",""
"null","","html-keyboard-response","419","8460421","0.0-6.0-1.66","","<img src=""img/grey-r.png"">","null","trial","null","","0.2,0.8","2:nogo_b","1",""
"null","","html-keyboard-response","420","8461428","0.0-6.0-2.66","","<div style=""font-size:60px;"">+</div>","null","","","","","","",""
"396.7999999523163","","image-keyboard-response","421","8461825","0.0-6.0-0.67","","img/purple.png","32","trial","32","true","0.8,0.2","1:go_a","",""
"null","","html-keyboard-response","422","8462830","0.0-6.0-1.67","","<img src=""img/purple-r.png"" border=""10"">","null","trial","32","","0.8,0.2","1:go_a","1",""
"null","","html-keyboard-response","423","8463837","0.0-6.0-2.67","","<div style=""font-size:60px;"">+</div>","null","","","","","","",""
"397.2000000476837","","image-keyboard-response","424","8464235","0.0-6.0-0.68","","img/blue.png","32","trial","32","true","1,0","3:go_c","",""
"null","","html-keyboard-response","425","8465243","0.0-6.0-1.68","","<img src=""img/blue-r.png"" border=""10"">","null","trial","32","","1,0","3:go_c","1",""
"null","","html-keyboard-response","426","8466255","0.0-6.0-2.68","","<div style=""font-size:60px;"">+</div>","null","","","","","","",""
"null","","image-keyboard-response","427","8467758","0.0-6.0-0.69","","img/red.png","null","trial","null","true","0,1","4:nogo_d","",""
"null","","html-keyboard-response","428","8468770","0.0-6.0-1.69","","<img src=""img/red-r.png"">","null","trial","null","","0,1","4:nogo_d","1",""
"null","","html-keyboard-response","429","8469781","0.0-6.0-2.69","","<div style=""font-size:60px;"">+</div>","null","","","","","","",""
"null","","image-keyboard-response","430","8471288","0.0-6.0-0.70","","img/grey.png","null","trial","null","true","0.2,0.8","2:nogo_b","",""
"null","","html-keyboard-response","431","8472297","0.0-6.0-1.70","","<img src=""img/grey-r.png"">","null","trial","null","","0.2,0.8","2:nogo_b","1",""
"null","","html-keyboard-response","432","8473309","0.0-6.0-2.70","","<div style=""font-size:60px;"">+</div>","null","","","","","","",""
"299.40000009536743","","image-keyboard-response","433","8473609","0.0-6.0-0.71","","img/purple.png","32","trial","32","true","0.8,0.2","1:go_a","",""
"null","","html-keyboard-response","434","8474618","0.0-6.0-1.71","","<img src=""img/purple-n.png"" border=""10"">","null","trial","32","","0.8,0.2","1:go_a","0",""
"null","","html-keyboard-response","435","8475627","0.0-6.0-2.71","","<div style=""font-size:60px;"">+</div>","null","","","","","","",""
"null","","image-keyboard-response","436","8477144","0.0-6.0-0.72","","img/grey.png","null","trial","null","true","0.2,0.8","2:nogo_b","",""
"null","","html-keyboard-response","437","8478154","0.0-6.0-1.72","","<img src=""img/grey-r.png"">","null","trial","null","","0.2,0.8","2:nogo_b","1",""
"null","","html-keyboard-response","438","8479162","0.0-6.0-2.72","","<div style=""font-size:60px;"">+</div>","null","","","","","","",""
"null","","image-keyboard-response","439","8480678","0.0-6.0-0.73","","img/red.png","null","trial","null","true","0,1","4:nogo_d","",""
"null","","html-keyboard-response","440","8481688","0.0-6.0-1.73","","<img src=""img/red-r.png"">","null","trial","null","","0,1","4:nogo_d","1",""
"null","","html-keyboard-response","441","8482697","0.0-6.0-2.73","","<div style=""font-size:60px;"">+</div>","null","","","","","","",""
"467.7999999523163","","image-keyboard-response","442","8483166","0.0-6.0-0.74","","img/blue.png","32","trial","32","true","1,0","3:go_c","",""
"null","","html-keyboard-response","443","8484177","0.0-6.0-1.74","","<img src=""img/blue-r.png"" border=""10"">","null","trial","32","","1,0","3:go_c","1",""
"null","","html-keyboard-response","444","8485184","0.0-6.0-2.74","","<div style=""font-size:60px;"">+</div>","null","","","","","","",""
"777.7999999523163","","image-keyboard-response","445","8485963","0.0-6.0-0.75","","img/purple.png","32","trial","32","true","0.8,0.2","1:go_a","",""
"null","","html-keyboard-response","446","8486980","0.0-6.0-1.75","","<img src=""img/purple-r.png"" border=""10"">","null","trial","32","","0.8,0.2","1:go_a","1",""
"null","","html-keyboard-response","447","8487993","0.0-6.0-2.75","","<div style=""font-size:60px;"">+</div>","null","","","","","","",""
"null","","image-keyboard-response","448","8489495","0.0-6.0-0.76","","img/red.png","null","trial","null","true","0,1","4:nogo_d","",""
"null","","html-keyboard-response","449","8490503","0.0-6.0-1.76","","<img src=""img/red-r.png"">","null","trial","null","","0,1","4:nogo_d","1",""
"null","","html-keyboard-response","450","8491505","0.0-6.0-2.76","","<div style=""font-size:60px;"">+</div>","null","","","","","","",""
"null","","image-keyboard-response","451","8493006","0.0-6.0-0.77","","img/grey.png","null","trial","null","true","0.2,0.8","2:nogo_b","",""
"null","","html-keyboard-response","452","8494015","0.0-6.0-1.77","","<img src=""img/grey-r.png"">","null","trial","null","","0.2,0.8","2:nogo_b","1",""
"null","","html-keyboard-response","453","8495019","0.0-6.0-2.77","","<div style=""font-size:60px;"">+</div>","null","","","","","","",""
"492","","image-keyboard-response","454","8495513","0.0-6.0-0.78","","img/blue.png","32","trial","32","true","1,0","3:go_c","",""
"null","","html-keyboard-response","455","8496527","0.0-6.0-1.78","","<img src=""img/blue-r.png"" border=""10"">","null","trial","32","","1,0","3:go_c","1",""
"null","","html-keyboard-response","456","8497535","0.0-6.0-2.78","","<div style=""font-size:60px;"">+</div>","null","","","","","","",""
"990.7000000476837","","image-keyboard-response","457","8498526","0.0-6.0-0.79","","img/purple.png","32","trial","32","true","0.8,0.2","1:go_a","",""
"null","","html-keyboard-response","458","8499533","0.0-6.0-1.79","","<img src=""img/purple-n.png"" border=""10"">","null","trial","32","","0.8,0.2","1:go_a","0",""
"null","","html-keyboard-response","459","8500543","0.0-6.0-2.79","","<div style=""font-size:60px;"">+</div>","null","","","","","","",""
"737.5","","image-keyboard-response","460","8501282","0.0-6.0-0.80","","img/blue.png","32","trial","32","true","1,0","3:go_c","",""
"null","","html-keyboard-response","461","8502285","0.0-6.0-1.80","","<img src=""img/blue-r.png"" border=""10"">","null","trial","32","","1,0","3:go_c","1",""
"null","","html-keyboard-response","462","8503300","0.0-6.0-2.80","","<div style=""font-size:60px;"">+</div>","null","","","","","","",""
"null","","image-keyboard-response","463","8504816","0.0-6.0-0.81","","img/purple.png","null","trial","32","false","0.8,0.2","1:go_a","",""
"null","","html-keyboard-response","464","8505825","0.0-6.0-1.81","","<img src=""img/purple-r.png"">","null","trial","32","","0.8,0.2","1:go_a","1",""
"null","","html-keyboard-response","465","8506832","0.0-6.0-2.81","","<div style=""font-size:60px;"">+</div>","null","","","","","","",""
"1128.4000000953674","","image-keyboard-response","466","8507961","0.0-6.0-0.82","","img/grey.png","32","trial","null","false","0.2,0.8","2:nogo_b","",""
"null","","html-keyboard-response","467","8508977","0.0-6.0-1.82","","<img src=""img/grey-r.png"" border=""10"">","null","trial","null","","0.2,0.8","2:nogo_b","1",""
"null","","html-keyboard-response","468","8509985","0.0-6.0-2.82","","<div style=""font-size:60px;"">+</div>","null","","","","","","",""
"null","","image-keyboard-response","469","8511491","0.0-6.0-0.83","","img/red.png","null","trial","null","true","0,1","4:nogo_d","",""
"null","","html-keyboard-response","470","8512499","0.0-6.0-1.83","","<img src=""img/red-r.png"">","null","trial","null","","0,1","4:nogo_d","1",""
"null","","html-keyboard-response","471","8513509","0.0-6.0-2.83","","<div style=""font-size:60px;"">+</div>","null","","","","","","",""
"1334.3999998569489","","image-keyboard-response","472","8514844","0.0-6.0-0.84","","img/grey.png","32","trial","null","false","0.2,0.8","2:nogo_b","",""
"null","","html-keyboard-response","473","8515853","0.0-6.0-1.84","","<img src=""img/grey-n.png"" border=""10"">","null","trial","null","","0.2,0.8","2:nogo_b","0",""
"null","","html-keyboard-response","474","8516860","0.0-6.0-2.84","","<div style=""font-size:60px;"">+</div>","null","","","","","","",""
"858.1000001430511","","image-keyboard-response","475","8517719","0.0-6.0-0.85","","img/purple.png","32","trial","32","true","0.8,0.2","1:go_a","",""
"null","","html-keyboard-response","476","8518726","0.0-6.0-1.85","","<img src=""img/purple-r.png"" border=""10"">","null","trial","32","","0.8,0.2","1:go_a","1",""
"null","","html-keyboard-response","477","8519735","0.0-6.0-2.85","","<div style=""font-size:60px;"">+</div>","null","","","","","","",""
"898.3000001907349","","image-keyboard-response","478","8520634","0.0-6.0-0.86","","img/blue.png","32","trial","32","true","1,0","3:go_c","",""
"null","","html-keyboard-response","479","8521639","0.0-6.0-1.86","","<img src=""img/blue-r.png"" border=""10"">","null","trial","32","","1,0","3:go_c","1",""
"null","","html-keyboard-response","480","8522649","0.0-6.0-2.86","","<div style=""font-size:60px;"">+</div>","null","","","","","","",""
"610.3999998569489","","image-keyboard-response","481","8523261","0.0-6.0-0.87","","img/red.png","32","trial","null","false","0,1","4:nogo_d","",""
"null","","html-keyboard-response","482","8524277","0.0-6.0-1.87","","<img src=""img/red-n.png"" border=""10"">","null","trial","null","","0,1","4:nogo_d","0",""
"null","","html-keyboard-response","483","8525283","0.0-6.0-2.87","","<div style=""font-size:60px;"">+</div>","null","","","","","","",""
"null","","image-keyboard-response","484","8526799","0.0-6.0-0.88","","img/red.png","null","trial","null","true","0,1","4:nogo_d","",""
"null","","html-keyboard-response","485","8527810","0.0-6.0-1.88","","<img src=""img/red-r.png"">","null","trial","null","","0,1","4:nogo_d","1",""
"null","","html-keyboard-response","486","8528816","0.0-6.0-2.88","","<div style=""font-size:60px;"">+</div>","null","","","","","","",""
"609","","image-keyboard-response","487","8529426","0.0-6.0-0.89","","img/blue.png","32","trial","32","true","1,0","3:go_c","",""
"null","","html-keyboard-response","488","8530430","0.0-6.0-1.89","","<img src=""img/blue-r.png"" border=""10"">","null","trial","32","","1,0","3:go_c","1",""
"null","","html-keyboard-response","489","8531437","0.0-6.0-2.89","","<div style=""font-size:60px;"">+</div>","null","","","","","","",""
"830.5999999046326","","image-keyboard-response","490","8532269","0.0-6.0-0.90","","img/grey.png","32","trial","null","false","0.2,0.8","2:nogo_b","",""
"null","","html-keyboard-response","491","8533286","0.0-6.0-1.90","","<img src=""img/grey-r.png"" border=""10"">","null","trial","null","","0.2,0.8","2:nogo_b","1",""
"null","","html-keyboard-response","492","8534294","0.0-6.0-2.90","","<div style=""font-size:60px;"">+</div>","null","","","","","","",""
"null","","image-keyboard-response","493","8535801","0.0-6.0-0.91","","img/purple.png","null","trial","32","false","0.8,0.2","1:go_a","",""
"null","","html-keyboard-response","494","8536811","0.0-6.0-1.91","","<img src=""img/purple-n.png"">","null","trial","32","","0.8,0.2","1:go_a","0",""
"null","","html-keyboard-response","495","8537825","0.0-6.0-2.91","","<div style=""font-size:60px;"">+</div>","null","","","","","","",""
"null","","image-keyboard-response","496","8539333","0.0-6.0-0.92","","img/red.png","null","trial","null","true","0,1","4:nogo_d","",""
"null","","html-keyboard-response","497","8540339","0.0-6.0-1.92","","<img src=""img/red-r.png"">","null","trial","null","","0,1","4:nogo_d","1",""
"null","","html-keyboard-response","498","8541346","0.0-6.0-2.92","","<div style=""font-size:60px;"">+</div>","null","","","","","","",""
"459.89999985694885","","image-keyboard-response","499","8541807","0.0-6.0-0.93","","img/purple.png","32","trial","32","true","0.8,0.2","1:go_a","",""
"null","","html-keyboard-response","500","8542823","0.0-6.0-1.93","","<img src=""img/purple-n.png"" border=""10"">","null","trial","32","","0.8,0.2","1:go_a","0",""
"null","","html-keyboard-response","501","8543831","0.0-6.0-2.93","","<div style=""font-size:60px;"">+</div>","null","","","","","","",""
"436.90000009536743","","image-keyboard-response","502","8544269","0.0-6.0-0.94","","img/blue.png","32","trial","32","true","1,0","3:go_c","",""
"null","","html-keyboard-response","503","8545280","0.0-6.0-1.94","","<img src=""img/blue-r.png"" border=""10"">","null","trial","32","","1,0","3:go_c","1",""
"null","","html-keyboard-response","504","8546288","0.0-6.0-2.94","","<div style=""font-size:60px;"">+</div>","null","","","","","","",""
"769.7999999523163","","image-keyboard-response","505","8547059","0.0-6.0-0.95","","img/grey.png","32","trial","null","false","0.2,0.8","2:nogo_b","",""
"null","","html-keyboard-response","506","8548072","0.0-6.0-1.95","","<img src=""img/grey-n.png"" border=""10"">","null","trial","null","","0.2,0.8","2:nogo_b","0",""
"null","","html-keyboard-response","507","8549080","0.0-6.0-2.95","","<div style=""font-size:60px;"">+</div>","null","","","","","","",""
"null","","image-keyboard-response","508","8550582","0.0-6.0-0.96","","img/grey.png","null","trial","null","true","0.2,0.8","2:nogo_b","",""
"null","","html-keyboard-response","509","8551589","0.0-6.0-1.96","","<img src=""img/grey-r.png"">","null","trial","null","","0.2,0.8","2:nogo_b","1",""
"null","","html-keyboard-response","510","8552604","0.0-6.0-2.96","","<div style=""font-size:60px;"">+</div>","null","","","","","","",""
"648.2000000476837","","image-keyboard-response","511","8553253","0.0-6.0-0.97","","img/purple.png","32","trial","32","true","0.8,0.2","1:go_a","",""
"null","","html-keyboard-response","512","8554259","0.0-6.0-1.97","","<img src=""img/purple-r.png"" border=""10"">","null","trial","32","","0.8,0.2","1:go_a","1",""
"null","","html-keyboard-response","513","8555269","0.0-6.0-2.97","","<div style=""font-size:60px;"">+</div>","null","","","","","","",""
"503","","image-keyboard-response","514","8555773","0.0-6.0-0.98","","img/blue.png","32","trial","32","true","1,0","3:go_c","",""
"null","","html-keyboard-response","515","8556799","0.0-6.0-1.98","","<img src=""img/blue-r.png"" border=""10"">","null","trial","32","","1,0","3:go_c","1",""
"null","","html-keyboard-response","516","8557812","0.0-6.0-2.98","","<div style=""font-size:60px;"">+</div>","null","","","","","","",""
"null","","image-keyboard-response","517","8559328","0.0-6.0-0.99","","img/red.png","null","trial","null","true","0,1","4:nogo_d","",""
"null","","html-keyboard-response","518","8560336","0.0-6.0-1.99","","<img src=""img/red-r.png"">","null","trial","null","","0,1","4:nogo_d","1",""
"null","","html-keyboard-response","519","8561345","0.0-6.0-2.99","","<div style=""font-size:60px;"">+</div>","null","","","","","","",""
"null","","image-keyboard-response","520","8562856","0.0-6.0-0.100","","img/purple.png","null","trial","32","false","0.8,0.2","1:go_a","",""
"null","","html-keyboard-response","521","8563864","0.0-6.0-1.100","","<img src=""img/purple-r.png"">","null","trial","32","","0.8,0.2","1:go_a","1",""
"null","","html-keyboard-response","522","8564867","0.0-6.0-2.100","","<div style=""font-size:60px;"">+</div>","null","","","","","","",""
"371.90000009536743","","image-keyboard-response","523","8565240","0.0-6.0-0.101","","img/blue.png","32","trial","32","true","1,0","3:go_c","",""
"null","","html-keyboard-response","524","8566253","0.0-6.0-1.101","","<img src=""img/blue-r.png"" border=""10"">","null","trial","32","","1,0","3:go_c","1",""
"null","","html-keyboard-response","525","8567265","0.0-6.0-2.101","","<div style=""font-size:60px;"">+</div>","null","","","","","","",""
"null","","image-keyboard-response","526","8568782","0.0-6.0-0.102","","img/red.png","null","trial","null","true","0,1","4:nogo_d","",""
"null","","html-keyboard-response","527","8569792","0.0-6.0-1.102","","<img src=""img/red-r.png"">","null","trial","null","","0,1","4:nogo_d","1",""
"null","","html-keyboard-response","528","8570798","0.0-6.0-2.102","","<div style=""font-size:60px;"">+</div>","null","","","","","","",""
"null","","image-keyboard-response","529","8572301","0.0-6.0-0.103","","img/grey.png","null","trial","null","true","0.2,0.8","2:nogo_b","",""
"null","","html-keyboard-response","530","8573308","0.0-6.0-1.103","","<img src=""img/grey-r.png"">","null","trial","null","","0.2,0.8","2:nogo_b","1",""
"null","","html-keyboard-response","531","8574318","0.0-6.0-2.103","","<div style=""font-size:60px;"">+</div>","null","","","","","","",""
"null","","image-keyboard-response","532","8575824","0.0-6.0-0.104","","img/grey.png","null","trial","null","true","0.2,0.8","2:nogo_b","",""
"null","","html-keyboard-response","533","8576833","0.0-6.0-1.104","","<img src=""img/grey-r.png"">","null","trial","null","","0.2,0.8","2:nogo_b","1",""
"null","","html-keyboard-response","534","8577843","0.0-6.0-2.104","","<div style=""font-size:60px;"">+</div>","null","","","","","","",""
"1084.5","","image-keyboard-response","535","8578929","0.0-6.0-0.105","","img/red.png","32","trial","null","false","0,1","4:nogo_d","",""
"null","","html-keyboard-response","536","8579939","0.0-6.0-1.105","","<img src=""img/red-n.png"" border=""10"">","null","trial","null","","0,1","4:nogo_d","0",""
"null","","html-keyboard-response","537","8580948","0.0-6.0-2.105","","<div style=""font-size:60px;"">+</div>","null","","","","","","",""
"451.40000009536743","","image-keyboard-response","538","8581400","0.0-6.0-0.106","","img/purple.png","32","trial","32","true","0.8,0.2","1:go_a","",""
"null","","html-keyboard-response","539","8582409","0.0-6.0-1.106","","<img src=""img/purple-n.png"" border=""10"">","null","trial","32","","0.8,0.2","1:go_a","0",""
"null","","html-keyboard-response","540","8583416","0.0-6.0-2.106","","<div style=""font-size:60px;"">+</div>","null","","","","","","",""
"341.2000000476837","","image-keyboard-response","541","8583758","0.0-6.0-0.107","","img/blue.png","32","trial","32","true","1,0","3:go_c","",""
"null","","html-keyboard-response","542","8584765","0.0-6.0-1.107","","<img src=""img/blue-r.png"" border=""10"">","null","trial","32","","1,0","3:go_c","1",""
"null","","html-keyboard-response","543","8585774","0.0-6.0-2.107","","<div style=""font-size:60px;"">+</div>","null","","","","","","",""
"null","","image-keyboard-response","544","8587282","0.0-6.0-0.108","","img/red.png","null","trial","null","true","0,1","4:nogo_d","",""
"null","","html-keyboard-response","545","8588291","0.0-6.0-1.108","","<img src=""img/red-r.png"">","null","trial","null","","0,1","4:nogo_d","1",""
"null","","html-keyboard-response","546","8589297","0.0-6.0-2.108","","<div style=""font-size:60px;"">+</div>","null","","","","","","",""
"1243.0999999046326","","image-keyboard-response","547","8590541","0.0-6.0-0.109","","img/blue.png","32","trial","32","true","1,0","3:go_c","",""
"null","","html-keyboard-response","548","8591544","0.0-6.0-1.109","","<img src=""img/blue-r.png"" border=""10"">","null","trial","32","","1,0","3:go_c","1",""
"null","","html-keyboard-response","549","8592554","0.0-6.0-2.109","","<div style=""font-size:60px;"">+</div>","null","","","","","","",""
"null","","image-keyboard-response","550","8594061","0.0-6.0-0.110","","img/grey.png","null","trial","null","true","0.2,0.8","2:nogo_b","",""
"null","","html-keyboard-response","551","8595071","0.0-6.0-1.110","","<img src=""img/grey-n.png"">","null","trial","null","","0.2,0.8","2:nogo_b","0",""
"null","","html-keyboard-response","552","8596079","0.0-6.0-2.110","","<div style=""font-size:60px;"">+</div>","null","","","","","","",""
"null","","image-keyboard-response","553","8597583","0.0-6.0-0.111","","img/purple.png","null","trial","32","false","0.8,0.2","1:go_a","",""
"null","","html-keyboard-response","554","8598591","0.0-6.0-1.111","","<img src=""img/purple-n.png"">","null","trial","32","","0.8,0.2","1:go_a","0",""
"null","","html-keyboard-response","555","8599604","0.0-6.0-2.111","","<div style=""font-size:60px;"">+</div>","null","","","","","","",""
"null","","image-keyboard-response","556","8601121","0.0-6.0-0.112","","img/purple.png","null","trial","32","false","0.8,0.2","1:go_a","",""
"null","","html-keyboard-response","557","8602131","0.0-6.0-1.112","","<img src=""img/purple-n.png"">","null","trial","32","","0.8,0.2","1:go_a","0",""
"null","","html-keyboard-response","558","8603138","0.0-6.0-2.112","","<div style=""font-size:60px;"">+</div>","null","","","","","","",""
"null","","image-keyboard-response","559","8604654","0.0-6.0-0.113","","img/red.png","null","trial","null","true","0,1","4:nogo_d","",""
"null","","html-keyboard-response","560","8605659","0.0-6.0-1.113","","<img src=""img/red-r.png"">","null","trial","null","","0,1","4:nogo_d","1",""
"null","","html-keyboard-response","561","8606663","0.0-6.0-2.113","","<div style=""font-size:60px;"">+</div>","null","","","","","","",""
"483.7999999523163","","image-keyboard-response","562","8607148","0.0-6.0-0.114","","img/blue.png","32","trial","32","true","1,0","3:go_c","",""
"null","","html-keyboard-response","563","8608157","0.0-6.0-1.114","","<img src=""img/blue-r.png"" border=""10"">","null","trial","32","","1,0","3:go_c","1",""
"null","","html-keyboard-response","564","8609166","0.0-6.0-2.114","","<div style=""font-size:60px;"">+</div>","null","","","","","","",""
"null","","image-keyboard-response","565","8610680","0.0-6.0-0.115","","img/grey.png","null","trial","null","true","0.2,0.8","2:nogo_b","",""
"null","","html-keyboard-response","566","8611688","0.0-6.0-1.115","","<img src=""img/grey-r.png"">","null","trial","null","","0.2,0.8","2:nogo_b","1",""
"null","","html-keyboard-response","567","8612700","0.0-6.0-2.115","","<div style=""font-size:60px;"">+</div>","null","","","","","","",""
"null","","image-keyboard-response","568","8614208","0.0-6.0-0.116","","img/grey.png","null","trial","null","true","0.2,0.8","2:nogo_b","",""
"null","","html-keyboard-response","569","8615215","0.0-6.0-1.116","","<img src=""img/grey-r.png"">","null","trial","null","","0.2,0.8","2:nogo_b","1",""
"null","","html-keyboard-response","570","8616220","0.0-6.0-2.116","","<div style=""font-size:60px;"">+</div>","null","","","","","","",""
"1097.6999998092651","","image-keyboard-response","571","8617319","0.0-6.0-0.117","","img/purple.png","32","trial","32","true","0.8,0.2","1:go_a","",""
"null","","html-keyboard-response","572","8618335","0.0-6.0-1.117","","<img src=""img/purple-r.png"" border=""10"">","null","trial","32","","0.8,0.2","1:go_a","1",""
"null","","html-keyboard-response","573","8619345","0.0-6.0-2.117","","<div style=""font-size:60px;"">+</div>","null","","","","","","",""
"640","","image-keyboard-response","574","8619986","0.0-6.0-0.118","","img/red.png","32","trial","null","false","0,1","4:nogo_d","",""
"null","","html-keyboard-response","575","8620999","0.0-6.0-1.118","","<img src=""img/red-n.png"" border=""10"">","null","trial","null","","0,1","4:nogo_d","0",""
"null","","html-keyboard-response","576","8622008","0.0-6.0-2.118","","<div style=""font-size:60px;"">+</div>","null","","","","","","",""
"524.7000000476837","","image-keyboard-response","577","8622534","0.0-6.0-0.119","","img/blue.png","32","trial","32","true","1,0","3:go_c","",""
"null","","html-keyboard-response","578","8623547","0.0-6.0-1.119","","<img src=""img/blue-r.png"" border=""10"">","null","trial","32","","1,0","3:go_c","1",""
"null","","html-keyboard-response","579","8624560","0.0-6.0-2.119","","<div style=""font-size:60px;"">+</div>","null","","","","","","",""
"758099.5","","instructions","580","9382661","0.0-7.0","[{""page_index"":0,""viewing_time"":758099}]","","","","","","","","",""
"1065.4000000953674","","image-keyboard-response","581","9383728","0.0-8.0-0.0","","img/yellow.png","32","trial","32","true","0.8,0.2","1:go_a","",""
"null","","html-keyboard-response","582","9384737","0.0-8.0-1.0","","<img src=""img/yellow-r.png"" border=""10"">","null","trial","32","","0.8,0.2","1:go_a","1",""
"null","","html-keyboard-response","583","9385747","0.0-8.0-2.0","","<div style=""font-size:60px;"">+</div>","null","","","","","","",""
"null","","image-keyboard-response","584","9387260","0.0-8.0-0.1","","img/grey.png","null","trial","null","true","0.2,0.8","4:nogo_d","",""
"null","","html-keyboard-response","585","9388272","0.0-8.0-1.1","","<img src=""img/grey-r.png"">","null","trial","null","","0.2,0.8","4:nogo_d","1",""
"null","","html-keyboard-response","586","9389274","0.0-8.0-2.1","","<div style=""font-size:60px;"">+</div>","null","","","","","","",""
"691.7000000476837","","image-keyboard-response","587","9389967","0.0-8.0-0.2","","img/orange.png","32","trial","32","true","0.8,0.2","3:go_c","",""
"null","","html-keyboard-response","588","9390976","0.0-8.0-1.2","","<img src=""img/orange-r.png"" border=""10"">","null","trial","32","","0.8,0.2","3:go_c","1",""
"null","","html-keyboard-response","589","9391982","0.0-8.0-2.2","","<div style=""font-size:60px;"">+</div>","null","","","","","","",""
"725.8000001907349","","image-keyboard-response","590","9392708","0.0-8.0-0.3","","img/purple.png","32","trial","null","false","0.2,0.8","2:nogo_b","",""
"null","","html-keyboard-response","591","9393713","0.0-8.0-1.3","","<img src=""img/purple-n.png"" border=""10"">","null","trial","null","","0.2,0.8","2:nogo_b","0",""
"null","","html-keyboard-response","592","9394719","0.0-8.0-2.3","","<div style=""font-size:60px;"">+</div>","null","","","","","","",""
"621.7000000476837","","image-keyboard-response","593","9395342","0.0-8.0-0.4","","img/orange.png","32","trial","32","true","0.8,0.2","3:go_c","",""
"null","","html-keyboard-response","594","9396359","0.0-8.0-1.4","","<img src=""img/orange-r.png"" border=""10"">","null","trial","32","","0.8,0.2","3:go_c","1",""
"null","","html-keyboard-response","595","9397367","0.0-8.0-2.4","","<div style=""font-size:60px;"">+</div>","null","","","","","","",""
"null","","image-keyboard-response","596","9398875","0.0-8.0-0.5","","img/purple.png","null","trial","null","true","0.2,0.8","2:nogo_b","",""
"null","","html-keyboard-response","597","9399884","0.0-8.0-1.5","","<img src=""img/purple-n.png"">","null","trial","null","","0.2,0.8","2:nogo_b","0",""
"null","","html-keyboard-response","598","9400893","0.0-8.0-2.5","","<div style=""font-size:60px;"">+</div>","null","","","","","","",""
"634.1999998092651","","image-keyboard-response","599","9401529","0.0-8.0-0.6","","img/grey.png","32","trial","null","false","0.2,0.8","4:nogo_d","",""
"null","","html-keyboard-response","600","9402545","0.0-8.0-1.6","","<img src=""img/grey-n.png"" border=""10"">","null","trial","null","","0.2,0.8","4:nogo_d","0",""
"null","","html-keyboard-response","601","9403551","0.0-8.0-2.6","","<div style=""font-size:60px;"">+</div>","null","","","","","","",""
"520.5","","image-keyboard-response","602","9404072","0.0-8.0-0.7","","img/yellow.png","32","trial","32","true","0.8,0.2","1:go_a","",""
"null","","html-keyboard-response","603","9405074","0.0-8.0-1.7","","<img src=""img/yellow-r.png"" border=""10"">","null","trial","32","","0.8,0.2","1:go_a","1",""
"null","","html-keyboard-response","604","9406088","0.0-8.0-2.7","","<div style=""font-size:60px;"">+</div>","null","","","","","","",""
"null","","image-keyboard-response","605","9407604","0.0-8.0-0.8","","img/grey.png","null","trial","null","true","0.2,0.8","4:nogo_d","",""
"null","","html-keyboard-response","606","9408609","0.0-8.0-1.8","","<img src=""img/grey-r.png"">","null","trial","null","","0.2,0.8","4:nogo_d","1",""
"null","","html-keyboard-response","607","9409621","0.0-8.0-2.8","","<div style=""font-size:60px;"">+</div>","null","","","","","","",""
"373.39999985694885","","image-keyboard-response","608","9409995","0.0-8.0-0.9","","img/yellow.png","32","trial","32","true","0.8,0.2","1:go_a","",""
"null","","html-keyboard-response","609","9411002","0.0-8.0-1.9","","<img src=""img/yellow-r.png"" border=""10"">","null","trial","32","","0.8,0.2","1:go_a","1",""
"null","","html-keyboard-response","610","9412011","0.0-8.0-2.9","","<div style=""font-size:60px;"">+</div>","null","","","","","","",""
"null","","image-keyboard-response","611","9413522","0.0-8.0-0.10","","img/purple.png","null","trial","null","true","0.2,0.8","2:nogo_b","",""
"null","","html-keyboard-response","612","9414535","0.0-8.0-1.10","","<img src=""img/purple-r.png"">","null","trial","null","","0.2,0.8","2:nogo_b","1",""
"null","","html-keyboard-response","613","9415549","0.0-8.0-2.10","","<div style=""font-size:60px;"">+</div>","null","","","","","","",""
"434.5","","image-keyboard-response","614","9415985","0.0-8.0-0.11","","img/orange.png","32","trial","32","true","0.8,0.2","3:go_c","",""
"null","","html-keyboard-response","615","9416992","0.0-8.0-1.11","","<img src=""img/orange-r.png"" border=""10"">","null","trial","32","","0.8,0.2","3:go_c","1",""
"null","","html-keyboard-response","616","9418002","0.0-8.0-2.11","","<div style=""font-size:60px;"">+</div>","null","","","","","","",""
"485.7999999523163","","image-keyboard-response","617","9418489","0.0-8.0-0.12","","img/yellow.png","32","trial","32","true","0.8,0.2","1:go_a","",""
"null","","html-keyboard-response","618","9419498","0.0-8.0-1.12","","<img src=""img/yellow-r.png"" border=""10"">","null","trial","32","","0.8,0.2","1:go_a","1",""
"null","","html-keyboard-response","619","9420513","0.0-8.0-2.12","","<div style=""font-size:60px;"">+</div>","null","","","","","","",""
"538.0999999046326","","image-keyboard-response","620","9421053","0.0-8.0-0.13","","img/orange.png","32","trial","32","true","0.8,0.2","3:go_c","",""
"null","","html-keyboard-response","621","9422055","0.0-8.0-1.13","","<img src=""img/orange-r.png"" border=""10"">","null","trial","32","","0.8,0.2","3:go_c","1",""
"null","","html-keyboard-response","622","9423069","0.0-8.0-2.13","","<div style=""font-size:60px;"">+</div>","null","","","","","","",""
"null","","image-keyboard-response","623","9424581","0.0-8.0-0.14","","img/purple.png","null","trial","null","true","0.2,0.8","2:nogo_b","",""
"null","","html-keyboard-response","624","9425593","0.0-8.0-1.14","","<img src=""img/purple-r.png"">","null","trial","null","","0.2,0.8","2:nogo_b","1",""
"null","","html-keyboard-response","625","9426606","0.0-8.0-2.14","","<div style=""font-size:60px;"">+</div>","null","","","","","","",""
"null","","image-keyboard-response","626","9428117","0.0-8.0-0.15","","img/grey.png","null","trial","null","true","0.2,0.8","4:nogo_d","",""
"null","","html-keyboard-response","627","9429125","0.0-8.0-1.15","","<img src=""img/grey-r.png"">","null","trial","null","","0.2,0.8","4:nogo_d","1",""
"null","","html-keyboard-response","628","9430137","0.0-8.0-2.15","","<div style=""font-size:60px;"">+</div>","null","","","","","","",""
"null","","image-keyboard-response","629","9431648","0.0-8.0-0.16","","img/grey.png","null","trial","null","true","0.2,0.8","4:nogo_d","",""
"null","","html-keyboard-response","630","9432664","0.0-8.0-1.16","","<img src=""img/grey-n.png"">","null","trial","null","","0.2,0.8","4:nogo_d","0",""
"null","","html-keyboard-response","631","9433675","0.0-8.0-2.16","","<div style=""font-size:60px;"">+</div>","null","","","","","","",""
"513.3999998569489","","image-keyboard-response","632","9434189","0.0-8.0-0.17","","img/yellow.png","32","trial","32","true","0.8,0.2","1:go_a","",""
"null","","html-keyboard-response","633","9435200","0.0-8.0-1.17","","<img src=""img/yellow-r.png"" border=""10"">","null","trial","32","","0.8,0.2","1:go_a","1",""
"null","","html-keyboard-response","634","9436214","0.0-8.0-2.17","","<div style=""font-size:60px;"">+</div>","null","","","","","","",""
"412.09999990463257","","image-keyboard-response","635","9436626","0.0-8.0-0.18","","img/orange.png","32","trial","32","true","0.8,0.2","3:go_c","",""
"null","","html-keyboard-response","636","9437630","0.0-8.0-1.18","","<img src=""img/orange-r.png"" border=""10"">","null","trial","32","","0.8,0.2","3:go_c","1",""
"null","","html-keyboard-response","637","9438647","0.0-8.0-2.18","","<div style=""font-size:60px;"">+</div>","null","","","","","","",""
"null","","image-keyboard-response","638","9440153","0.0-8.0-0.19","","img/purple.png","null","trial","null","true","0.2,0.8","2:nogo_b","",""
"null","","html-keyboard-response","639","9441165","0.0-8.0-1.19","","<img src=""img/purple-r.png"">","null","trial","null","","0.2,0.8","2:nogo_b","1",""
"null","","html-keyboard-response","640","9442178","0.0-8.0-2.19","","<div style=""font-size:60px;"">+</div>","null","","","","","","",""
"null","","image-keyboard-response","641","9443688","0.0-8.0-0.20","","img/grey.png","null","trial","null","true","0.2,0.8","4:nogo_d","",""
"null","","html-keyboard-response","642","9444699","0.0-8.0-1.20","","<img src=""img/grey-r.png"">","null","trial","null","","0.2,0.8","4:nogo_d","1",""
"null","","html-keyboard-response","643","9445713","0.0-8.0-2.20","","<div style=""font-size:60px;"">+</div>","null","","","","","","",""
"571.0999999046326","","image-keyboard-response","644","9446285","0.0-8.0-0.21","","img/yellow.png","32","trial","32","true","0.8,0.2","1:go_a","",""
"null","","html-keyboard-response","645","9447289","0.0-8.0-1.21","","<img src=""img/yellow-r.png"" border=""10"">","null","trial","32","","0.8,0.2","1:go_a","1",""
"null","","html-keyboard-response","646","9448298","0.0-8.0-2.21","","<div style=""font-size:60px;"">+</div>","null","","","","","","",""
"853","","image-keyboard-response","647","9449152","0.0-8.0-0.22","","img/orange.png","32","trial","32","true","0.8,0.2","3:go_c","",""
"null","","html-keyboard-response","648","9450154","0.0-8.0-1.22","","<img src=""img/orange-r.png"" border=""10"">","null","trial","32","","0.8,0.2","3:go_c","1",""
"null","","html-keyboard-response","649","9451156","0.0-8.0-2.22","","<div style=""font-size:60px;"">+</div>","null","","","","","","",""
"null","","image-keyboard-response","650","9452667","0.0-8.0-0.23","","img/purple.png","null","trial","null","true","0.2,0.8","2:nogo_b","",""
"null","","html-keyboard-response","651","9453671","0.0-8.0-1.23","","<img src=""img/purple-n.png"">","null","trial","null","","0.2,0.8","2:nogo_b","0",""
"null","","html-keyboard-response","652","9454672","0.0-8.0-2.23","","<div style=""font-size:60px;"">+</div>","null","","","","","","",""
"null","","image-keyboard-response","653","9456186","0.0-8.0-0.24","","img/purple.png","null","trial","null","true","0.2,0.8","2:nogo_b","",""
"null","","html-keyboard-response","654","9457198","0.0-8.0-1.24","","<img src=""img/purple-r.png"">","null","trial","null","","0.2,0.8","2:nogo_b","1",""
"null","","html-keyboard-response","655","9458211","0.0-8.0-2.24","","<div style=""font-size:60px;"">+</div>","null","","","","","","",""
"null","","image-keyboard-response","656","9459715","0.0-8.0-0.25","","img/grey.png","null","trial","null","true","0.2,0.8","4:nogo_d","",""
"null","","html-keyboard-response","657","9460731","0.0-8.0-1.25","","<img src=""img/grey-r.png"">","null","trial","null","","0.2,0.8","4:nogo_d","1",""
"null","","html-keyboard-response","658","9461732","0.0-8.0-2.25","","<div style=""font-size:60px;"">+</div>","null","","","","","","",""
"564.3999998569489","","image-keyboard-response","659","9462298","0.0-8.0-0.26","","img/orange.png","32","trial","32","true","0.8,0.2","3:go_c","",""
"null","","html-keyboard-response","660","9463300","0.0-8.0-1.26","","<img src=""img/orange-r.png"" border=""10"">","null","trial","32","","0.8,0.2","3:go_c","1",""
"null","","html-keyboard-response","661","9464315","0.0-8.0-2.26","","<div style=""font-size:60px;"">+</div>","null","","","","","","",""
"827.7000000476837","","image-keyboard-response","662","9465144","0.0-8.0-0.27","","img/yellow.png","32","trial","32","true","0.8,0.2","1:go_a","",""
"null","","html-keyboard-response","663","9466159","0.0-8.0-1.27","","<img src=""img/yellow-r.png"" border=""10"">","null","trial","32","","0.8,0.2","1:go_a","1",""
"null","","html-keyboard-response","664","9467161","0.0-8.0-2.27","","<div style=""font-size:60px;"">+</div>","null","","","","","","",""
"977.5999999046326","","image-keyboard-response","665","9468139","0.0-8.0-0.28","","img/orange.png","32","trial","32","true","0.8,0.2","3:go_c","",""
"null","","html-keyboard-response","666","9469143","0.0-8.0-1.28","","<img src=""img/orange-r.png"" border=""10"">","null","trial","32","","0.8,0.2","3:go_c","1",""
"null","","html-keyboard-response","667","9470152","0.0-8.0-2.28","","<div style=""font-size:60px;"">+</div>","null","","","","","","",""
"null","","image-keyboard-response","668","9471660","0.0-8.0-0.29","","img/purple.png","null","trial","null","true","0.2,0.8","2:nogo_b","",""
"null","","html-keyboard-response","669","9472673","0.0-8.0-1.29","","<img src=""img/purple-n.png"">","null","trial","null","","0.2,0.8","2:nogo_b","0",""
"null","","html-keyboard-response","670","9473689","0.0-8.0-2.29","","<div style=""font-size:60px;"">+</div>","null","","","","","","",""
"590.6000001430511","","image-keyboard-response","671","9474280","0.0-8.0-0.30","","img/grey.png","32","trial","null","false","0.2,0.8","4:nogo_d","",""
"null","","html-keyboard-response","672","9475295","0.0-8.0-1.30","","<img src=""img/grey-n.png"" border=""10"">","null","trial","null","","0.2,0.8","4:nogo_d","0",""
"null","","html-keyboard-response","673","9476296","0.0-8.0-2.30","","<div style=""font-size:60px;"">+</div>","null","","","","","","",""
"639.2000000476837","","image-keyboard-response","674","9476936","0.0-8.0-0.31","","img/yellow.png","32","trial","32","true","0.8,0.2","1:go_a","",""
"null","","html-keyboard-response","675","9477945","0.0-8.0-1.31","","<img src=""img/yellow-n.png"" border=""10"">","null","trial","32","","0.8,0.2","1:go_a","0",""
"null","","html-keyboard-response","676","9478953","0.0-8.0-2.31","","<div style=""font-size:60px;"">+</div>","null","","","","","","",""
"560.2999999523163","","image-keyboard-response","677","9479515","0.0-8.0-0.32","","img/orange.png","32","trial","32","true","0.8,0.2","3:go_c","",""
"null","","html-keyboard-response","678","9480525","0.0-8.0-1.32","","<img src=""img/orange-r.png"" border=""10"">","null","trial","32","","0.8,0.2","3:go_c","1",""
"null","","html-keyboard-response","679","9481540","0.0-8.0-2.32","","<div style=""font-size:60px;"">+</div>","null","","","","","","",""
"766.3999998569489","","image-keyboard-response","680","9482307","0.0-8.0-0.33","","img/grey.png","32","trial","null","false","0.2,0.8","4:nogo_d","",""
