"rt","url","trial_type","trial_index","time_elapsed","internal_node_id","view_history","stimulus","key_press","test_part","correct_response","correct","use_rew","which_stim","reward","responses"
"2610630.870000001","consent.html","external-html","0","2610691","0.0-0.0","","","","","","","","","",""
"72409.92500000028","","instructions","1","2683102","0.0-1.0","[{""page_index"":0,""viewing_time"":3240.5699999998324},{""page_index"":1,""viewing_time"":16465.975000001024},{""page_index"":2,""viewing_time"":4488.890000000596},{""page_index"":3,""viewing_time"":17559.799999999348},{""page_index"":4,""viewing_time"":8623.530000000726},{""page_index"":5,""viewing_time"":13141.339999999851},{""page_index"":6,""viewing_time"":8889.094999998808}]","","","","","","","","",""
"null","","image-keyboard-response","2","2684612","0.0-2.0-0.0","","img/test3.PNG","null","practice","null","true","","","",""
"null","","html-keyboard-response","3","2685629","0.0-2.0-1.0","","<img src=""img/test3-reward.PNG"">","null","","","","","","",""
"null","","html-keyboard-response","4","2686630","0.0-2.0-2.0","","<div style=""font-size:60px;"">+</div>","null","","","","","","",""
"1115.9850000003353","","image-keyboard-response","5","2687748","0.0-2.0-0.1","","img/test2.PNG","32","practice","null","false","","","",""
"null","","html-keyboard-response","6","2688763","0.0-2.0-1.1","","<img src=""img/test2-neutral.PNG"" border=""10px; grey"">","null","","","","","","",""
"null","","html-keyboard-response","7","2689780","0.0-2.0-2.1","","<div style=""font-size:60px;"">+</div>","null","","","","","","",""
"370.15500000026077","","image-keyboard-response","8","2690152","0.0-2.0-0.2","","img/test1.PNG","32","practice","32","true","","","",""
"null","","html-keyboard-response","9","2691153","0.0-2.0-1.2","","<img src=""img/test1-reward.PNG"" border=""10px; grey"">","null","","","","","","",""
"null","","html-keyboard-response","10","2692170","0.0-2.0-2.2","","<div style=""font-size:60px;"">+</div>","null","","","","","","",""
"937.2299999995157","","image-keyboard-response","11","2693109","0.0-2.0-0.3","","img/test3.PNG","32","practice","null","false","","","",""
"null","","html-keyboard-response","12","2694124","0.0-2.0-1.3","","<img src=""img/test3-neutral.PNG"" border=""10px; grey"">","null","","","","","","",""
"null","","html-keyboard-response","13","2695127","0.0-2.0-2.3","","<div style=""font-size:60px;"">+</div>","null","","","","","","",""
"553.7099999999627","","image-keyboard-response","14","2695682","0.0-2.0-0.4","","img/test1.PNG","32","practice","32","true","","","",""
"null","","html-keyboard-response","15","2696685","0.0-2.0-1.4","","<img src=""img/test1-reward.PNG"" border=""10px; grey"">","null","","","","","","",""
"null","","html-keyboard-response","16","2697688","0.0-2.0-2.4","","<div style=""font-size:60px;"">+</div>","null","","","","","","",""
"null","","image-keyboard-response","17","2699199","0.0-2.0-0.5","","img/test2.PNG","null","practice","null","true","","","",""
"null","","html-keyboard-response","18","2700202","0.0-2.0-1.5","","<img src=""img/test2-reward.PNG"">","null","","","","","","",""
"null","","html-keyboard-response","19","2701204","0.0-2.0-2.5","","<div style=""font-size:60px;"">+</div>","null","","","","","","",""
"null","","image-keyboard-response","20","2702715","0.0-2.0-0.6","","img/test2.PNG","null","practice","null","true","","","",""
"null","","html-keyboard-response","21","2703731","0.0-2.0-1.6","","<img src=""img/test2-reward.PNG"">","null","","","","","","",""
"null","","html-keyboard-response","22","2704733","0.0-2.0-2.6","","<div style=""font-size:60px;"">+</div>","null","","","","","","",""
"686.8250000006519","","image-keyboard-response","23","2705420","0.0-2.0-0.7","","img/test1.PNG","32","practice","32","true","","","",""
"null","","html-keyboard-response","24","2706430","0.0-2.0-1.7","","<img src=""img/test1-reward.PNG"" border=""10px; grey"">","null","","","","","","",""
"null","","html-keyboard-response","25","2707446","0.0-2.0-2.7","","<div style=""font-size:60px;"">+</div>","null","","","","","","",""
"null","","image-keyboard-response","26","2708957","0.0-2.0-0.8","","img/test3.PNG","null","practice","null","true","","","",""
"null","","html-keyboard-response","27","2709961","0.0-2.0-1.8","","<img src=""img/test3-reward.PNG"">","null","","","","","","",""
"null","","html-keyboard-response","28","2710965","0.0-2.0-2.8","","<div style=""font-size:60px;"">+</div>","null","","","","","","",""
"null","","image-keyboard-response","29","2712476","0.0-2.0-0.9","","img/test3.PNG","null","practice","null","true","","","",""
"null","","html-keyboard-response","30","2713479","0.0-2.0-1.9","","<img src=""img/test3-reward.PNG"">","null","","","","","","",""
"null","","html-keyboard-response","31","2714482","0.0-2.0-2.9","","<div style=""font-size:60px;"">+</div>","null","","","","","","",""
"418.40500000026077","","image-keyboard-response","32","2714902","0.0-2.0-0.10","","img/test1.PNG","32","practice","32","true","","","",""
"null","","html-keyboard-response","33","2715913","0.0-2.0-1.10","","<img src=""img/test1-reward.PNG"" border=""10px; grey"">","null","","","","","","",""
"null","","html-keyboard-response","34","2716916","0.0-2.0-2.10","","<div style=""font-size:60px;"">+</div>","null","","","","","","",""
"466.13000000081956","","image-keyboard-response","35","2717383","0.0-2.0-0.11","","img/test2.PNG","32","practice","null","false","","","",""
"null","","html-keyboard-response","36","2718395","0.0-2.0-1.11","","<img src=""img/test2-neutral.PNG"" border=""10px; grey"">","null","","","","","","",""
"null","","html-keyboard-response","37","2719410","0.0-2.0-2.11","","<div style=""font-size:60px;"">+</div>","null","","","","","","",""
"2796.6900000008754","","instructions","38","2722207","0.0-3.0","[{""page_index"":0,""viewing_time"":2796.539999999106}]","","","","","","","","",""
"621.7600000002421","","image-keyboard-response","39","2722830","0.0-4.0-0.0","","img/yellow.png","32","trial","32","true","0.8,0.2","1:go_a","",""
"null","","html-keyboard-response","40","2723842","0.0-4.0-1.0","","<img src=""img/yellow-r.png"" border=""10"">","null","trial","32","","0.8,0.2","1:go_a","1",""
"null","","html-keyboard-response","41","2724857","0.0-4.0-2.0","","<div style=""font-size:60px;"">+</div>","null","","","","","","",""
"532.0599999995902","","image-keyboard-response","42","2725391","0.0-4.0-0.1","","img/blue.png","32","trial","null","false","0.2,0.8","2:nogo_b","",""
"null","","html-keyboard-response","43","2726396","0.0-4.0-1.1","","<img src=""img/blue-n.png"" border=""10"">","null","trial","null","","0.2,0.8","2:nogo_b","0",""
"null","","html-keyboard-response","44","2727398","0.0-4.0-2.1","","<div style=""font-size:60px;"">+</div>","null","","","","","","",""
"null","","image-keyboard-response","45","2728910","0.0-4.0-0.2","","img/blue.png","null","trial","null","true","0.2,0.8","2:nogo_b","",""
"null","","html-keyboard-response","46","2729912","0.0-4.0-1.2","","<img src=""img/blue-n.png"">","null","trial","null","","0.2,0.8","2:nogo_b","0",""
"null","","html-keyboard-response","47","2730914","0.0-4.0-2.2","","<div style=""font-size:60px;"">+</div>","null","","","","","","",""
"329.2700000000186","","image-keyboard-response","48","2731244","0.0-4.0-0.3","","img/yellow.png","32","trial","32","true","0.8,0.2","1:go_a","",""
"null","","html-keyboard-response","49","2732256","0.0-4.0-1.3","","<img src=""img/yellow-r.png"" border=""10"">","null","trial","32","","0.8,0.2","1:go_a","1",""
"null","","html-keyboard-response","50","2733272","0.0-4.0-2.3","","<div style=""font-size:60px;"">+</div>","null","","","","","","",""
"887.8000000002794","","image-keyboard-response","51","2734161","0.0-4.0-0.4","","img/yellow.png","32","trial","32","true","0.8,0.2","1:go_a","",""
"null","","html-keyboard-response","52","2735178","0.0-4.0-1.4","","<img src=""img/yellow-n.png"" border=""10"">","null","trial","32","","0.8,0.2","1:go_a","0",""
"null","","html-keyboard-response","53","2736181","0.0-4.0-2.4","","<div style=""font-size:60px;"">+</div>","null","","","","","","",""
"null","","image-keyboard-response","54","2737695","0.0-4.0-0.5","","img/blue.png","null","trial","null","true","0.2,0.8","2:nogo_b","",""
"null","","html-keyboard-response","55","2738698","0.0-4.0-1.5","","<img src=""img/blue-r.png"">","null","trial","null","","0.2,0.8","2:nogo_b","1",""
"null","","html-keyboard-response","56","2739699","0.0-4.0-2.5","","<div style=""font-size:60px;"">+</div>","null","","","","","","",""
"447.5150000001304","","image-keyboard-response","57","2740147","0.0-4.0-0.6","","img/blue.png","32","trial","null","false","0.2,0.8","2:nogo_b","",""
"null","","html-keyboard-response","58","2741161","0.0-4.0-1.6","","<img src=""img/blue-n.png"" border=""10"">","null","trial","null","","0.2,0.8","2:nogo_b","0",""
"null","","html-keyboard-response","59","2742163","0.0-4.0-2.6","","<div style=""font-size:60px;"">+</div>","null","","","","","","",""
"282.9799999999814","","image-keyboard-response","60","2742447","0.0-4.0-0.7","","img/yellow.png","32","trial","32","true","0.8,0.2","1:go_a","",""
"null","","html-keyboard-response","61","2743457","0.0-4.0-1.7","","<img src=""img/yellow-r.png"" border=""10"">","null","trial","32","","0.8,0.2","1:go_a","1",""
"null","","html-keyboard-response","62","2744460","0.0-4.0-2.7","","<div style=""font-size:60px;"">+</div>","null","","","","","","",""
"565.1799999992363","","image-keyboard-response","63","2745026","0.0-4.0-0.8","","img/yellow.png","32","trial","32","true","0.8,0.2","1:go_a","",""
"null","","html-keyboard-response","64","2746032","0.0-4.0-1.8","","<img src=""img/yellow-r.png"" border=""10"">","null","trial","32","","0.8,0.2","1:go_a","1",""
"null","","html-keyboard-response","65","2747037","0.0-4.0-2.8","","<div style=""font-size:60px;"">+</div>","null","","","","","","",""
"null","","image-keyboard-response","66","2748549","0.0-4.0-0.9","","img/blue.png","null","trial","null","true","0.2,0.8","2:nogo_b","",""
"null","","html-keyboard-response","67","2749552","0.0-4.0-1.9","","<img src=""img/blue-r.png"">","null","trial","null","","0.2,0.8","2:nogo_b","1",""
"null","","html-keyboard-response","68","2750555","0.0-4.0-2.9","","<div style=""font-size:60px;"">+</div>","null","","","","","","",""
"385.3400000007823","","image-keyboard-response","69","2750941","0.0-4.0-0.10","","img/blue.png","32","trial","null","false","0.2,0.8","2:nogo_b","",""
"null","","html-keyboard-response","70","2751960","0.0-4.0-1.10","","<img src=""img/blue-n.png"" border=""10"">","null","trial","null","","0.2,0.8","2:nogo_b","0",""
"null","","html-keyboard-response","71","2752964","0.0-4.0-2.10","","<div style=""font-size:60px;"">+</div>","null","","","","","","",""
"null","","image-keyboard-response","72","2754474","0.0-4.0-0.11","","img/yellow.png","null","trial","32","false","0.8,0.2","1:go_a","",""
"null","","html-keyboard-response","73","2755491","0.0-4.0-1.11","","<img src=""img/yellow-n.png"">","null","trial","32","","0.8,0.2","1:go_a","0",""
"null","","html-keyboard-response","74","2756493","0.0-4.0-2.11","","<div style=""font-size:60px;"">+</div>","null","","","","","","",""
"543.0799999996088","","image-keyboard-response","75","2757038","0.0-4.0-0.12","","img/yellow.png","32","trial","32","true","0.8,0.2","1:go_a","",""
"null","","html-keyboard-response","76","2758053","0.0-4.0-1.12","","<img src=""img/yellow-r.png"" border=""10"">","null","trial","32","","0.8,0.2","1:go_a","1",""
"null","","html-keyboard-response","77","2759056","0.0-4.0-2.12","","<div style=""font-size:60px;"">+</div>","null","","","","","","",""
"null","","image-keyboard-response","78","2760569","0.0-4.0-0.13","","img/blue.png","null","trial","null","true","0.2,0.8","2:nogo_b","",""
"null","","html-keyboard-response","79","2761571","0.0-4.0-1.13","","<img src=""img/blue-r.png"">","null","trial","null","","0.2,0.8","2:nogo_b","1",""
"null","","html-keyboard-response","80","2762575","0.0-4.0-2.13","","<div style=""font-size:60px;"">+</div>","null","","","","","","",""
"543.9599999990314","","image-keyboard-response","81","2763120","0.0-4.0-0.14","","img/blue.png","32","trial","null","false","0.2,0.8","2:nogo_b","",""
"null","","html-keyboard-response","82","2764135","0.0-4.0-1.14","","<img src=""img/blue-n.png"" border=""10"">","null","trial","null","","0.2,0.8","2:nogo_b","0",""
"null","","html-keyboard-response","83","2765137","0.0-4.0-2.14","","<div style=""font-size:60px;"">+</div>","null","","","","","","",""
"346.74499999918044","","image-keyboard-response","84","2765484","0.0-4.0-0.15","","img/yellow.png","32","trial","32","true","0.8,0.2","1:go_a","",""
"null","","html-keyboard-response","85","2766496","0.0-4.0-1.15","","<img src=""img/yellow-r.png"" border=""10"">","null","trial","32","","0.8,0.2","1:go_a","1",""
"null","","html-keyboard-response","86","2767498","0.0-4.0-2.15","","<div style=""font-size:60px;"">+</div>","null","","","","","","",""
"321.77500000037253","","image-keyboard-response","87","2767820","0.0-4.0-0.16","","img/yellow.png","32","trial","32","true","0.8,0.2","1:go_a","",""
"null","","html-keyboard-response","88","2768824","0.0-4.0-1.16","","<img src=""img/yellow-r.png"" border=""10"">","null","trial","32","","0.8,0.2","1:go_a","1",""
"null","","html-keyboard-response","89","2769826","0.0-4.0-2.16","","<div style=""font-size:60px;"">+</div>","null","","","","","","",""
"null","","image-keyboard-response","90","2771339","0.0-4.0-0.17","","img/blue.png","null","trial","null","true","0.2,0.8","2:nogo_b","",""
"null","","html-keyboard-response","91","2772341","0.0-4.0-1.17","","<img src=""img/blue-r.png"">","null","trial","null","","0.2,0.8","2:nogo_b","1",""
"null","","html-keyboard-response","92","2773344","0.0-4.0-2.17","","<div style=""font-size:60px;"">+</div>","null","","","","","","",""
"346.6849999986589","","image-keyboard-response","93","2773692","0.0-4.0-0.18","","img/yellow.png","32","trial","32","true","0.8,0.2","1:go_a","",""
"null","","html-keyboard-response","94","2774702","0.0-4.0-1.18","","<img src=""img/yellow-r.png"" border=""10"">","null","trial","32","","0.8,0.2","1:go_a","1",""
"null","","html-keyboard-response","95","2775706","0.0-4.0-2.18","","<div style=""font-size:60px;"">+</div>","null","","","","","","",""
"407.21999999927357","","image-keyboard-response","96","2776114","0.0-4.0-0.19","","img/blue.png","32","trial","null","false","0.2,0.8","2:nogo_b","",""
"null","","html-keyboard-response","97","2777125","0.0-4.0-1.19","","<img src=""img/blue-n.png"" border=""10"">","null","trial","null","","0.2,0.8","2:nogo_b","0",""
"null","","html-keyboard-response","98","2778141","0.0-4.0-2.19","","<div style=""font-size:60px;"">+</div>","null","","","","","","",""
"null","","image-keyboard-response","99","2779654","0.0-4.0-0.20","","img/blue.png","null","trial","null","true","0.2,0.8","2:nogo_b","",""
"null","","html-keyboard-response","100","2780657","0.0-4.0-1.20","","<img src=""img/blue-r.png"">","null","trial","null","","0.2,0.8","2:nogo_b","1",""
"null","","html-keyboard-response","101","2781661","0.0-4.0-2.20","","<div style=""font-size:60px;"">+</div>","null","","","","","","",""
"260.16500000003725","","image-keyboard-response","102","2781922","0.0-4.0-0.21","","img/yellow.png","32","trial","32","true","0.8,0.2","1:go_a","",""
"null","","html-keyboard-response","103","2782924","0.0-4.0-1.21","","<img src=""img/yellow-r.png"" border=""10"">","null","trial","32","","0.8,0.2","1:go_a","1",""
"null","","html-keyboard-response","104","2783926","0.0-4.0-2.21","","<div style=""font-size:60px;"">+</div>","null","","","","","","",""
"1027.3349999990314","","image-keyboard-response","105","2784954","0.0-4.0-0.22","","img/blue.png","32","trial","null","false","0.2,0.8","2:nogo_b","",""
"null","","html-keyboard-response","106","2785961","0.0-4.0-1.22","","<img src=""img/blue-r.png"" border=""10"">","null","trial","null","","0.2,0.8","2:nogo_b","1",""
"null","","html-keyboard-response","107","2786964","0.0-4.0-2.22","","<div style=""font-size:60px;"">+</div>","null","","","","","","",""
"302.04500000039116","","image-keyboard-response","108","2787267","0.0-4.0-0.23","","img/yellow.png","32","trial","32","true","0.8,0.2","1:go_a","",""
"null","","html-keyboard-response","109","2788279","0.0-4.0-1.23","","<img src=""img/yellow-r.png"" border=""10"">","null","trial","32","","0.8,0.2","1:go_a","1",""
"null","","html-keyboard-response","110","2789282","0.0-4.0-2.23","","<div style=""font-size:60px;"">+</div>","null","","","","","","",""
"494.45000000018626","","image-keyboard-response","111","2789777","0.0-4.0-0.24","","img/yellow.png","32","trial","32","true","0.8,0.2","1:go_a","",""
"null","","html-keyboard-response","112","2790779","0.0-4.0-1.24","","<img src=""img/yellow-r.png"" border=""10"">","null","trial","32","","0.8,0.2","1:go_a","1",""
"null","","html-keyboard-response","113","2791783","0.0-4.0-2.24","","<div style=""font-size:60px;"">+</div>","null","","","","","","",""
"470.535000000149","","image-keyboard-response","114","2792255","0.0-4.0-0.25","","img/blue.png","32","trial","null","false","0.2,0.8","2:nogo_b","",""
"null","","html-keyboard-response","115","2793265","0.0-4.0-1.25","","<img src=""img/blue-n.png"" border=""10"">","null","trial","null","","0.2,0.8","2:nogo_b","0",""
"null","","html-keyboard-response","116","2794271","0.0-4.0-2.25","","<div style=""font-size:60px;"">+</div>","null","","","","","","",""
"267.47000000067055","","image-keyboard-response","117","2794539","0.0-4.0-0.26","","img/blue.png","32","trial","null","false","0.2,0.8","2:nogo_b","",""
"null","","html-keyboard-response","118","2795553","0.0-4.0-1.26","","<img src=""img/blue-n.png"" border=""10"">","null","trial","null","","0.2,0.8","2:nogo_b","0",""
"null","","html-keyboard-response","119","2796556","0.0-4.0-2.26","","<div style=""font-size:60px;"">+</div>","null","","","","","","",""
"372.40000000037253","","image-keyboard-response","120","2796929","0.0-4.0-0.27","","img/yellow.png","32","trial","32","true","0.8,0.2","1:go_a","",""
"null","","html-keyboard-response","121","2797931","0.0-4.0-1.27","","<img src=""img/yellow-n.png"" border=""10"">","null","trial","32","","0.8,0.2","1:go_a","0",""
"null","","html-keyboard-response","122","2798934","0.0-4.0-2.27","","<div style=""font-size:60px;"">+</div>","null","","","","","","",""
"342.60000000009313","","image-keyboard-response","123","2799278","0.0-4.0-0.28","","img/yellow.png","32","trial","32","true","0.8,0.2","1:go_a","",""
"null","","html-keyboard-response","124","2800294","0.0-4.0-1.28","","<img src=""img/yellow-r.png"" border=""10"">","null","trial","32","","0.8,0.2","1:go_a","1",""
"null","","html-keyboard-response","125","2801297","0.0-4.0-2.28","","<div style=""font-size:60px;"">+</div>","null","","","","","","",""
"null","","image-keyboard-response","126","2802809","0.0-4.0-0.29","","img/blue.png","null","trial","null","true","0.2,0.8","2:nogo_b","",""
"null","","html-keyboard-response","127","2803813","0.0-4.0-1.29","","<img src=""img/blue-r.png"">","null","trial","null","","0.2,0.8","2:nogo_b","1",""
"null","","html-keyboard-response","128","2804817","0.0-4.0-2.29","","<div style=""font-size:60px;"">+</div>","null","","","","","","",""
"null","","image-keyboard-response","129","2806330","0.0-4.0-0.30","","img/blue.png","null","trial","null","true","0.2,0.8","2:nogo_b","",""
"null","","html-keyboard-response","130","2807333","0.0-4.0-1.30","","<img src=""img/blue-r.png"">","null","trial","null","","0.2,0.8","2:nogo_b","1",""
"null","","html-keyboard-response","131","2808337","0.0-4.0-2.30","","<div style=""font-size:60px;"">+</div>","null","","","","","","",""
"433.2900000005029","","image-keyboard-response","132","2808771","0.0-4.0-0.31","","img/yellow.png","32","trial","32","true","0.8,0.2","1:go_a","",""
"null","","html-keyboard-response","133","2809774","0.0-4.0-1.31","","<img src=""img/yellow-r.png"" border=""10"">","null","trial","32","","0.8,0.2","1:go_a","1",""
"null","","html-keyboard-response","134","2810778","0.0-4.0-2.31","","<div style=""font-size:60px;"">+</div>","null","","","","","","",""
"466.97500000102445","","image-keyboard-response","135","2811245","0.0-4.0-0.32","","img/blue.png","32","trial","null","false","0.2,0.8","2:nogo_b","",""
"null","","html-keyboard-response","136","2812261","0.0-4.0-1.32","","<img src=""img/blue-n.png"" border=""10"">","null","trial","null","","0.2,0.8","2:nogo_b","0",""
"null","","html-keyboard-response","137","2813267","0.0-4.0-2.32","","<div style=""font-size:60px;"">+</div>","null","","","","","","",""
"315.35499999905005","","image-keyboard-response","138","2813584","0.0-4.0-0.33","","img/yellow.png","32","trial","32","true","0.8,0.2","1:go_a","",""
"null","","html-keyboard-response","139","2814594","0.0-4.0-1.33","","<img src=""img/yellow-r.png"" border=""10"">","null","trial","32","","0.8,0.2","1:go_a","1",""
"null","","html-keyboard-response","140","2815598","0.0-4.0-2.33","","<div style=""font-size:60px;"">+</div>","null","","","","","","",""
"355.7300000009127","","image-keyboard-response","141","2815955","0.0-4.0-0.34","","img/blue.png","32","trial","null","false","0.2,0.8","2:nogo_b","",""
"null","","html-keyboard-response","142","2816971","0.0-4.0-1.34","","<img src=""img/blue-n.png"" border=""10"">","null","trial","null","","0.2,0.8","2:nogo_b","0",""
"null","","html-keyboard-response","143","2817975","0.0-4.0-2.34","","<div style=""font-size:60px;"">+</div>","null","","","","","","",""
"300.4600000004284","","image-keyboard-response","144","2818276","0.0-4.0-0.35","","img/yellow.png","32","trial","32","true","0.8,0.2","1:go_a","",""
"null","","html-keyboard-response","145","2819289","0.0-4.0-1.35","","<img src=""img/yellow-r.png"" border=""10"">","null","trial","32","","0.8,0.2","1:go_a","1",""
"null","","html-keyboard-response","146","2820291","0.0-4.0-2.35","","<div style=""font-size:60px;"">+</div>","null","","","","","","",""
"396.7599999997765","","image-keyboard-response","147","2820689","0.0-4.0-0.36","","img/yellow.png","32","trial","32","true","0.8,0.2","1:go_a","",""
"null","","html-keyboard-response","148","2821695","0.0-4.0-1.36","","<img src=""img/yellow-r.png"" border=""10"">","null","trial","32","","0.8,0.2","1:go_a","1",""
"null","","html-keyboard-response","149","2822699","0.0-4.0-2.36","","<div style=""font-size:60px;"">+</div>","null","","","","","","",""
"null","","image-keyboard-response","150","2824211","0.0-4.0-0.37","","img/blue.png","null","trial","null","true","0.2,0.8","2:nogo_b","",""
"null","","html-keyboard-response","151","2825214","0.0-4.0-1.37","","<img src=""img/blue-r.png"">","null","trial","null","","0.2,0.8","2:nogo_b","1",""
"null","","html-keyboard-response","152","2826218","0.0-4.0-2.37","","<div style=""font-size:60px;"">+</div>","null","","","","","","",""
"null","","image-keyboard-response","153","2827732","0.0-4.0-0.38","","img/blue.png","null","trial","null","true","0.2,0.8","2:nogo_b","",""
"null","","html-keyboard-response","154","2828736","0.0-4.0-1.38","","<img src=""img/blue-r.png"">","null","trial","null","","0.2,0.8","2:nogo_b","1",""
"null","","html-keyboard-response","155","2829740","0.0-4.0-2.38","","<div style=""font-size:60px;"">+</div>","null","","","","","","",""
"287.0050000003539","","image-keyboard-response","156","2830028","0.0-4.0-0.39","","img/yellow.png","32","trial","32","true","0.8,0.2","1:go_a","",""
"null","","html-keyboard-response","157","2831037","0.0-4.0-1.39","","<img src=""img/yellow-r.png"" border=""10"">","null","trial","32","","0.8,0.2","1:go_a","1",""
"null","","html-keyboard-response","158","2832039","0.0-4.0-2.39","","<div style=""font-size:60px;"">+</div>","null","","","","","","",""
"null","","image-keyboard-response","159","2833550","0.0-4.0-0.40","","img/blue.png","null","trial","null","true","0.2,0.8","2:nogo_b","",""
"null","","html-keyboard-response","160","2834555","0.0-4.0-1.40","","<img src=""img/blue-r.png"">","null","trial","null","","0.2,0.8","2:nogo_b","1",""
"null","","html-keyboard-response","161","2835557","0.0-4.0-2.40","","<div style=""font-size:60px;"">+</div>","null","","","","","","",""
"536.3899999991991","","image-keyboard-response","162","2836095","0.0-4.0-0.41","","img/yellow.png","32","trial","32","true","0.8,0.2","1:go_a","",""
"null","","html-keyboard-response","163","2837099","0.0-4.0-1.41","","<img src=""img/yellow-r.png"" border=""10"">","null","trial","32","","0.8,0.2","1:go_a","1",""
"null","","html-keyboard-response","164","2838102","0.0-4.0-2.41","","<div style=""font-size:60px;"">+</div>","null","","","","","","",""
"827.1249999995343","","image-keyboard-response","165","2838930","0.0-4.0-0.42","","img/yellow.png","32","trial","32","true","0.8,0.2","1:go_a","",""
"null","","html-keyboard-response","166","2839940","0.0-4.0-1.42","","<img src=""img/yellow-n.png"" border=""10"">","null","trial","32","","0.8,0.2","1:go_a","0",""
"null","","html-keyboard-response","167","2840957","0.0-4.0-2.42","","<div style=""font-size:60px;"">+</div>","null","","","","","","",""
"null","","image-keyboard-response","168","2842470","0.0-4.0-0.43","","img/blue.png","null","trial","null","true","0.2,0.8","2:nogo_b","",""
"null","","html-keyboard-response","169","2843475","0.0-4.0-1.43","","<img src=""img/blue-r.png"">","null","trial","null","","0.2,0.8","2:nogo_b","1",""
"null","","html-keyboard-response","170","2844477","0.0-4.0-2.43","","<div style=""font-size:60px;"">+</div>","null","","","","","","",""
"null","","image-keyboard-response","171","2845992","0.0-4.0-0.44","","img/blue.png","null","trial","null","true","0.2,0.8","2:nogo_b","",""
"null","","html-keyboard-response","172","2846996","0.0-4.0-1.44","","<img src=""img/blue-n.png"">","null","trial","null","","0.2,0.8","2:nogo_b","0",""
"null","","html-keyboard-response","173","2847999","0.0-4.0-2.44","","<div style=""font-size:60px;"">+</div>","null","","","","","","",""
"328.3050000006333","","image-keyboard-response","174","2848328","0.0-4.0-0.45","","img/yellow.png","32","trial","32","true","0.8,0.2","1:go_a","",""
"null","","html-keyboard-response","175","2849343","0.0-4.0-1.45","","<img src=""img/yellow-r.png"" border=""10"">","null","trial","32","","0.8,0.2","1:go_a","1",""
"null","","html-keyboard-response","176","2850345","0.0-4.0-2.45","","<div style=""font-size:60px;"">+</div>","null","","","","","","",""
"null","","image-keyboard-response","177","2851858","0.0-4.0-0.46","","img/blue.png","null","trial","null","true","0.2,0.8","2:nogo_b","",""
"null","","html-keyboard-response","178","2852863","0.0-4.0-1.46","","<img src=""img/blue-r.png"">","null","trial","null","","0.2,0.8","2:nogo_b","1",""
"null","","html-keyboard-response","179","2853880","0.0-4.0-2.46","","<div style=""font-size:60px;"">+</div>","null","","","","","","",""
"309.7999999988824","","image-keyboard-response","180","2854190","0.0-4.0-0.47","","img/yellow.png","32","trial","32","true","0.8,0.2","1:go_a","",""
"null","","html-keyboard-response","181","2855207","0.0-4.0-1.47","","<img src=""img/yellow-r.png"" border=""10"">","null","trial","32","","0.8,0.2","1:go_a","1",""
"null","","html-keyboard-response","182","2856211","0.0-4.0-2.47","","<div style=""font-size:60px;"">+</div>","null","","","","","","",""
"339.36499999975786","","image-keyboard-response","183","2856551","0.0-4.0-0.48","","img/yellow.png","32","trial","32","true","0.8,0.2","1:go_a","",""
"null","","html-keyboard-response","184","2857553","0.0-4.0-1.48","","<img src=""img/yellow-r.png"" border=""10"">","null","trial","32","","0.8,0.2","1:go_a","1",""
"null","","html-keyboard-response","185","2858557","0.0-4.0-2.48","","<div style=""font-size:60px;"">+</div>","null","","","","","","",""
"null","","image-keyboard-response","186","2860068","0.0-4.0-0.49","","img/blue.png","null","trial","null","true","0.2,0.8","2:nogo_b","",""
"null","","html-keyboard-response","187","2861073","0.0-4.0-1.49","","<img src=""img/blue-r.png"">","null","trial","null","","0.2,0.8","2:nogo_b","1",""
"null","","html-keyboard-response","188","2862076","0.0-4.0-2.49","","<div style=""font-size:60px;"">+</div>","null","","","","","","",""
"null","","image-keyboard-response","189","2863590","0.0-4.0-0.50","","img/blue.png","null","trial","null","true","0.2,0.8","2:nogo_b","",""
"null","","html-keyboard-response","190","2864594","0.0-4.0-1.50","","<img src=""img/blue-r.png"">","null","trial","null","","0.2,0.8","2:nogo_b","1",""
"null","","html-keyboard-response","191","2865597","0.0-4.0-2.50","","<div style=""font-size:60px;"">+</div>","null","","","","","","",""
"583.8349999990314","","image-keyboard-response","192","2866182","0.0-4.0-0.51","","img/yellow.png","32","trial","32","true","0.8,0.2","1:go_a","",""
"null","","html-keyboard-response","193","2867191","0.0-4.0-1.51","","<img src=""img/yellow-r.png"" border=""10"">","null","trial","32","","0.8,0.2","1:go_a","1",""
"null","","html-keyboard-response","194","2868196","0.0-4.0-2.51","","<div style=""font-size:60px;"">+</div>","null","","","","","","",""
"null","","image-keyboard-response","195","2869709","0.0-4.0-0.52","","img/yellow.png","null","trial","32","false","0.8,0.2","1:go_a","",""
"null","","html-keyboard-response","196","2870726","0.0-4.0-1.52","","<img src=""img/yellow-n.png"">","null","trial","32","","0.8,0.2","1:go_a","0",""
"null","","html-keyboard-response","197","2871729","0.0-4.0-2.52","","<div style=""font-size:60px;"">+</div>","null","","","","","","",""
"null","","image-keyboard-response","198","2873242","0.0-4.0-0.53","","img/blue.png","null","trial","null","true","0.2,0.8","2:nogo_b","",""
"null","","html-keyboard-response","199","2874245","0.0-4.0-1.53","","<img src=""img/blue-r.png"">","null","trial","null","","0.2,0.8","2:nogo_b","1",""
"null","","html-keyboard-response","200","2875249","0.0-4.0-2.53","","<div style=""font-size:60px;"">+</div>","null","","","","","","",""
"323.4350000000559","","image-keyboard-response","201","2875573","0.0-4.0-0.54","","img/yellow.png","32","trial","32","true","0.8,0.2","1:go_a","",""
"null","","html-keyboard-response","202","2876578","0.0-4.0-1.54","","<img src=""img/yellow-r.png"" border=""10"">","null","trial","32","","0.8,0.2","1:go_a","1",""
"null","","html-keyboard-response","203","2877584","0.0-4.0-2.54","","<div style=""font-size:60px;"">+</div>","null","","","","","","",""
"null","","image-keyboard-response","204","2879098","0.0-4.0-0.55","","img/blue.png","null","trial","null","true","0.2,0.8","2:nogo_b","",""
"null","","html-keyboard-response","205","2880102","0.0-4.0-1.55","","<img src=""img/blue-r.png"">","null","trial","null","","0.2,0.8","2:nogo_b","1",""
"null","","html-keyboard-response","206","2881106","0.0-4.0-2.55","","<div style=""font-size:60px;"">+</div>","null","","","","","","",""
"null","","image-keyboard-response","207","2882622","0.0-4.0-0.56","","img/blue.png","null","trial","null","true","0.2,0.8","2:nogo_b","",""
"null","","html-keyboard-response","208","2883626","0.0-4.0-1.56","","<img src=""img/blue-r.png"">","null","trial","null","","0.2,0.8","2:nogo_b","1",""
"null","","html-keyboard-response","209","2884630","0.0-4.0-2.56","","<div style=""font-size:60px;"">+</div>","null","","","","","","",""
"336.29000000143424","","image-keyboard-response","210","2884967","0.0-4.0-0.57","","img/yellow.png","32","trial","32","true","0.8,0.2","1:go_a","",""
"null","","html-keyboard-response","211","2885971","0.0-4.0-1.57","","<img src=""img/yellow-r.png"" border=""10"">","null","trial","32","","0.8,0.2","1:go_a","1",""
"null","","html-keyboard-response","212","2886975","0.0-4.0-2.57","","<div style=""font-size:60px;"">+</div>","null","","","","","","",""
"333.3849999997765","","image-keyboard-response","213","2887310","0.0-4.0-0.58","","img/yellow.png","32","trial","32","true","0.8,0.2","1:go_a","",""
"null","","html-keyboard-response","214","2888319","0.0-4.0-1.58","","<img src=""img/yellow-r.png"" border=""10"">","null","trial","32","","0.8,0.2","1:go_a","1",""
"null","","html-keyboard-response","215","2889324","0.0-4.0-2.58","","<div style=""font-size:60px;"">+</div>","null","","","","","","",""
"null","","image-keyboard-response","216","2890837","0.0-4.0-0.59","","img/blue.png","null","trial","null","true","0.2,0.8","2:nogo_b","",""
"null","","html-keyboard-response","217","2891841","0.0-4.0-1.59","","<img src=""img/blue-r.png"">","null","trial","null","","0.2,0.8","2:nogo_b","1",""
"null","","html-keyboard-response","218","2892846","0.0-4.0-2.59","","<div style=""font-size:60px;"">+</div>","null","","","","","","",""
"43174.934999999125","","instructions","219","2936021","0.0-5.0","[{""page_index"":0,""viewing_time"":43174.78499999922}]","","","","","","","","",""
"945.625","","image-keyboard-response","220","2936968","0.0-6.0-0.0","","img/purple.png","32","trial","32","true","0.8,0.2","1:go_a","",""
"null","","html-keyboard-response","221","2937974","0.0-6.0-1.0","","<img src=""img/purple-r.png"" border=""10"">","null","trial","32","","0.8,0.2","1:go_a","1",""
"null","","html-keyboard-response","222","2938979","0.0-6.0-2.0","","<div style=""font-size:60px;"">+</div>","null","","","","","","",""
"446.0600000000559","","image-keyboard-response","223","2939426","0.0-6.0-0.1","","img/pink.png","32","trial","null","false","0.2,0.8","2:nogo_b","",""
"null","","html-keyboard-response","224","2940431","0.0-6.0-1.1","","<img src=""img/pink-n.png"" border=""10"">","null","trial","null","","0.2,0.8","2:nogo_b","0",""
"null","","html-keyboard-response","225","2941434","0.0-6.0-2.1","","<div style=""font-size:60px;"">+</div>","null","","","","","","",""
"604.8450000002049","","image-keyboard-response","226","2942040","0.0-6.0-0.2","","img/orange.png","32","trial","32","true","0.6,0.4","3:go_c","",""
"null","","html-keyboard-response","227","2943044","0.0-6.0-1.2","","<img src=""img/orange-n.png"" border=""10"">","null","trial","32","","0.6,0.4","3:go_c","0",""
"null","","html-keyboard-response","228","2944049","0.0-6.0-2.2","","<div style=""font-size:60px;"">+</div>","null","","","","","","",""
"684.3050000006333","","image-keyboard-response","229","2944734","0.0-6.0-0.3","","img/green.png","32","trial","null","false","0.4,0.6","4:nogo_d","",""
"null","","html-keyboard-response","230","2945749","0.0-6.0-1.3","","<img src=""img/green-r.png"" border=""10"">","null","trial","null","","0.4,0.6","4:nogo_d","1",""
"null","","html-keyboard-response","231","2946754","0.0-6.0-2.3","","<div style=""font-size:60px;"">+</div>","null","","","","","","",""
"474.84999999869615","","image-keyboard-response","232","2947230","0.0-6.0-0.4","","img/green.png","32","trial","null","false","0.4,0.6","4:nogo_d","",""
"null","","html-keyboard-response","233","2948235","0.0-6.0-1.4","","<img src=""img/green-r.png"" border=""10"">","null","trial","null","","0.4,0.6","4:nogo_d","1",""
"null","","html-keyboard-response","234","2949240","0.0-6.0-2.4","","<div style=""font-size:60px;"">+</div>","null","","","","","","",""
"null","","image-keyboard-response","235","2950755","0.0-6.0-0.5","","img/pink.png","null","trial","null","true","0.2,0.8","2:nogo_b","",""
"null","","html-keyboard-response","236","2951759","0.0-6.0-1.5","","<img src=""img/pink-r.png"">","null","trial","null","","0.2,0.8","2:nogo_b","1",""
"null","","html-keyboard-response","237","2952763","0.0-6.0-2.5","","<div style=""font-size:60px;"">+</div>","null","","","","","","",""
"384.2050000000745","","image-keyboard-response","238","2953148","0.0-6.0-0.6","","img/purple.png","32","trial","32","true","0.8,0.2","1:go_a","",""
"null","","html-keyboard-response","239","2954154","0.0-6.0-1.6","","<img src=""img/purple-r.png"" border=""10"">","null","trial","32","","0.8,0.2","1:go_a","1",""
"null","","html-keyboard-response","240","2955160","0.0-6.0-2.6","","<div style=""font-size:60px;"">+</div>","null","","","","","","",""
"null","","image-keyboard-response","241","2956672","0.0-6.0-0.7","","img/orange.png","null","trial","32","false","0.6,0.4","3:go_c","",""
"null","","html-keyboard-response","242","2957674","0.0-6.0-1.7","","<img src=""img/orange-n.png"">","null","trial","32","","0.6,0.4","3:go_c","0",""
"null","","html-keyboard-response","243","2958677","0.0-6.0-2.7","","<div style=""font-size:60px;"">+</div>","null","","","","","","",""
"null","","image-keyboard-response","244","2960189","0.0-6.0-0.8","","img/pink.png","null","trial","null","true","0.2,0.8","2:nogo_b","",""
"null","","html-keyboard-response","245","2961194","0.0-6.0-1.8","","<img src=""img/pink-n.png"">","null","trial","null","","0.2,0.8","2:nogo_b","0",""
"null","","html-keyboard-response","246","2962198","0.0-6.0-2.8","","<div style=""font-size:60px;"">+</div>","null","","","","","","",""
"663.4749999991618","","image-keyboard-response","247","2962863","0.0-6.0-0.9","","img/purple.png","32","trial","32","true","0.8,0.2","1:go_a","",""
"null","","html-keyboard-response","248","2963879","0.0-6.0-1.9","","<img src=""img/purple-r.png"" border=""10"">","null","trial","32","","0.8,0.2","1:go_a","1",""
"null","","html-keyboard-response","249","2964883","0.0-6.0-2.9","","<div style=""font-size:60px;"">+</div>","null","","","","","","",""
"542.339999999851","","image-keyboard-response","250","2965427","0.0-6.0-0.10","","img/green.png","32","trial","null","false","0.4,0.6","4:nogo_d","",""
"null","","html-keyboard-response","251","2966443","0.0-6.0-1.10","","<img src=""img/green-n.png"" border=""10"">","null","trial","null","","0.4,0.6","4:nogo_d","0",""
"null","","html-keyboard-response","252","2967447","0.0-6.0-2.10","","<div style=""font-size:60px;"">+</div>","null","","","","","","",""
"401.5749999997206","","image-keyboard-response","253","2967849","0.0-6.0-0.11","","img/orange.png","32","trial","32","true","0.6,0.4","3:go_c","",""
"null","","html-keyboard-response","254","2968866","0.0-6.0-1.11","","<img src=""img/orange-n.png"" border=""10"">","null","trial","32","","0.6,0.4","3:go_c","0",""
"null","","html-keyboard-response","255","2969871","0.0-6.0-2.11","","<div style=""font-size:60px;"">+</div>","null","","","","","","",""
"380.9149999995716","","image-keyboard-response","256","2970253","0.0-6.0-0.12","","img/green.png","32","trial","null","false","0.4,0.6","4:nogo_d","",""
"null","","html-keyboard-response","257","2971259","0.0-6.0-1.12","","<img src=""img/green-n.png"" border=""10"">","null","trial","null","","0.4,0.6","4:nogo_d","0",""
"null","","html-keyboard-response","258","2972265","0.0-6.0-2.12","","<div style=""font-size:60px;"">+</div>","null","","","","","","",""
"343.38500000024214","","image-keyboard-response","259","2972610","0.0-6.0-0.13","","img/purple.png","32","trial","32","true","0.8,0.2","1:go_a","",""
"null","","html-keyboard-response","260","2973626","0.0-6.0-1.13","","<img src=""img/purple-r.png"" border=""10"">","null","trial","32","","0.8,0.2","1:go_a","1",""
"null","","html-keyboard-response","261","2974631","0.0-6.0-2.13","","<div style=""font-size:60px;"">+</div>","null","","","","","","",""
"null","","image-keyboard-response","262","2976147","0.0-6.0-0.14","","img/pink.png","null","trial","null","true","0.2,0.8","2:nogo_b","",""
"null","","html-keyboard-response","263","2977152","0.0-6.0-1.14","","<img src=""img/pink-r.png"">","null","trial","null","","0.2,0.8","2:nogo_b","1",""
"null","","html-keyboard-response","264","2978157","0.0-6.0-2.14","","<div style=""font-size:60px;"">+</div>","null","","","","","","",""
"1050.4849999998696","","image-keyboard-response","265","2979208","0.0-6.0-0.15","","img/orange.png","32","trial","32","true","0.6,0.4","3:go_c","",""
"null","","html-keyboard-response","266","2980211","0.0-6.0-1.15","","<img src=""img/orange-r.png"" border=""10"">","null","trial","32","","0.6,0.4","3:go_c","1",""
"null","","html-keyboard-response","267","2981217","0.0-6.0-2.15","","<div style=""font-size:60px;"">+</div>","null","","","","","","",""
"626.2749999989755","","image-keyboard-response","268","2981845","0.0-6.0-0.16","","img/green.png","32","trial","null","false","0.4,0.6","4:nogo_d","",""
"null","","html-keyboard-response","269","2982855","0.0-6.0-1.16","","<img src=""img/green-n.png"" border=""10"">","null","trial","null","","0.4,0.6","4:nogo_d","0",""
"null","","html-keyboard-response","270","2983858","0.0-6.0-2.16","","<div style=""font-size:60px;"">+</div>","null","","","","","","",""
"514.2799999993294","","image-keyboard-response","271","2984374","0.0-6.0-0.17","","img/purple.png","32","trial","32","true","0.8,0.2","1:go_a","",""
"null","","html-keyboard-response","272","2985388","0.0-6.0-1.17","","<img src=""img/purple-r.png"" border=""10"">","null","trial","32","","0.8,0.2","1:go_a","1",""
"null","","html-keyboard-response","273","2986392","0.0-6.0-2.17","","<div style=""font-size:60px;"">+</div>","null","","","","","","",""
"null","","image-keyboard-response","274","2987907","0.0-6.0-0.18","","img/pink.png","null","trial","null","true","0.2,0.8","2:nogo_b","",""
"null","","html-keyboard-response","275","2988911","0.0-6.0-1.18","","<img src=""img/pink-r.png"">","null","trial","null","","0.2,0.8","2:nogo_b","1",""
"null","","html-keyboard-response","276","2989914","0.0-6.0-2.18","","<div style=""font-size:60px;"">+</div>","null","","","","","","",""
"321.51999999955297","","image-keyboard-response","277","2990237","0.0-6.0-0.19","","img/orange.png","32","trial","32","true","0.6,0.4","3:go_c","",""
"null","","html-keyboard-response","278","2991244","0.0-6.0-1.19","","<img src=""img/orange-n.png"" border=""10"">","null","trial","32","","0.6,0.4","3:go_c","0",""
"null","","html-keyboard-response","279","2992250","0.0-6.0-2.19","","<div style=""font-size:60px;"">+</div>","null","","","","","","",""
"505.8300000000745","","image-keyboard-response","280","2992757","0.0-6.0-0.20","","img/purple.png","32","trial","32","true","0.8,0.2","1:go_a","",""
"null","","html-keyboard-response","281","2993764","0.0-6.0-1.20","","<img src=""img/purple-r.png"" border=""10"">","null","trial","32","","0.8,0.2","1:go_a","1",""
"null","","html-keyboard-response","282","2994769","0.0-6.0-2.20","","<div style=""font-size:60px;"">+</div>","null","","","","","","",""
"517.1600000010803","","image-keyboard-response","283","2995287","0.0-6.0-0.21","","img/green.png","32","trial","null","false","0.4,0.6","4:nogo_d","",""
"null","","html-keyboard-response","284","2996299","0.0-6.0-1.21","","<img src=""img/green-n.png"" border=""10"">","null","trial","null","","0.4,0.6","4:nogo_d","0",""
"null","","html-keyboard-response","285","2997305","0.0-6.0-2.21","","<div style=""font-size:60px;"">+</div>","null","","","","","","",""
"null","","image-keyboard-response","286","2998821","0.0-6.0-0.22","","img/orange.png","null","trial","32","false","0.6,0.4","3:go_c","",""
"null","","html-keyboard-response","287","2999828","0.0-6.0-1.22","","<img src=""img/orange-r.png"">","null","trial","32","","0.6,0.4","3:go_c","1",""
"null","","html-keyboard-response","288","3000834","0.0-6.0-2.22","","<div style=""font-size:60px;"">+</div>","null","","","","","","",""
"null","","image-keyboard-response","289","3002349","0.0-6.0-0.23","","img/pink.png","null","trial","null","true","0.2,0.8","2:nogo_b","",""
"null","","html-keyboard-response","290","3003356","0.0-6.0-1.23","","<img src=""img/pink-r.png"">","null","trial","null","","0.2,0.8","2:nogo_b","1",""
"null","","html-keyboard-response","291","3004361","0.0-6.0-2.23","","<div style=""font-size:60px;"">+</div>","null","","","","","","",""
"309.97500000009313","","image-keyboard-response","292","3004672","0.0-6.0-0.24","","img/purple.png","32","trial","32","true","0.8,0.2","1:go_a","",""
"null","","html-keyboard-response","293","3005675","0.0-6.0-1.24","","<img src=""img/purple-r.png"" border=""10"">","null","trial","32","","0.8,0.2","1:go_a","1",""
"null","","html-keyboard-response","294","3006678","0.0-6.0-2.24","","<div style=""font-size:60px;"">+</div>","null","","","","","","",""
"null","","image-keyboard-response","295","3008195","0.0-6.0-0.25","","img/green.png","null","trial","null","true","0.4,0.6","4:nogo_d","",""
"null","","html-keyboard-response","296","3009200","0.0-6.0-1.25","","<img src=""img/green-r.png"">","null","trial","null","","0.4,0.6","4:nogo_d","1",""
"null","","html-keyboard-response","297","3010205","0.0-6.0-2.25","","<div style=""font-size:60px;"">+</div>","null","","","","","","",""
"null","","image-keyboard-response","298","3011718","0.0-6.0-0.26","","img/pink.png","null","trial","null","true","0.2,0.8","2:nogo_b","",""
"null","","html-keyboard-response","299","3012723","0.0-6.0-1.26","","<img src=""img/pink-r.png"">","null","trial","null","","0.2,0.8","2:nogo_b","1",""
"null","","html-keyboard-response","300","3013729","0.0-6.0-2.26","","<div style=""font-size:60px;"">+</div>","null","","","","","","",""
"null","","image-keyboard-response","301","3015243","0.0-6.0-0.27","","img/orange.png","null","trial","32","false","0.6,0.4","3:go_c","",""
"null","","html-keyboard-response","302","3016248","0.0-6.0-1.27","","<img src=""img/orange-r.png"">","null","trial","32","","0.6,0.4","3:go_c","1",""
"null","","html-keyboard-response","303","3017254","0.0-6.0-2.27","","<div style=""font-size:60px;"">+</div>","null","","","","","","",""
"null","","image-keyboard-response","304","3018768","0.0-6.0-0.28","","img/orange.png","null","trial","32","false","0.6,0.4","3:go_c","",""
"null","","html-keyboard-response","305","3019773","0.0-6.0-1.28","","<img src=""img/orange-r.png"">","null","trial","32","","0.6,0.4","3:go_c","1",""
"null","","html-keyboard-response","306","3020778","0.0-6.0-2.28","","<div style=""font-size:60px;"">+</div>","null","","","","","","",""
"null","","image-keyboard-response","307","3022295","0.0-6.0-0.29","","img/purple.png","null","trial","32","false","0.8,0.2","1:go_a","",""
"null","","html-keyboard-response","308","3023299","0.0-6.0-1.29","","<img src=""img/purple-n.png"">","null","trial","32","","0.8,0.2","1:go_a","0",""
"null","","html-keyboard-response","309","3024303","0.0-6.0-2.29","","<div style=""font-size:60px;"">+</div>","null","","","","","","",""
"null","","image-keyboard-response","310","3025817","0.0-6.0-0.30","","img/green.png","null","trial","null","true","0.4,0.6","4:nogo_d","",""
"null","","html-keyboard-response","311","3026822","0.0-6.0-1.30","","<img src=""img/green-n.png"">","null","trial","null","","0.4,0.6","4:nogo_d","0",""
"null","","html-keyboard-response","312","3027827","0.0-6.0-2.30","","<div style=""font-size:60px;"">+</div>","null","","","","","","",""
"null","","image-keyboard-response","313","3029342","0.0-6.0-0.31","","img/pink.png","null","trial","null","true","0.2,0.8","2:nogo_b","",""
"null","","html-keyboard-response","314","3030347","0.0-6.0-1.31","","<img src=""img/pink-r.png"">","null","trial","null","","0.2,0.8","2:nogo_b","1",""
"null","","html-keyboard-response","315","3031352","0.0-6.0-2.31","","<div style=""font-size:60px;"">+</div>","null","","","","","","",""
"406.3349999994971","","image-keyboard-response","316","3031759","0.0-6.0-0.32","","img/green.png","32","trial","null","false","0.4,0.6","4:nogo_d","",""
"null","","html-keyboard-response","317","3032775","0.0-6.0-1.32","","<img src=""img/green-r.png"" border=""10"">","null","trial","null","","0.4,0.6","4:nogo_d","1",""
"null","","html-keyboard-response","318","3033778","0.0-6.0-2.32","","<div style=""font-size:60px;"">+</div>","null","","","","","","",""
"983.1800000006333","","image-keyboard-response","319","3034762","0.0-6.0-0.33","","img/purple.png","32","trial","32","true","0.8,0.2","1:go_a","",""
"null","","html-keyboard-response","320","3035773","0.0-6.0-1.33","","<img src=""img/purple-r.png"" border=""10"">","null","trial","32","","0.8,0.2","1:go_a","1",""
"null","","html-keyboard-response","321","3036776","0.0-6.0-2.33","","<div style=""font-size:60px;"">+</div>","null","","","","","","",""
"null","","image-keyboard-response","322","3038292","0.0-6.0-0.34","","img/orange.png","null","trial","32","false","0.6,0.4","3:go_c","",""
"null","","html-keyboard-response","323","3039299","0.0-6.0-1.34","","<img src=""img/orange-n.png"">","null","trial","32","","0.6,0.4","3:go_c","0",""
"null","","html-keyboard-response","324","3040304","0.0-6.0-2.34","","<div style=""font-size:60px;"">+</div>","null","","","","","","",""
"null","","image-keyboard-response","325","3041817","0.0-6.0-0.35","","img/pink.png","null","trial","null","true","0.2,0.8","2:nogo_b","",""
"null","","html-keyboard-response","326","3042823","0.0-6.0-1.35","","<img src=""img/pink-n.png"">","null","trial","null","","0.2,0.8","2:nogo_b","0",""
"null","","html-keyboard-response","327","3043828","0.0-6.0-2.35","","<div style=""font-size:60px;"">+</div>","null","","","","","","",""
"288.0200000000186","","image-keyboard-response","328","3044116","0.0-6.0-0.36","","img/purple.png","32","trial","32","true","0.8,0.2","1:go_a","",""
"null","","html-keyboard-response","329","3045127","0.0-6.0-1.36","","<img src=""img/purple-r.png"" border=""10"">","null","trial","32","","0.8,0.2","1:go_a","1",""
"null","","html-keyboard-response","330","3046132","0.0-6.0-2.36","","<div style=""font-size:60px;"">+</div>","null","","","","","","",""
"null","","image-keyboard-response","331","3047647","0.0-6.0-0.37","","img/green.png","null","trial","null","true","0.4,0.6","4:nogo_d","",""
"null","","html-keyboard-response","332","3048651","0.0-6.0-1.37","","<img src=""img/green-r.png"">","null","trial","null","","0.4,0.6","4:nogo_d","1",""
"null","","html-keyboard-response","333","3049656","0.0-6.0-2.37","","<div style=""font-size:60px;"">+</div>","null","","","","","","",""
"400.625","","image-keyboard-response","334","3050057","0.0-6.0-0.38","","img/pink.png","32","trial","null","false","0.2,0.8","2:nogo_b","",""
"null","","html-keyboard-response","335","3051063","0.0-6.0-1.38","","<img src=""img/pink-n.png"" border=""10"">","null","trial","null","","0.2,0.8","2:nogo_b","0",""
"null","","html-keyboard-response","336","3052068","0.0-6.0-2.38","","<div style=""font-size:60px;"">+</div>","null","","","","","","",""
"null","","image-keyboard-response","337","3053583","0.0-6.0-0.39","","img/orange.png","null","trial","32","false","0.6,0.4","3:go_c","",""
"null","","html-keyboard-response","338","3054588","0.0-6.0-1.39","","<img src=""img/orange-n.png"">","null","trial","32","","0.6,0.4","3:go_c","0",""
"null","","html-keyboard-response","339","3055594","0.0-6.0-2.39","","<div style=""font-size:60px;"">+</div>","null","","","","","","",""
"658.605000000447","","image-keyboard-response","340","3056253","0.0-6.0-0.40","","img/green.png","32","trial","null","false","0.4,0.6","4:nogo_d","",""
"null","","html-keyboard-response","341","3057264","0.0-6.0-1.40","","<img src=""img/green-n.png"" border=""10"">","null","trial","null","","0.4,0.6","4:nogo_d","0",""
"null","","html-keyboard-response","342","3058271","0.0-6.0-2.40","","<div style=""font-size:60px;"">+</div>","null","","","","","","",""
"326.21000000089407","","image-keyboard-response","343","3058598","0.0-6.0-0.41","","img/purple.png","32","trial","32","true","0.8,0.2","1:go_a","",""
"null","","html-keyboard-response","344","3059600","0.0-6.0-1.41","","<img src=""img/purple-r.png"" border=""10"">","null","trial","32","","0.8,0.2","1:go_a","1",""
"null","","html-keyboard-response","345","3060605","0.0-6.0-2.41","","<div style=""font-size:60px;"">+</div>","null","","","","","","",""
"825.1899999994785","","image-keyboard-response","346","3061432","0.0-6.0-0.42","","img/orange.png","32","trial","32","true","0.6,0.4","3:go_c","",""
"null","","html-keyboard-response","347","3062446","0.0-6.0-1.42","","<img src=""img/orange-n.png"" border=""10"">","null","trial","32","","0.6,0.4","3:go_c","0",""
"null","","html-keyboard-response","348","3063452","0.0-6.0-2.42","","<div style=""font-size:60px;"">+</div>","null","","","","","","",""
"null","","image-keyboard-response","349","3064966","0.0-6.0-0.43","","img/pink.png","null","trial","null","true","0.2,0.8","2:nogo_b","",""
"null","","html-keyboard-response","350","3065971","0.0-6.0-1.43","","<img src=""img/pink-r.png"">","null","trial","null","","0.2,0.8","2:nogo_b","1",""
"null","","html-keyboard-response","351","3066976","0.0-6.0-2.43","","<div style=""font-size:60px;"">+</div>","null","","","","","","",""
"null","","image-keyboard-response","352","3068491","0.0-6.0-0.44","","img/green.png","null","trial","null","true","0.4,0.6","4:nogo_d","",""
"null","","html-keyboard-response","353","3069499","0.0-6.0-1.44","","<img src=""img/green-n.png"">","null","trial","null","","0.4,0.6","4:nogo_d","0",""
"null","","html-keyboard-response","354","3070503","0.0-6.0-2.44","","<div style=""font-size:60px;"">+</div>","null","","","","","","",""
"426.03000000072643","","image-keyboard-response","355","3070930","0.0-6.0-0.45","","img/purple.png","32","trial","32","true","0.8,0.2","1:go_a","",""
"null","","html-keyboard-response","356","3071940","0.0-6.0-1.45","","<img src=""img/purple-n.png"" border=""10"">","null","trial","32","","0.8,0.2","1:go_a","0",""
"null","","html-keyboard-response","357","3072947","0.0-6.0-2.45","","<div style=""font-size:60px;"">+</div>","null","","","","","","",""
"274.8300000000745","","image-keyboard-response","358","3073223","0.0-6.0-0.46","","img/pink.png","32","trial","null","false","0.2,0.8","2:nogo_b","",""
"null","","html-keyboard-response","359","3074232","0.0-6.0-1.46","","<img src=""img/pink-n.png"" border=""10"">","null","trial","null","","0.2,0.8","2:nogo_b","0",""
"null","","html-keyboard-response","360","3075238","0.0-6.0-2.46","","<div style=""font-size:60px;"">+</div>","null","","","","","","",""
"null","","image-keyboard-response","361","3076753","0.0-6.0-0.47","","img/orange.png","null","trial","32","false","0.6,0.4","3:go_c","",""
"null","","html-keyboard-response","362","3077758","0.0-6.0-1.47","","<img src=""img/orange-r.png"">","null","trial","32","","0.6,0.4","3:go_c","1",""
"null","","html-keyboard-response","363","3078765","0.0-6.0-2.47","","<div style=""font-size:60px;"">+</div>","null","","","","","","",""
"466.4900000006892","","image-keyboard-response","364","3079232","0.0-6.0-0.48","","img/purple.png","32","trial","32","true","0.8,0.2","1:go_a","",""
"null","","html-keyboard-response","365","3080234","0.0-6.0-1.48","","<img src=""img/purple-r.png"" border=""10"">","null","trial","32","","0.8,0.2","1:go_a","1",""
"null","","html-keyboard-response","366","3081241","0.0-6.0-2.48","","<div style=""font-size:60px;"">+</div>","null","","","","","","",""
"null","","image-keyboard-response","367","3082758","0.0-6.0-0.49","","img/green.png","null","trial","null","true","0.4,0.6","4:nogo_d","",""
"null","","html-keyboard-response","368","3083762","0.0-6.0-1.49","","<img src=""img/green-r.png"">","null","trial","null","","0.4,0.6","4:nogo_d","1",""
"null","","html-keyboard-response","369","3084767","0.0-6.0-2.49","","<div style=""font-size:60px;"">+</div>","null","","","","","","",""
"null","","image-keyboard-response","370","3086282","0.0-6.0-0.50","","img/orange.png","null","trial","32","false","0.6,0.4","3:go_c","",""
"null","","html-keyboard-response","371","3087288","0.0-6.0-1.50","","<img src=""img/orange-n.png"">","null","trial","32","","0.6,0.4","3:go_c","0",""
"null","","html-keyboard-response","372","3088293","0.0-6.0-2.50","","<div style=""font-size:60px;"">+</div>","null","","","","","","",""
"null","","image-keyboard-response","373","3089808","0.0-6.0-0.51","","img/pink.png","null","trial","null","true","0.2,0.8","2:nogo_b","",""
"null","","html-keyboard-response","374","3090813","0.0-6.0-1.51","","<img src=""img/pink-r.png"">","null","trial","null","","0.2,0.8","2:nogo_b","1",""
"null","","html-keyboard-response","375","3091819","0.0-6.0-2.51","","<div style=""font-size:60px;"">+</div>","null","","","","","","",""
"null","","image-keyboard-response","376","3093334","0.0-6.0-0.52","","img/green.png","null","trial","null","true","0.4,0.6","4:nogo_d","",""
"null","","html-keyboard-response","377","3094339","0.0-6.0-1.52","","<img src=""img/green-r.png"">","null","trial","null","","0.4,0.6","4:nogo_d","1",""
"null","","html-keyboard-response","378","3095343","0.0-6.0-2.52","","<div style=""font-size:60px;"">+</div>","null","","","","","","",""
"676.8350000004284","","image-keyboard-response","379","3096021","0.0-6.0-0.53","","img/orange.png","32","trial","32","true","0.6,0.4","3:go_c","",""
"null","","html-keyboard-response","380","3097029","0.0-6.0-1.53","","<img src=""img/orange-r.png"" border=""10"">","null","trial","32","","0.6,0.4","3:go_c","1",""
"null","","html-keyboard-response","381","3098032","0.0-6.0-2.53","","<div style=""font-size:60px;"">+</div>","null","","","","","","",""
"null","","image-keyboard-response","382","3099548","0.0-6.0-0.54","","img/pink.png","null","trial","null","true","0.2,0.8","2:nogo_b","",""
"null","","html-keyboard-response","383","3100552","0.0-6.0-1.54","","<img src=""img/pink-n.png"">","null","trial","null","","0.2,0.8","2:nogo_b","0",""
"null","","html-keyboard-response","384","3101556","0.0-6.0-2.54","","<div style=""font-size:60px;"">+</div>","null","","","","","","",""
"409.8549999999814","","image-keyboard-response","385","3101967","0.0-6.0-0.55","","img/purple.png","32","trial","32","true","0.8,0.2","1:go_a","",""
"null","","html-keyboard-response","386","3102980","0.0-6.0-1.55","","<img src=""img/purple-n.png"" border=""10"">","null","trial","32","","0.8,0.2","1:go_a","0",""
"null","","html-keyboard-response","387","3103985","0.0-6.0-2.55","","<div style=""font-size:60px;"">+</div>","null","","","","","","",""
"650.4999999995343","","image-keyboard-response","388","3104636","0.0-6.0-0.56","","img/purple.png","32","trial","32","true","0.8,0.2","1:go_a","",""
"null","","html-keyboard-response","389","3105641","0.0-6.0-1.56","","<img src=""img/purple-r.png"" border=""10"">","null","trial","32","","0.8,0.2","1:go_a","1",""
"null","","html-keyboard-response","390","3106645","0.0-6.0-2.56","","<div style=""font-size:60px;"">+</div>","null","","","","","","",""
"null","","image-keyboard-response","391","3108159","0.0-6.0-0.57","","img/green.png","null","trial","null","true","0.4,0.6","4:nogo_d","",""
"null","","html-keyboard-response","392","3109164","0.0-6.0-1.57","","<img src=""img/green-n.png"">","null","trial","null","","0.4,0.6","4:nogo_d","0",""
"null","","html-keyboard-response","393","3110168","0.0-6.0-2.57","","<div style=""font-size:60px;"">+</div>","null","","","","","","",""
"null","","image-keyboard-response","394","3111670","0.0-6.0-0.58","","img/orange.png","null","trial","32","false","0.6,0.4","3:go_c","",""
"null","","html-keyboard-response","395","3112675","0.0-6.0-1.58","","<img src=""img/orange-r.png"">","null","trial","32","","0.6,0.4","3:go_c","1",""
"null","","html-keyboard-response","396","3113678","0.0-6.0-2.58","","<div style=""font-size:60px;"">+</div>","null","","","","","","",""
"null","","image-keyboard-response","397","3115195","0.0-6.0-0.59","","img/pink.png","null","trial","null","true","0.2,0.8","2:nogo_b","",""
"null","","html-keyboard-response","398","3116200","0.0-6.0-1.59","","<img src=""img/pink-r.png"">","null","trial","null","","0.2,0.8","2:nogo_b","1",""
"null","","html-keyboard-response","399","3117206","0.0-6.0-2.59","","<div style=""font-size:60px;"">+</div>","null","","","","","","",""
"null","","image-keyboard-response","400","3118708","0.0-6.0-0.60","","img/pink.png","null","trial","null","true","0.2,0.8","2:nogo_b","",""
"null","","html-keyboard-response","401","3119713","0.0-6.0-1.60","","<img src=""img/pink-n.png"">","null","trial","null","","0.2,0.8","2:nogo_b","0",""
"null","","html-keyboard-response","402","3120718","0.0-6.0-2.60","","<div style=""font-size:60px;"">+</div>","null","","","","","","",""
"837.7999999993481","","image-keyboard-response","403","3121557","0.0-6.0-0.61","","img/orange.png","32","trial","32","true","0.6,0.4","3:go_c","",""
"null","","html-keyboard-response","404","3122573","0.0-6.0-1.61","","<img src=""img/orange-n.png"" border=""10"">","null","trial","32","","0.6,0.4","3:go_c","0",""
"null","","html-keyboard-response","405","3123579","0.0-6.0-2.61","","<div style=""font-size:60px;"">+</div>","null","","","","","","",""
"720.9999999995343","","image-keyboard-response","406","3124301","0.0-6.0-0.62","","img/green.png","32","trial","null","false","0.4,0.6","4:nogo_d","",""
"null","","html-keyboard-response","407","3125311","0.0-6.0-1.62","","<img src=""img/green-n.png"" border=""10"">","null","trial","null","","0.4,0.6","4:nogo_d","0",""
"null","","html-keyboard-response","408","3126317","0.0-6.0-2.62","","<div style=""font-size:60px;"">+</div>","null","","","","","","",""
"620.6750000002794","","image-keyboard-response","409","3126938","0.0-6.0-0.63","","img/purple.png","32","trial","32","true","0.8,0.2","1:go_a","",""
"null","","html-keyboard-response","410","3127953","0.0-6.0-1.63","","<img src=""img/purple-r.png"" border=""10"">","null","trial","32","","0.8,0.2","1:go_a","1",""
"null","","html-keyboard-response","411","3128959","0.0-6.0-2.63","","<div style=""font-size:60px;"">+</div>","null","","","","","","",""
"325.0050000003539","","image-keyboard-response","412","3129284","0.0-6.0-0.64","","img/green.png","32","trial","null","false","0.4,0.6","4:nogo_d","",""
"null","","html-keyboard-response","413","3130289","0.0-6.0-1.64","","<img src=""img/green-n.png"" border=""10"">","null","trial","null","","0.4,0.6","4:nogo_d","0",""
"null","","html-keyboard-response","414","3131293","0.0-6.0-2.64","","<div style=""font-size:60px;"">+</div>","null","","","","","","",""
"532.195000001695","","image-keyboard-response","415","3131826","0.0-6.0-0.65","","img/orange.png","32","trial","32","true","0.6,0.4","3:go_c","",""
"null","","html-keyboard-response","416","3132840","0.0-6.0-1.65","","<img src=""img/orange-n.png"" border=""10"">","null","trial","32","","0.6,0.4","3:go_c","0",""
"null","","html-keyboard-response","417","3133845","0.0-6.0-2.65","","<div style=""font-size:60px;"">+</div>","null","","","","","","",""
"250.45499999914318","","image-keyboard-response","418","3134097","0.0-6.0-0.66","","img/purple.png","32","trial","32","true","0.8,0.2","1:go_a","",""
"null","","html-keyboard-response","419","3135112","0.0-6.0-1.66","","<img src=""img/purple-r.png"" border=""10"">","null","trial","32","","0.8,0.2","1:go_a","1",""
"null","","html-keyboard-response","420","3136119","0.0-6.0-2.66","","<div style=""font-size:60px;"">+</div>","null","","","","","","",""
"638.0250000003725","","image-keyboard-response","421","3136758","0.0-6.0-0.67","","img/pink.png","32","trial","null","false","0.2,0.8","2:nogo_b","",""
"null","","html-keyboard-response","422","3137772","0.0-6.0-1.67","","<img src=""img/pink-n.png"" border=""10"">","null","trial","null","","0.2,0.8","2:nogo_b","0",""
"null","","html-keyboard-response","423","3138778","0.0-6.0-2.67","","<div style=""font-size:60px;"">+</div>","null","","","","","","",""
"471.51499999919906","","image-keyboard-response","424","3139250","0.0-6.0-0.68","","img/orange.png","32","trial","32","true","0.6,0.4","3:go_c","",""
"null","","html-keyboard-response","425","3140261","0.0-6.0-1.68","","<img src=""img/orange-n.png"" border=""10"">","null","trial","32","","0.6,0.4","3:go_c","0",""
"null","","html-keyboard-response","426","3141265","0.0-6.0-2.68","","<div style=""font-size:60px;"">+</div>","null","","","","","","",""
"null","","image-keyboard-response","427","3142779","0.0-6.0-0.69","","img/pink.png","null","trial","null","true","0.2,0.8","2:nogo_b","",""
"null","","html-keyboard-response","428","3143782","0.0-6.0-1.69","","<img src=""img/pink-r.png"">","null","trial","null","","0.2,0.8","2:nogo_b","1",""
"null","","html-keyboard-response","429","3144789","0.0-6.0-2.69","","<div style=""font-size:60px;"">+</div>","null","","","","","","",""
"710.8150000004098","","image-keyboard-response","430","3145501","0.0-6.0-0.70","","img/purple.png","32","trial","32","true","0.8,0.2","1:go_a","",""
"null","","html-keyboard-response","431","3146505","0.0-6.0-1.70","","<img src=""img/purple-r.png"" border=""10"">","null","trial","32","","0.8,0.2","1:go_a","1",""
"null","","html-keyboard-response","432","3147510","0.0-6.0-2.70","","<div style=""font-size:60px;"">+</div>","null","","","","","","",""
"503.60999999940395","","image-keyboard-response","433","3148015","0.0-6.0-0.71","","img/green.png","32","trial","null","false","0.4,0.6","4:nogo_d","",""
"null","","html-keyboard-response","434","3149026","0.0-6.0-1.71","","<img src=""img/green-r.png"" border=""10"">","null","trial","null","","0.4,0.6","4:nogo_d","1",""
"null","","html-keyboard-response","435","3150030","0.0-6.0-2.71","","<div style=""font-size:60px;"">+</div>","null","","","","","","",""
"417.21999999927357","","image-keyboard-response","436","3150448","0.0-6.0-0.72","","img/orange.png","32","trial","32","true","0.6,0.4","3:go_c","",""
"null","","html-keyboard-response","437","3151466","0.0-6.0-1.72","","<img src=""img/orange-n.png"" border=""10"">","null","trial","32","","0.6,0.4","3:go_c","0",""
"null","","html-keyboard-response","438","3152470","0.0-6.0-2.72","","<div style=""font-size:60px;"">+</div>","null","","","","","","",""
"247.48999999975786","","image-keyboard-response","439","3152718","0.0-6.0-0.73","","img/purple.png","32","trial","32","true","0.8,0.2","1:go_a","",""
"null","","html-keyboard-response","440","3153724","0.0-6.0-1.73","","<img src=""img/purple-r.png"" border=""10"">","null","trial","32","","0.8,0.2","1:go_a","1",""
"null","","html-keyboard-response","441","3154728","0.0-6.0-2.73","","<div style=""font-size:60px;"">+</div>","null","","","","","","",""
"null","","image-keyboard-response","442","3156241","0.0-6.0-0.74","","img/pink.png","null","trial","null","true","0.2,0.8","2:nogo_b","",""
"null","","html-keyboard-response","443","3157246","0.0-6.0-1.74","","<img src=""img/pink-n.png"">","null","trial","null","","0.2,0.8","2:nogo_b","0",""
"null","","html-keyboard-response","444","3158252","0.0-6.0-2.74","","<div style=""font-size:60px;"">+</div>","null","","","","","","",""
"474.8999999994412","","image-keyboard-response","445","3158728","0.0-6.0-0.75","","img/green.png","32","trial","null","false","0.4,0.6","4:nogo_d","",""
"null","","html-keyboard-response","446","3159734","0.0-6.0-1.75","","<img src=""img/green-r.png"" border=""10"">","null","trial","null","","0.4,0.6","4:nogo_d","1",""
"null","","html-keyboard-response","447","3160739","0.0-6.0-2.75","","<div style=""font-size:60px;"">+</div>","null","","","","","","",""
"374.26000000024214","","image-keyboard-response","448","3161114","0.0-6.0-0.76","","img/green.png","32","trial","null","false","0.4,0.6","4:nogo_d","",""
"null","","html-keyboard-response","449","3162129","0.0-6.0-1.76","","<img src=""img/green-n.png"" border=""10"">","null","trial","null","","0.4,0.6","4:nogo_d","0",""
"null","","html-keyboard-response","450","3163135","0.0-6.0-2.76","","<div style=""font-size:60px;"">+</div>","null","","","","","","",""
"393.68499999912456","","image-keyboard-response","451","3163529","0.0-6.0-0.77","","img/purple.png","32","trial","32","true","0.8,0.2","1:go_a","",""
"null","","html-keyboard-response","452","3164539","0.0-6.0-1.77","","<img src=""img/purple-r.png"" border=""10"">","null","trial","32","","0.8,0.2","1:go_a","1",""
"null","","html-keyboard-response","453","3165544","0.0-6.0-2.77","","<div style=""font-size:60px;"">+</div>","null","","","","","","",""
"515.1649999991059","","image-keyboard-response","454","3166060","0.0-6.0-0.78","","img/orange.png","32","trial","32","true","0.6,0.4","3:go_c","",""
"null","","html-keyboard-response","455","3167073","0.0-6.0-1.78","","<img src=""img/orange-n.png"" border=""10"">","null","trial","32","","0.6,0.4","3:go_c","0",""
"null","","html-keyboard-response","456","3168078","0.0-6.0-2.78","","<div style=""font-size:60px;"">+</div>","null","","","","","","",""
"382.4550000010058","","image-keyboard-response","457","3168462","0.0-6.0-0.79","","img/pink.png","32","trial","null","false","0.2,0.8","2:nogo_b","",""
"null","","html-keyboard-response","458","3169470","0.0-6.0-1.79","","<img src=""img/pink-r.png"" border=""10"">","null","trial","null","","0.2,0.8","2:nogo_b","1",""
"null","","html-keyboard-response","459","3170475","0.0-6.0-2.79","","<div style=""font-size:60px;"">+</div>","null","","","","","","",""
"null","","image-keyboard-response","460","3171990","0.0-6.0-0.80","","img/orange.png","null","trial","32","false","0.6,0.4","3:go_c","",""
"null","","html-keyboard-response","461","3172995","0.0-6.0-1.80","","<img src=""img/orange-n.png"">","null","trial","32","","0.6,0.4","3:go_c","0",""
"null","","html-keyboard-response","462","3174000","0.0-6.0-2.80","","<div style=""font-size:60px;"">+</div>","null","","","","","","",""
"null","","image-keyboard-response","463","3175502","0.0-6.0-0.81","","img/green.png","null","trial","null","true","0.4,0.6","4:nogo_d","",""
"null","","html-keyboard-response","464","3176508","0.0-6.0-1.81","","<img src=""img/green-n.png"">","null","trial","null","","0.4,0.6","4:nogo_d","0",""
"null","","html-keyboard-response","465","3177513","0.0-6.0-2.81","","<div style=""font-size:60px;"">+</div>","null","","","","","","",""
"570.1650000014342","","image-keyboard-response","466","3178085","0.0-6.0-0.82","","img/purple.png","32","trial","32","true","0.8,0.2","1:go_a","",""
"null","","html-keyboard-response","467","3179092","0.0-6.0-1.82","","<img src=""img/purple-r.png"" border=""10"">","null","trial","32","","0.8,0.2","1:go_a","1",""
"null","","html-keyboard-response","468","3180095","0.0-6.0-2.82","","<div style=""font-size:60px;"">+</div>","null","","","","","","",""
"420.28000000026077","","image-keyboard-response","469","3180516","0.0-6.0-0.83","","img/pink.png","32","trial","null","false","0.2,0.8","2:nogo_b","",""
"null","","html-keyboard-response","470","3181518","0.0-6.0-1.83","","<img src=""img/pink-n.png"" border=""10"">","null","trial","null","","0.2,0.8","2:nogo_b","0",""
"null","","html-keyboard-response","471","3182520","0.0-6.0-2.83","","<div style=""font-size:60px;"">+</div>","null","","","","","","",""
"424.7950000008568","","image-keyboard-response","472","3182946","0.0-6.0-0.84","","img/orange.png","32","trial","32","true","0.6,0.4","3:go_c","",""
"null","","html-keyboard-response","473","3183956","0.0-6.0-1.84","","<img src=""img/orange-r.png"" border=""10"">","null","trial","32","","0.6,0.4","3:go_c","1",""
"null","","html-keyboard-response","474","3184959","0.0-6.0-2.84","","<div style=""font-size:60px;"">+</div>","null","","","","","","",""
"266.02000000094995","","image-keyboard-response","475","3185226","0.0-6.0-0.85","","img/purple.png","32","trial","32","true","0.8,0.2","1:go_a","",""
"null","","html-keyboard-response","476","3186241","0.0-6.0-1.85","","<img src=""img/purple-r.png"" border=""10"">","null","trial","32","","0.8,0.2","1:go_a","1",""
"null","","html-keyboard-response","477","3187246","0.0-6.0-2.85","","<div style=""font-size:60px;"">+</div>","null","","","","","","",""
"363.43500000145286","","image-keyboard-response","478","3187610","0.0-6.0-0.86","","img/green.png","32","trial","null","false","0.4,0.6","4:nogo_d","",""
"null","","html-keyboard-response","479","3188620","0.0-6.0-1.86","","<img src=""img/green-n.png"" border=""10"">","null","trial","null","","0.4,0.6","4:nogo_d","0",""
"null","","html-keyboard-response","480","3189625","0.0-6.0-2.86","","<div style=""font-size:60px;"">+</div>","null","","","","","","",""
"393.15999999968335","","image-keyboard-response","481","3190019","0.0-6.0-0.87","","img/pink.png","32","trial","null","false","0.2,0.8","2:nogo_b","",""
"null","","html-keyboard-response","482","3191032","0.0-6.0-1.87","","<img src=""img/pink-r.png"" border=""10"">","null","trial","null","","0.2,0.8","2:nogo_b","1",""
"null","","html-keyboard-response","483","3192037","0.0-6.0-2.87","","<div style=""font-size:60px;"">+</div>","null","","","","","","",""
"null","","image-keyboard-response","484","3193552","0.0-6.0-0.88","","img/orange.png","null","trial","32","false","0.6,0.4","3:go_c","",""
"null","","html-keyboard-response","485","3194557","0.0-6.0-1.88","","<img src=""img/orange-r.png"">","null","trial","32","","0.6,0.4","3:go_c","1",""
"null","","html-keyboard-response","486","3195564","0.0-6.0-2.88","","<div style=""font-size:60px;"">+</div>","null","","","","","","",""
"null","","image-keyboard-response","487","3197080","0.0-6.0-0.89","","img/green.png","null","trial","null","true","0.4,0.6","4:nogo_d","",""
"null","","html-keyboard-response","488","3198085","0.0-6.0-1.89","","<img src=""img/green-n.png"">","null","trial","null","","0.4,0.6","4:nogo_d","0",""
"null","","html-keyboard-response","489","3199090","0.0-6.0-2.89","","<div style=""font-size:60px;"">+</div>","null","","","","","","",""
"344.715000001248","","image-keyboard-response","490","3199436","0.0-6.0-0.90","","img/purple.png","32","trial","32","true","0.8,0.2","1:go_a","",""
"null","","html-keyboard-response","491","3200449","0.0-6.0-1.90","","<img src=""img/purple-r.png"" border=""10"">","null","trial","32","","0.8,0.2","1:go_a","1",""
"null","","html-keyboard-response","492","3201454","0.0-6.0-2.90","","<div style=""font-size:60px;"">+</div>","null","","","","","","",""
"null","","image-keyboard-response","493","3202956","0.0-6.0-0.91","","img/pink.png","null","trial","null","true","0.2,0.8","2:nogo_b","",""
"null","","html-keyboard-response","494","3203959","0.0-6.0-1.91","","<img src=""img/pink-r.png"">","null","trial","null","","0.2,0.8","2:nogo_b","1",""
"null","","html-keyboard-response","495","3204962","0.0-6.0-2.91","","<div style=""font-size:60px;"">+</div>","null","","","","","","",""
"353.1199999996461","","image-keyboard-response","496","3205317","0.0-6.0-0.92","","img/purple.png","32","trial","32","true","0.8,0.2","1:go_a","",""
"null","","html-keyboard-response","497","3206323","0.0-6.0-1.92","","<img src=""img/purple-r.png"" border=""10"">","null","trial","32","","0.8,0.2","1:go_a","1",""
"null","","html-keyboard-response","498","3207326","0.0-6.0-2.92","","<div style=""font-size:60px;"">+</div>","null","","","","","","",""
"null","","image-keyboard-response","499","3208840","0.0-6.0-0.93","","img/green.png","null","trial","null","true","0.4,0.6","4:nogo_d","",""
"null","","html-keyboard-response","500","3209845","0.0-6.0-1.93","","<img src=""img/green-r.png"">","null","trial","null","","0.4,0.6","4:nogo_d","1",""
"null","","html-keyboard-response","501","3210849","0.0-6.0-2.93","","<div style=""font-size:60px;"">+</div>","null","","","","","","",""
"null","","image-keyboard-response","502","3212365","0.0-6.0-0.94","","img/orange.png","null","trial","32","false","0.6,0.4","3:go_c","",""
"null","","html-keyboard-response","503","3213368","0.0-6.0-1.94","","<img src=""img/orange-n.png"">","null","trial","32","","0.6,0.4","3:go_c","0",""
"null","","html-keyboard-response","504","3214372","0.0-6.0-2.94","","<div style=""font-size:60px;"">+</div>","null","","","","","","",""
"476.8349999994971","","image-keyboard-response","505","3214849","0.0-6.0-0.95","","img/pink.png","32","trial","null","false","0.2,0.8","2:nogo_b","",""
"null","","html-keyboard-response","506","3215867","0.0-6.0-1.95","","<img src=""img/pink-n.png"" border=""10"">","null","trial","null","","0.2,0.8","2:nogo_b","0",""
"null","","html-keyboard-response","507","3216869","0.0-6.0-2.95","","<div style=""font-size:60px;"">+</div>","null","","","","","","",""
"1018.47999999905","","image-keyboard-response","508","3217888","0.0-6.0-0.96","","img/pink.png","32","trial","null","false","0.2,0.8","2:nogo_b","",""
"null","","html-keyboard-response","509","3218892","0.0-6.0-1.96","","<img src=""img/pink-n.png"" border=""10"">","null","trial","null","","0.2,0.8","2:nogo_b","0",""
"null","","html-keyboard-response","510","3219896","0.0-6.0-2.96","","<div style=""font-size:60px;"">+</div>","null","","","","","","",""
"null","","image-keyboard-response","511","3221409","0.0-6.0-0.97","","img/green.png","null","trial","null","true","0.4,0.6","4:nogo_d","",""
"null","","html-keyboard-response","512","3222413","0.0-6.0-1.97","","<img src=""img/green-r.png"">","null","trial","null","","0.4,0.6","4:nogo_d","1",""
"null","","html-keyboard-response","513","3223415","0.0-6.0-2.97","","<div style=""font-size:60px;"">+</div>","null","","","","","","",""
"558.0850000004284","","image-keyboard-response","514","3223976","0.0-6.0-0.98","","img/orange.png","32","trial","32","true","0.6,0.4","3:go_c","",""
"null","","html-keyboard-response","515","3224992","0.0-6.0-1.98","","<img src=""img/orange-n.png"" border=""10"">","null","trial","32","","0.6,0.4","3:go_c","0",""
"null","","html-keyboard-response","516","3225997","0.0-6.0-2.98","","<div style=""font-size:60px;"">+</div>","null","","","","","","",""
"433.4700000002049","","image-keyboard-response","517","3226432","0.0-6.0-0.99","","img/purple.png","32","trial","32","true","0.8,0.2","1:go_a","",""
"null","","html-keyboard-response","518","3227435","0.0-6.0-1.99","","<img src=""img/purple-r.png"" border=""10"">","null","trial","32","","0.8,0.2","1:go_a","1",""
"null","","html-keyboard-response","519","3228440","0.0-6.0-2.99","","<div style=""font-size:60px;"">+</div>","null","","","","","","",""
"509.2399999992922","","image-keyboard-response","520","3228950","0.0-6.0-0.100","","img/purple.png","32","trial","32","true","0.8,0.2","1:go_a","",""
"null","","html-keyboard-response","521","3229967","0.0-6.0-1.100","","<img src=""img/purple-r.png"" border=""10"">","null","trial","32","","0.8,0.2","1:go_a","1",""
"null","","html-keyboard-response","522","3230984","0.0-6.0-2.100","","<div style=""font-size:60px;"">+</div>","null","","","","","","",""
"453.99500000150874","","image-keyboard-response","523","3231439","0.0-6.0-0.101","","img/pink.png","32","trial","null","false","0.2,0.8","2:nogo_b","",""
"null","","html-keyboard-response","524","3232454","0.0-6.0-1.101","","<img src=""img/pink-n.png"" border=""10"">","null","trial","null","","0.2,0.8","2:nogo_b","0",""
"null","","html-keyboard-response","525","3233458","0.0-6.0-2.101","","<div style=""font-size:60px;"">+</div>","null","","","","","","",""
"null","","image-keyboard-response","526","3234973","0.0-6.0-0.102","","img/green.png","null","trial","null","true","0.4,0.6","4:nogo_d","",""
"null","","html-keyboard-response","527","3235979","0.0-6.0-1.102","","<img src=""img/green-n.png"">","null","trial","null","","0.4,0.6","4:nogo_d","0",""
"null","","html-keyboard-response","528","3236983","0.0-6.0-2.102","","<div style=""font-size:60px;"">+</div>","null","","","","","","",""
"398.3850000007078","","image-keyboard-response","529","3237383","0.0-6.0-0.103","","img/orange.png","32","trial","32","true","0.6,0.4","3:go_c","",""
"null","","html-keyboard-response","530","3238391","0.0-6.0-1.103","","<img src=""img/orange-r.png"" border=""10"">","null","trial","32","","0.6,0.4","3:go_c","1",""
"null","","html-keyboard-response","531","3239395","0.0-6.0-2.103","","<div style=""font-size:60px;"">+</div>","null","","","","","","",""
"null","","image-keyboard-response","532","3240909","0.0-6.0-0.104","","img/green.png","null","trial","null","true","0.4,0.6","4:nogo_d","",""
"null","","html-keyboard-response","533","3241913","0.0-6.0-1.104","","<img src=""img/green-r.png"">","null","trial","null","","0.4,0.6","4:nogo_d","1",""
"null","","html-keyboard-response","534","3242916","0.0-6.0-2.104","","<div style=""font-size:60px;"">+</div>","null","","","","","","",""
"619.8350000013597","","image-keyboard-response","535","3243537","0.0-6.0-0.105","","img/orange.png","32","trial","32","true","0.6,0.4","3:go_c","",""
"null","","html-keyboard-response","536","3244553","0.0-6.0-1.105","","<img src=""img/orange-r.png"" border=""10"">","null","trial","32","","0.6,0.4","3:go_c","1",""
"null","","html-keyboard-response","537","3245556","0.0-6.0-2.105","","<div style=""font-size:60px;"">+</div>","null","","","","","","",""
"515.9600000008941","","image-keyboard-response","538","3246073","0.0-6.0-0.106","","img/purple.png","32","trial","32","true","0.8,0.2","1:go_a","",""
"null","","html-keyboard-response","539","3247084","0.0-6.0-1.106","","<img src=""img/purple-r.png"" border=""10"">","null","trial","32","","0.8,0.2","1:go_a","1",""
"null","","html-keyboard-response","540","3248088","0.0-6.0-2.106","","<div style=""font-size:60px;"">+</div>","null","","","","","","",""
"null","","image-keyboard-response","541","3249599","0.0-6.0-0.107","","img/pink.png","null","trial","null","true","0.2,0.8","2:nogo_b","",""
"null","","html-keyboard-response","542","3250616","0.0-6.0-1.107","","<img src=""img/pink-r.png"">","null","trial","null","","0.2,0.8","2:nogo_b","1",""
"null","","html-keyboard-response","543","3251619","0.0-6.0-2.107","","<div style=""font-size:60px;"">+</div>","null","","","","","","",""
"490.3599999998696","","image-keyboard-response","544","3252111","0.0-6.0-0.108","","img/orange.png","32","trial","32","true","0.6,0.4","3:go_c","",""
"null","","html-keyboard-response","545","3253117","0.0-6.0-1.108","","<img src=""img/orange-r.png"" border=""10"">","null","trial","32","","0.6,0.4","3:go_c","1",""
"null","","html-keyboard-response","546","3254120","0.0-6.0-2.108","","<div style=""font-size:60px;"">+</div>","null","","","","","","",""
"null","","image-keyboard-response","547","3255632","0.0-6.0-0.109","","img/green.png","null","trial","null","true","0.4,0.6","4:nogo_d","",""
"null","","html-keyboard-response","548","3256637","0.0-6.0-1.109","","<img src=""img/green-n.png"">","null","trial","null","","0.4,0.6","4:nogo_d","0",""
"null","","html-keyboard-response","549","3257642","0.0-6.0-2.109","","<div style=""font-size:60px;"">+</div>","null","","","","","","",""
"443.45500000054017","","image-keyboard-response","550","3258087","0.0-6.0-0.110","","img/pink.png","32","trial","null","false","0.2,0.8","2:nogo_b","",""
"null","","html-keyboard-response","551","3259091","0.0-6.0-1.110","","<img src=""img/pink-n.png"" border=""10"">","null","trial","null","","0.2,0.8","2:nogo_b","0",""
"null","","html-keyboard-response","552","3260094","0.0-6.0-2.110","","<div style=""font-size:60px;"">+</div>","null","","","","","","",""
"462.9300000015646","","image-keyboard-response","553","3260558","0.0-6.0-0.111","","img/purple.png","32","trial","32","true","0.8,0.2","1:go_a","",""
"null","","html-keyboard-response","554","3261575","0.0-6.0-1.111","","<img src=""img/purple-r.png"" border=""10"">","null","trial","32","","0.8,0.2","1:go_a","1",""
"null","","html-keyboard-response","555","3262578","0.0-6.0-2.111","","<div style=""font-size:60px;"">+</div>","null","","","","","","",""
"null","","image-keyboard-response","556","3264091","0.0-6.0-0.112","","img/green.png","null","trial","null","true","0.4,0.6","4:nogo_d","",""
"null","","html-keyboard-response","557","3265098","0.0-6.0-1.112","","<img src=""img/green-n.png"">","null","trial","null","","0.4,0.6","4:nogo_d","0",""
"null","","html-keyboard-response","558","3266103","0.0-6.0-2.112","","<div style=""font-size:60px;"">+</div>","null","","","","","","",""
"342.1949999993667","","image-keyboard-response","559","3266446","0.0-6.0-0.113","","img/orange.png","32","trial","32","true","0.6,0.4","3:go_c","",""
"null","","html-keyboard-response","560","3267461","0.0-6.0-1.113","","<img src=""img/orange-n.png"" border=""10"">","null","trial","32","","0.6,0.4","3:go_c","0",""
"null","","html-keyboard-response","561","3268465","0.0-6.0-2.113","","<div style=""font-size:60px;"">+</div>","null","","","","","","",""
"379.87500000046566","","image-keyboard-response","562","3268846","0.0-6.0-0.114","","img/purple.png","32","trial","32","true","0.8,0.2","1:go_a","",""
"null","","html-keyboard-response","563","3269854","0.0-6.0-1.114","","<img src=""img/purple-r.png"" border=""10"">","null","trial","32","","0.8,0.2","1:go_a","1",""
"null","","html-keyboard-response","564","3270857","0.0-6.0-2.114","","<div style=""font-size:60px;"">+</div>","null","","","","","","",""
"null","","image-keyboard-response","565","3272373","0.0-6.0-0.115","","img/pink.png","null","trial","null","true","0.2,0.8","2:nogo_b","",""
"null","","html-keyboard-response","566","3273376","0.0-6.0-1.115","","<img src=""img/pink-r.png"">","null","trial","null","","0.2,0.8","2:nogo_b","1",""
"null","","html-keyboard-response","567","3274381","0.0-6.0-2.115","","<div style=""font-size:60px;"">+</div>","null","","","","","","",""
"323.3099999995902","","image-keyboard-response","568","3274706","0.0-6.0-0.116","","img/green.png","32","trial","null","false","0.4,0.6","4:nogo_d","",""
"null","","html-keyboard-response","569","3275708","0.0-6.0-1.116","","<img src=""img/green-n.png"" border=""10"">","null","trial","null","","0.4,0.6","4:nogo_d","0",""
"null","","html-keyboard-response","570","3276708","0.0-6.0-2.116","","<div style=""font-size:60px;"">+</div>","null","","","","","","",""
"612.1299999994226","","image-keyboard-response","571","3277321","0.0-6.0-0.117","","img/purple.png","32","trial","32","true","0.8,0.2","1:go_a","",""
"null","","html-keyboard-response","572","3278330","0.0-6.0-1.117","","<img src=""img/purple-r.png"" border=""10"">","null","trial","32","","0.8,0.2","1:go_a","1",""
"null","","html-keyboard-response","573","3279333","0.0-6.0-2.117","","<div style=""font-size:60px;"">+</div>","null","","","","","","",""
"null","","image-keyboard-response","574","3280847","0.0-6.0-0.118","","img/pink.png","null","trial","null","true","0.2,0.8","2:nogo_b","",""
"null","","html-keyboard-response","575","3281852","0.0-6.0-1.118","","<img src=""img/pink-r.png"">","null","trial","null","","0.2,0.8","2:nogo_b","1",""
"null","","html-keyboard-response","576","3282856","0.0-6.0-2.118","","<div style=""font-size:60px;"">+</div>","null","","","","","","",""
"404.965000001248","","image-keyboard-response","577","3283261","0.0-6.0-0.119","","img/orange.png","32","trial","32","true","0.6,0.4","3:go_c","",""
"null","","html-keyboard-response","578","3284277","0.0-6.0-1.119","","<img src=""img/orange-n.png"" border=""10"">","null","trial","32","","0.6,0.4","3:go_c","0",""
"null","","html-keyboard-response","579","3285279","0.0-6.0-2.119","","<div style=""font-size:60px;"">+</div>","null","","","","","","",""
"250706.66999999993","","instructions","580","3535986","0.0-7.0","[{""page_index"":0,""viewing_time"":250706.10499999952}]","","","","","","","","",""
"908.2449999987148","","image-keyboard-response","581","3536897","0.0-8.0-0.0","","img/green.png","32","trial","null","false","0,1","4:nogo_d","",""
"null","","html-keyboard-response","582","3537907","0.0-8.0-1.0","","<img src=""img/green-n.png"" border=""10"">","null","trial","null","","0,1","4:nogo_d","0",""
"null","","html-keyboard-response","583","3538924","0.0-8.0-2.0","","<div style=""font-size:60px;"">+</div>","null","","","","","","",""
"336.15000000130385","","image-keyboard-response","584","3539261","0.0-8.0-0.1","","img/red.png","32","trial","32","true","1,0","3:go_c","",""
"null","","html-keyboard-response","585","3540269","0.0-8.0-1.1","","<img src=""img/red-r.png"" border=""10"">","null","trial","32","","1,0","3:go_c","1",""
"null","","html-keyboard-response","586","3541272","0.0-8.0-2.1","","<div style=""font-size:60px;"">+</div>","null","","","","","","",""
"396.0150000001304","","image-keyboard-response","587","3541670","0.0-8.0-0.2","","img/grey.png","32","trial","null","false","0.2,0.8","2:nogo_b","",""
"null","","html-keyboard-response","588","3542678","0.0-8.0-1.2","","<img src=""img/grey-n.png"" border=""10"">","null","trial","null","","0.2,0.8","2:nogo_b","0",""
"null","","html-keyboard-response","589","3543681","0.0-8.0-2.2","","<div style=""font-size:60px;"">+</div>","null","","","","","","",""
"null","","image-keyboard-response","590","3545193","0.0-8.0-0.3","","img/yellow.png","null","trial","32","false","0.8,0.2","1:go_a","",""
"null","","html-keyboard-response","591","3546198","0.0-8.0-1.3","","<img src=""img/yellow-r.png"">","null","trial","32","","0.8,0.2","1:go_a","1",""
"null","","html-keyboard-response","592","3547201","0.0-8.0-2.3","","<div style=""font-size:60px;"">+</div>","null","","","","","","",""
"284.46499999891967","","image-keyboard-response","593","3547487","0.0-8.0-0.4","","img/red.png","32","trial","32","true","1,0","3:go_c","",""
"null","","html-keyboard-response","594","3548495","0.0-8.0-1.4","","<img src=""img/red-r.png"" border=""10"">","null","trial","32","","1,0","3:go_c","1",""
"null","","html-keyboard-response","595","3549500","0.0-8.0-2.4","","<div style=""font-size:60px;"">+</div>","null","","","","","","",""
"null","","image-keyboard-response","596","3551014","0.0-8.0-0.5","","img/green.png","null","trial","null","true","0,1","4:nogo_d","",""
"null","","html-keyboard-response","597","3552017","0.0-8.0-1.5","","<img src=""img/green-r.png"">","null","trial","null","","0,1","4:nogo_d","1",""
"null","","html-keyboard-response","598","3553020","0.0-8.0-2.5","","<div style=""font-size:60px;"">+</div>","null","","","","","","",""
"1384.8950000014156","","image-keyboard-response","599","3554405","0.0-8.0-0.6","","img/grey.png","32","trial","null","false","0.2,0.8","2:nogo_b","",""
"null","","html-keyboard-response","600","3555414","0.0-8.0-1.6","","<img src=""img/grey-n.png"" border=""10"">","null","trial","null","","0.2,0.8","2:nogo_b","0",""
"null","","html-keyboard-response","601","3556420","0.0-8.0-2.6","","<div style=""font-size:60px;"">+</div>","null","","","","","","",""
"null","","image-keyboard-response","602","3557933","0.0-8.0-0.7","","img/yellow.png","null","trial","32","false","0.8,0.2","1:go_a","",""
"null","","html-keyboard-response","603","3558937","0.0-8.0-1.7","","<img src=""img/yellow-n.png"">","null","trial","32","","0.8,0.2","1:go_a","0",""
"null","","html-keyboard-response","604","3559939","0.0-8.0-2.7","","<div style=""font-size:60px;"">+</div>","null","","","","","","",""
"null","","image-keyboard-response","605","3561453","0.0-8.0-0.8","","img/red.png","null","trial","32","false","1,0","3:go_c","",""
"null","","html-keyboard-response","606","3562457","0.0-8.0-1.8","","<img src=""img/red-n.png"">","null","trial","32","","1,0","3:go_c","0",""
"null","","html-keyboard-response","607","3563461","0.0-8.0-2.8","","<div style=""font-size:60px;"">+</div>","null","","","","","","",""
"null","","image-keyboard-response","608","3564974","0.0-8.0-0.9","","img/green.png","null","trial","null","true","0,1","4:nogo_d","",""
"null","","html-keyboard-response","609","3565978","0.0-8.0-1.9","","<img src=""img/green-r.png"">","null","trial","null","","0,1","4:nogo_d","1",""
"null","","html-keyboard-response","610","3566982","0.0-8.0-2.9","","<div style=""font-size:60px;"">+</div>","null","","","","","","",""
"366.56000000052154","","image-keyboard-response","611","3567351","0.0-8.0-0.10","","img/yellow.png","32","trial","32","true","0.8,0.2","1:go_a","",""
"null","","html-keyboard-response","612","3568354","0.0-8.0-1.10","","<img src=""img/yellow-n.png"" border=""10"">","null","trial","32","","0.8,0.2","1:go_a","0",""
"null","","html-keyboard-response","613","3569358","0.0-8.0-2.10","","<div style=""font-size:60px;"">+</div>","null","","","","","","",""
"null","","image-keyboard-response","614","3570875","0.0-8.0-0.11","","img/grey.png","null","trial","null","true","0.2,0.8","2:nogo_b","",""
"null","","html-keyboard-response","615","3571880","0.0-8.0-1.11","","<img src=""img/grey-r.png"">","null","trial","null","","0.2,0.8","2:nogo_b","1",""
"null","","html-keyboard-response","616","3572884","0.0-8.0-2.11","","<div style=""font-size:60px;"">+</div>","null","","","","","","",""
"298.4400000004098","","image-keyboard-response","617","3573183","0.0-8.0-0.12","","img/red.png","32","trial","32","true","1,0","3:go_c","",""
"null","","html-keyboard-response","618","3574196","0.0-8.0-1.12","","<img src=""img/red-r.png"" border=""10"">","null","trial","32","","1,0","3:go_c","1",""
"null","","html-keyboard-response","619","3575199","0.0-8.0-2.12","","<div style=""font-size:60px;"">+</div>","null","","","","","","",""
"null","","image-keyboard-response","620","3576712","0.0-8.0-0.13","","img/green.png","null","trial","null","true","0,1","4:nogo_d","",""
"null","","html-keyboard-response","621","3577714","0.0-8.0-1.13","","<img src=""img/green-r.png"">","null","trial","null","","0,1","4:nogo_d","1",""
"null","","html-keyboard-response","622","3578718","0.0-8.0-2.13","","<div style=""font-size:60px;"">+</div>","null","","","","","","",""
"355.8049999992363","","image-keyboard-response","623","3579075","0.0-8.0-0.14","","img/yellow.png","32","trial","32","true","0.8,0.2","1:go_a","",""
"null","","html-keyboard-response","624","3580089","0.0-8.0-1.14","","<img src=""img/yellow-n.png"" border=""10"">","null","trial","32","","0.8,0.2","1:go_a","0",""
"null","","html-keyboard-response","625","3581094","0.0-8.0-2.14","","<div style=""font-size:60px;"">+</div>","null","","","","","","",""
"null","","image-keyboard-response","626","3582608","0.0-8.0-0.15","","img/grey.png","null","trial","null","true","0.2,0.8","2:nogo_b","",""
"null","","html-keyboard-response","627","3583613","0.0-8.0-1.15","","<img src=""img/grey-r.png"">","null","trial","null","","0.2,0.8","2:nogo_b","1",""
"null","","html-keyboard-response","628","3584618","0.0-8.0-2.15","","<div style=""font-size:60px;"">+</div>","null","","","","","","",""
"null","","image-keyboard-response","629","3586133","0.0-8.0-0.16","","img/grey.png","null","trial","null","true","0.2,0.8","2:nogo_b","",""
"null","","html-keyboard-response","630","3587137","0.0-8.0-1.16","","<img src=""img/grey-r.png"">","null","trial","null","","0.2,0.8","2:nogo_b","1",""
"null","","html-keyboard-response","631","3588143","0.0-8.0-2.16","","<div style=""font-size:60px;"">+</div>","null","","","","","","",""
"null","","image-keyboard-response","632","3589660","0.0-8.0-0.17","","img/yellow.png","null","trial","32","false","0.8,0.2","1:go_a","",""
"null","","html-keyboard-response","633","3590665","0.0-8.0-1.17","","<img src=""img/yellow-n.png"">","null","trial","32","","0.8,0.2","1:go_a","0",""
"null","","html-keyboard-response","634","3591668","0.0-8.0-2.17","","<div style=""font-size:60px;"">+</div>","null","","","","","","",""
"353.9249999993481","","image-keyboard-response","635","3592023","0.0-8.0-0.18","","img/red.png","32","trial","32","true","1,0","3:go_c","",""
"null","","html-keyboard-response","636","3593030","0.0-8.0-1.18","","<img src=""img/red-r.png"" border=""10"">","null","trial","32","","1,0","3:go_c","1",""
"null","","html-keyboard-response","637","3594034","0.0-8.0-2.18","","<div style=""font-size:60px;"">+</div>","null","","","","","","",""
"null","","image-keyboard-response","638","3595547","0.0-8.0-0.19","","img/green.png","null","trial","null","true","0,1","4:nogo_d","",""
"null","","html-keyboard-response","639","3596551","0.0-8.0-1.19","","<img src=""img/green-r.png"">","null","trial","null","","0,1","4:nogo_d","1",""
"null","","html-keyboard-response","640","3597558","0.0-8.0-2.19","","<div style=""font-size:60px;"">+</div>","null","","","","","","",""
"501.51000000024214","","image-keyboard-response","641","3598060","0.0-8.0-0.20","","img/yellow.png","32","trial","32","true","0.8,0.2","1:go_a","",""
"null","","html-keyboard-response","642","3599062","0.0-8.0-1.20","","<img src=""img/yellow-r.png"" border=""10"">","null","trial","32","","0.8,0.2","1:go_a","1",""
"null","","html-keyboard-response","643","3600074","0.0-8.0-2.20","","<div style=""font-size:60px;"">+</div>","null","","","","","","",""
"331.9250000002794","","image-keyboard-response","644","3600407","0.0-8.0-0.21","","img/red.png","32","trial","32","true","1,0","3:go_c","",""
"null","","html-keyboard-response","645","3601419","0.0-8.0-1.21","","<img src=""img/red-r.png"" border=""10"">","null","trial","32","","1,0","3:go_c","1",""
"null","","html-keyboard-response","646","3602422","0.0-8.0-2.21","","<div style=""font-size:60px;"">+</div>","null","","","","","","",""
"null","","image-keyboard-response","647","3603938","0.0-8.0-0.22","","img/green.png","null","trial","null","true","0,1","4:nogo_d","",""
"null","","html-keyboard-response","648","3604942","0.0-8.0-1.22","","<img src=""img/green-r.png"">","null","trial","null","","0,1","4:nogo_d","1",""
"null","","html-keyboard-response","649","3605944","0.0-8.0-2.22","","<div style=""font-size:60px;"">+</div>","null","","","","","","",""
"null","","image-keyboard-response","650","3607459","0.0-8.0-0.23","","img/grey.png","null","trial","null","true","0.2,0.8","2:nogo_b","",""
"null","","html-keyboard-response","651","3608477","0.0-8.0-1.23","","<img src=""img/grey-n.png"">","null","trial","null","","0.2,0.8","2:nogo_b","0",""
"null","","html-keyboard-response","652","3609479","0.0-8.0-2.23","","<div style=""font-size:60px;"">+</div>","null","","","","","","",""
"493.4649999993853","","image-keyboard-response","653","3609974","0.0-8.0-0.24","","img/grey.png","32","trial","null","false","0.2,0.8","2:nogo_b","",""
"null","","html-keyboard-response","654","3610979","0.0-8.0-1.24","","<img src=""img/grey-n.png"" border=""10"">","null","trial","null","","0.2,0.8","2:nogo_b","0",""
"null","","html-keyboard-response","655","3611981","0.0-8.0-2.24","","<div style=""font-size:60px;"">+</div>","null","","","","","","",""
"331.4000000008382","","image-keyboard-response","656","3612313","0.0-8.0-0.25","","img/yellow.png","32","trial","32","true","0.8,0.2","1:go_a","",""
"null","","html-keyboard-response","657","3613326","0.0-8.0-1.25","","<img src=""img/yellow-r.png"" border=""10"">","null","trial","32","","0.8,0.2","1:go_a","1",""
"null","","html-keyboard-response","658","3614332","0.0-8.0-2.25","","<div style=""font-size:60px;"">+</div>","null","","","","","","",""
"null","","image-keyboard-response","659","3615845","0.0-8.0-0.26","","img/green.png","null","trial","null","true","0,1","4:nogo_d","",""
"null","","html-keyboard-response","660","3616847","0.0-8.0-1.26","","<img src=""img/green-r.png"">","null","trial","null","","0,1","4:nogo_d","1",""
"null","","html-keyboard-response","661","3617851","0.0-8.0-2.26","","<div style=""font-size:60px;"">+</div>","null","","","","","","",""
"286.0200000014156","","image-keyboard-response","662","3618138","0.0-8.0-0.27","","img/red.png","32","trial","32","true","1,0","3:go_c","",""
"null","","html-keyboard-response","663","3619146","0.0-8.0-1.27","","<img src=""img/red-r.png"" border=""10"">","null","trial","32","","1,0","3:go_c","1",""
"null","","html-keyboard-response","664","3620148","0.0-8.0-2.27","","<div style=""font-size:60px;"">+</div>","null","","","","","","",""
"761.2800000007264","","image-keyboard-response","665","3620911","0.0-8.0-0.28","","img/yellow.png","32","trial","32","true","0.8,0.2","1:go_a","",""
"null","","html-keyboard-response","666","3621924","0.0-8.0-1.28","","<img src=""img/yellow-n.png"" border=""10"">","null","trial","32","","0.8,0.2","1:go_a","0",""
"null","","html-keyboard-response","667","3622927","0.0-8.0-2.28","","<div style=""font-size:60px;"">+</div>","null","","","","","","",""
"null","","image-keyboard-response","668","3624442","0.0-8.0-0.29","","img/green.png","null","trial","null","true","0,1","4:nogo_d","",""
"null","","html-keyboard-response","669","3625447","0.0-8.0-1.29","","<img src=""img/green-r.png"">","null","trial","null","","0,1","4:nogo_d","1",""
"null","","html-keyboard-response","670","3626451","0.0-8.0-2.29","","<div style=""font-size:60px;"">+</div>","null","","","","","","",""
"413.5200000000186","","image-keyboard-response","671","3626866","0.0-8.0-0.30","","img/red.png","32","trial","32","true","1,0","3:go_c","",""
"null","","html-keyboard-response","672","3627874","0.0-8.0-1.30","","<img src=""img/red-r.png"" border=""10"">","null","trial","32","","1,0","3:go_c","1",""
"null","","html-keyboard-response","673","3628879","0.0-8.0-2.30","","<div style=""font-size:60px;"">+</div>","null","","","","","","",""
