"rt","url","trial_type","trial_index","time_elapsed","internal_node_id","view_history","stimulus","key_press","test_part","correct_response","correct","use_rew","which_stim","reward","responses"
"5009.40000009723","consent.html","external-html","0","5137","0.0-0.0","","","","","","","","","",""
"24286.915000062436","","instructions","1","29426","0.0-1.0","[{""page_index"":0,""viewing_time"":1817.6750000566244},{""page_index"":1,""viewing_time"":10401.08500001952},{""page_index"":2,""viewing_time"":1547.8699998930097},{""page_index"":3,""viewing_time"":2498.9800001494586},{""page_index"":4,""viewing_time"":2676.3150000479072},{""page_index"":5,""viewing_time"":2786.8699999526143},{""page_index"":6,""viewing_time"":2557.2099999990314}]","","","","","","","","",""
"884.5850001089275","","image-keyboard-response","2","30312","0.0-2.0-0.0","","img/test1.PNG","32","practice","32","true","","","",""
"null","","html-keyboard-response","3","31314","0.0-2.0-1.0","","<img src=""img/test1-reward.PNG"" border=""10px; grey"">","null","","","","","","",""
"null","","html-keyboard-response","4","32320","0.0-2.0-2.0","","<div style=""font-size:60px;"">+</div>","null","","","","","","",""
"null","","image-keyboard-response","5","33825","0.0-2.0-0.1","","img/test2.PNG","null","practice","null","true","","","",""
"null","","html-keyboard-response","6","34830","0.0-2.0-1.1","","<img src=""img/test2-reward.PNG"">","null","","","","","","",""
"null","","html-keyboard-response","7","35835","0.0-2.0-2.1","","<div style=""font-size:60px;"">+</div>","null","","","","","","",""
"null","","image-keyboard-response","8","37342","0.0-2.0-0.2","","img/test3.PNG","null","practice","null","true","","","",""
"null","","html-keyboard-response","9","38347","0.0-2.0-1.2","","<img src=""img/test3-reward.PNG"">","null","","","","","","",""
"null","","html-keyboard-response","10","39351","0.0-2.0-2.2","","<div style=""font-size:60px;"">+</div>","null","","","","","","",""
"null","","image-keyboard-response","11","40856","0.0-2.0-0.3","","img/test2.PNG","null","practice","null","true","","","",""
"null","","html-keyboard-response","12","41861","0.0-2.0-1.3","","<img src=""img/test2-reward.PNG"">","null","","","","","","",""
"null","","html-keyboard-response","13","42864","0.0-2.0-2.3","","<div style=""font-size:60px;"">+</div>","null","","","","","","",""
"741.7150000110269","","image-keyboard-response","14","43607","0.0-2.0-0.4","","img/test1.PNG","32","practice","32","true","","","",""
"null","","html-keyboard-response","15","44612","0.0-2.0-1.4","","<img src=""img/test1-reward.PNG"" border=""10px; grey"">","null","","","","","","",""
"null","","html-keyboard-response","16","45616","0.0-2.0-2.4","","<div style=""font-size:60px;"">+</div>","null","","","","","","",""
"null","","image-keyboard-response","17","47120","0.0-2.0-0.5","","img/test3.PNG","null","practice","null","true","","","",""
"null","","html-keyboard-response","18","48123","0.0-2.0-1.5","","<img src=""img/test3-reward.PNG"">","null","","","","","","",""
"null","","html-keyboard-response","19","49125","0.0-2.0-2.5","","<div style=""font-size:60px;"">+</div>","null","","","","","","",""
"null","","image-keyboard-response","20","50631","0.0-2.0-0.6","","img/test2.PNG","null","practice","null","true","","","",""
"null","","html-keyboard-response","21","51632","0.0-2.0-1.6","","<img src=""img/test2-reward.PNG"">","null","","","","","","",""
"null","","html-keyboard-response","22","52635","0.0-2.0-2.6","","<div style=""font-size:60px;"">+</div>","null","","","","","","",""
"null","","image-keyboard-response","23","54139","0.0-2.0-0.7","","img/test3.PNG","null","practice","null","true","","","",""
"null","","html-keyboard-response","24","55142","0.0-2.0-1.7","","<img src=""img/test3-reward.PNG"">","null","","","","","","",""
"null","","html-keyboard-response","25","56145","0.0-2.0-2.7","","<div style=""font-size:60px;"">+</div>","null","","","","","","",""
"650.6349998526275","","image-keyboard-response","26","56797","0.0-2.0-0.8","","img/test1.PNG","32","practice","32","true","","","",""
"null","","html-keyboard-response","27","57803","0.0-2.0-1.8","","<img src=""img/test1-reward.PNG"" border=""10px; grey"">","null","","","","","","",""
"null","","html-keyboard-response","28","58807","0.0-2.0-2.8","","<div style=""font-size:60px;"">+</div>","null","","","","","","",""
"800.9349999483675","","image-keyboard-response","29","59609","0.0-2.0-0.9","","img/test1.PNG","32","practice","32","true","","","",""
"null","","html-keyboard-response","30","60614","0.0-2.0-1.9","","<img src=""img/test1-reward.PNG"" border=""10px; grey"">","null","","","","","","",""
"null","","html-keyboard-response","31","61617","0.0-2.0-2.9","","<div style=""font-size:60px;"">+</div>","null","","","","","","",""
"null","","image-keyboard-response","32","63120","0.0-2.0-0.10","","img/test2.PNG","null","practice","null","true","","","",""
"null","","html-keyboard-response","33","64123","0.0-2.0-1.10","","<img src=""img/test2-reward.PNG"">","null","","","","","","",""
"null","","html-keyboard-response","34","65126","0.0-2.0-2.10","","<div style=""font-size:60px;"">+</div>","null","","","","","","",""
"null","","image-keyboard-response","35","66630","0.0-2.0-0.11","","img/test3.PNG","null","practice","null","true","","","",""
"null","","html-keyboard-response","36","67632","0.0-2.0-1.11","","<img src=""img/test3-reward.PNG"">","null","","","","","","",""
"null","","html-keyboard-response","37","68635","0.0-2.0-2.11","","<div style=""font-size:60px;"">+</div>","null","","","","","","",""
"1631.8200000096112","","instructions","38","70267","0.0-3.0","[{""page_index"":0,""viewing_time"":1631.4600000623614}]","","","","","","","","",""
"1287.0449998881668","","image-keyboard-response","39","71556","0.0-4.0-0.0","","img/green.png","32","trial","null","false","0.2,0.8","2:nogo_b","",""
"null","","html-keyboard-response","40","72560","0.0-4.0-1.0","","<img src=""img/green-n.png"" border=""10"">","null","trial","null","","0.2,0.8","2:nogo_b","0",""
"null","","html-keyboard-response","41","73561","0.0-4.0-2.0","","<div style=""font-size:60px;"">+</div>","null","","","","","","",""
"701.799999922514","","image-keyboard-response","42","74264","0.0-4.0-0.1","","img/yellow.png","32","trial","32","true","0.8,0.2","1:go_a","",""
"null","","html-keyboard-response","43","75269","0.0-4.0-1.1","","<img src=""img/yellow-r.png"" border=""10"">","null","trial","32","","0.8,0.2","1:go_a","1",""
"null","","html-keyboard-response","44","76273","0.0-4.0-2.1","","<div style=""font-size:60px;"">+</div>","null","","","","","","",""
"718.7449999619275","","image-keyboard-response","45","76993","0.0-4.0-0.2","","img/yellow.png","32","trial","32","true","0.8,0.2","1:go_a","",""
"null","","html-keyboard-response","46","77997","0.0-4.0-1.2","","<img src=""img/yellow-n.png"" border=""10"">","null","trial","32","","0.8,0.2","1:go_a","0",""
"null","","html-keyboard-response","47","78999","0.0-4.0-2.2","","<div style=""font-size:60px;"">+</div>","null","","","","","","",""
"1113.0849998444319","","image-keyboard-response","48","80113","0.0-4.0-0.3","","img/green.png","32","trial","null","false","0.2,0.8","2:nogo_b","",""
"null","","html-keyboard-response","49","81115","0.0-4.0-1.3","","<img src=""img/green-n.png"" border=""10"">","null","trial","null","","0.2,0.8","2:nogo_b","0",""
"null","","html-keyboard-response","50","82118","0.0-4.0-2.3","","<div style=""font-size:60px;"">+</div>","null","","","","","","",""
"987.1849999763072","","image-keyboard-response","51","83106","0.0-4.0-0.4","","img/yellow.png","32","trial","32","true","0.8,0.2","1:go_a","",""
"null","","html-keyboard-response","52","84111","0.0-4.0-1.4","","<img src=""img/yellow-r.png"" border=""10"">","null","trial","32","","0.8,0.2","1:go_a","1",""
"null","","html-keyboard-response","53","85115","0.0-4.0-2.4","","<div style=""font-size:60px;"">+</div>","null","","","","","","",""
"null","","image-keyboard-response","54","86619","0.0-4.0-0.5","","img/green.png","null","trial","null","true","0.2,0.8","2:nogo_b","",""
"null","","html-keyboard-response","55","87624","0.0-4.0-1.5","","<img src=""img/green-n.png"">","null","trial","null","","0.2,0.8","2:nogo_b","0",""
"null","","html-keyboard-response","56","88630","0.0-4.0-2.5","","<div style=""font-size:60px;"">+</div>","null","","","","","","",""
"958.3199999760836","","image-keyboard-response","57","89589","0.0-4.0-0.6","","img/yellow.png","32","trial","32","true","0.8,0.2","1:go_a","",""
"null","","html-keyboard-response","58","90593","0.0-4.0-1.6","","<img src=""img/yellow-n.png"" border=""10"">","null","trial","32","","0.8,0.2","1:go_a","0",""
"null","","html-keyboard-response","59","91595","0.0-4.0-2.6","","<div style=""font-size:60px;"">+</div>","null","","","","","","",""
"null","","image-keyboard-response","60","93099","0.0-4.0-0.7","","img/green.png","null","trial","null","true","0.2,0.8","2:nogo_b","",""
"null","","html-keyboard-response","61","94104","0.0-4.0-1.7","","<img src=""img/green-n.png"">","null","trial","null","","0.2,0.8","2:nogo_b","0",""
"null","","html-keyboard-response","62","95108","0.0-4.0-2.7","","<div style=""font-size:60px;"">+</div>","null","","","","","","",""
"667.369999922812","","image-keyboard-response","63","95777","0.0-4.0-0.8","","img/yellow.png","32","trial","32","true","0.8,0.2","1:go_a","",""
"null","","html-keyboard-response","64","96780","0.0-4.0-1.8","","<img src=""img/yellow-r.png"" border=""10"">","null","trial","32","","0.8,0.2","1:go_a","1",""
"null","","html-keyboard-response","65","97782","0.0-4.0-2.8","","<div style=""font-size:60px;"">+</div>","null","","","","","","",""
"null","","image-keyboard-response","66","99286","0.0-4.0-0.9","","img/green.png","null","trial","null","true","0.2,0.8","2:nogo_b","",""
"null","","html-keyboard-response","67","100290","0.0-4.0-1.9","","<img src=""img/green-r.png"">","null","trial","null","","0.2,0.8","2:nogo_b","1",""
"null","","html-keyboard-response","68","101294","0.0-4.0-2.9","","<div style=""font-size:60px;"">+</div>","null","","","","","","",""
"null","","image-keyboard-response","69","102795","0.0-4.0-0.10","","img/green.png","null","trial","null","true","0.2,0.8","2:nogo_b","",""
"null","","html-keyboard-response","70","103801","0.0-4.0-1.10","","<img src=""img/green-r.png"">","null","trial","null","","0.2,0.8","2:nogo_b","1",""
"null","","html-keyboard-response","71","104806","0.0-4.0-2.10","","<div style=""font-size:60px;"">+</div>","null","","","","","","",""
"736.849999986589","","image-keyboard-response","72","105544","0.0-4.0-0.11","","img/yellow.png","32","trial","32","true","0.8,0.2","1:go_a","",""
"null","","html-keyboard-response","73","106546","0.0-4.0-1.11","","<img src=""img/yellow-r.png"" border=""10"">","null","trial","32","","0.8,0.2","1:go_a","1",""
"null","","html-keyboard-response","74","107548","0.0-4.0-2.11","","<div style=""font-size:60px;"">+</div>","null","","","","","","",""
"650.4850001074374","","image-keyboard-response","75","108199","0.0-4.0-0.12","","img/green.png","32","trial","null","false","0.2,0.8","2:nogo_b","",""
"null","","html-keyboard-response","76","109201","0.0-4.0-1.12","","<img src=""img/green-r.png"" border=""10"">","null","trial","null","","0.2,0.8","2:nogo_b","1",""
"null","","html-keyboard-response","77","110202","0.0-4.0-2.12","","<div style=""font-size:60px;"">+</div>","null","","","","","","",""
"803.3250002190471","","image-keyboard-response","78","111006","0.0-4.0-0.13","","img/yellow.png","32","trial","32","true","0.8,0.2","1:go_a","",""
"null","","html-keyboard-response","79","112011","0.0-4.0-1.13","","<img src=""img/yellow-r.png"" border=""10"">","null","trial","32","","0.8,0.2","1:go_a","1",""
"null","","html-keyboard-response","80","113014","0.0-4.0-2.13","","<div style=""font-size:60px;"">+</div>","null","","","","","","",""
"853.2499999273568","","image-keyboard-response","81","113869","0.0-4.0-0.14","","img/yellow.png","32","trial","32","true","0.8,0.2","1:go_a","",""
"null","","html-keyboard-response","82","114874","0.0-4.0-1.14","","<img src=""img/yellow-n.png"" border=""10"">","null","trial","32","","0.8,0.2","1:go_a","0",""
"null","","html-keyboard-response","83","115879","0.0-4.0-2.14","","<div style=""font-size:60px;"">+</div>","null","","","","","","",""
"874.3950000498444","","image-keyboard-response","84","116754","0.0-4.0-0.15","","img/green.png","32","trial","null","false","0.2,0.8","2:nogo_b","",""
"null","","html-keyboard-response","85","117758","0.0-4.0-1.15","","<img src=""img/green-n.png"" border=""10"">","null","trial","null","","0.2,0.8","2:nogo_b","0",""
"null","","html-keyboard-response","86","118760","0.0-4.0-2.15","","<div style=""font-size:60px;"">+</div>","null","","","","","","",""
"1159.250000026077","","image-keyboard-response","87","119920","0.0-4.0-0.16","","img/yellow.png","32","trial","32","true","0.8,0.2","1:go_a","",""
"null","","html-keyboard-response","88","120924","0.0-4.0-1.16","","<img src=""img/yellow-r.png"" border=""10"">","null","trial","32","","0.8,0.2","1:go_a","1",""
"null","","html-keyboard-response","89","121926","0.0-4.0-2.16","","<div style=""font-size:60px;"">+</div>","null","","","","","","",""
"854.5900001190603","","image-keyboard-response","90","122782","0.0-4.0-0.17","","img/green.png","32","trial","null","false","0.2,0.8","2:nogo_b","",""
"null","","html-keyboard-response","91","123788","0.0-4.0-1.17","","<img src=""img/green-n.png"" border=""10"">","null","trial","null","","0.2,0.8","2:nogo_b","0",""
"null","","html-keyboard-response","92","124791","0.0-4.0-2.17","","<div style=""font-size:60px;"">+</div>","null","","","","","","",""
"null","","image-keyboard-response","93","126294","0.0-4.0-0.18","","img/yellow.png","null","trial","32","false","0.8,0.2","1:go_a","",""
"null","","html-keyboard-response","94","127298","0.0-4.0-1.18","","<img src=""img/yellow-n.png"">","null","trial","32","","0.8,0.2","1:go_a","0",""
"null","","html-keyboard-response","95","128303","0.0-4.0-2.18","","<div style=""font-size:60px;"">+</div>","null","","","","","","",""
"null","","image-keyboard-response","96","129809","0.0-4.0-0.19","","img/green.png","null","trial","null","true","0.2,0.8","2:nogo_b","",""
"null","","html-keyboard-response","97","130812","0.0-4.0-1.19","","<img src=""img/green-r.png"">","null","trial","null","","0.2,0.8","2:nogo_b","1",""
"null","","html-keyboard-response","98","131817","0.0-4.0-2.19","","<div style=""font-size:60px;"">+</div>","null","","","","","","",""
"1237.6099999528378","","image-keyboard-response","99","133055","0.0-4.0-0.20","","img/yellow.png","32","trial","32","true","0.8,0.2","1:go_a","",""
"null","","html-keyboard-response","100","134060","0.0-4.0-1.20","","<img src=""img/yellow-r.png"" border=""10"">","null","trial","32","","0.8,0.2","1:go_a","1",""
"null","","html-keyboard-response","101","135062","0.0-4.0-2.20","","<div style=""font-size:60px;"">+</div>","null","","","","","","",""
"null","","image-keyboard-response","102","136564","0.0-4.0-0.21","","img/green.png","null","trial","null","true","0.2,0.8","2:nogo_b","",""
"null","","html-keyboard-response","103","137565","0.0-4.0-1.21","","<img src=""img/green-r.png"">","null","trial","null","","0.2,0.8","2:nogo_b","1",""
"null","","html-keyboard-response","104","138566","0.0-4.0-2.21","","<div style=""font-size:60px;"">+</div>","null","","","","","","",""
"710.9699998982251","","image-keyboard-response","105","139278","0.0-4.0-0.22","","img/yellow.png","32","trial","32","true","0.8,0.2","1:go_a","",""
"null","","html-keyboard-response","106","140284","0.0-4.0-1.22","","<img src=""img/yellow-r.png"" border=""10"">","null","trial","32","","0.8,0.2","1:go_a","1",""
"null","","html-keyboard-response","107","141287","0.0-4.0-2.22","","<div style=""font-size:60px;"">+</div>","null","","","","","","",""
"1226.5749999787658","","image-keyboard-response","108","142514","0.0-4.0-0.23","","img/green.png","32","trial","null","false","0.2,0.8","2:nogo_b","",""
"null","","html-keyboard-response","109","143516","0.0-4.0-1.23","","<img src=""img/green-n.png"" border=""10"">","null","trial","null","","0.2,0.8","2:nogo_b","0",""
"null","","html-keyboard-response","110","144519","0.0-4.0-2.23","","<div style=""font-size:60px;"">+</div>","null","","","","","","",""
"null","","image-keyboard-response","111","146023","0.0-4.0-0.24","","img/green.png","null","trial","null","true","0.2,0.8","2:nogo_b","",""
"null","","html-keyboard-response","112","147028","0.0-4.0-1.24","","<img src=""img/green-r.png"">","null","trial","null","","0.2,0.8","2:nogo_b","1",""
"null","","html-keyboard-response","113","148032","0.0-4.0-2.24","","<div style=""font-size:60px;"">+</div>","null","","","","","","",""
"907.4349999427795","","image-keyboard-response","114","148941","0.0-4.0-0.25","","img/yellow.png","32","trial","32","true","0.8,0.2","1:go_a","",""
"null","","html-keyboard-response","115","149946","0.0-4.0-1.25","","<img src=""img/yellow-r.png"" border=""10"">","null","trial","32","","0.8,0.2","1:go_a","1",""
"null","","html-keyboard-response","116","150951","0.0-4.0-2.25","","<div style=""font-size:60px;"">+</div>","null","","","","","","",""
"948.2899999711663","","image-keyboard-response","117","151900","0.0-4.0-0.26","","img/yellow.png","32","trial","32","true","0.8,0.2","1:go_a","",""
"null","","html-keyboard-response","118","152904","0.0-4.0-1.26","","<img src=""img/yellow-n.png"" border=""10"">","null","trial","32","","0.8,0.2","1:go_a","0",""
"null","","html-keyboard-response","119","153908","0.0-4.0-2.26","","<div style=""font-size:60px;"">+</div>","null","","","","","","",""
"1059.0950001496822","","image-keyboard-response","120","154968","0.0-4.0-0.27","","img/green.png","32","trial","null","false","0.2,0.8","2:nogo_b","",""
"null","","html-keyboard-response","121","155969","0.0-4.0-1.27","","<img src=""img/green-n.png"" border=""10"">","null","trial","null","","0.2,0.8","2:nogo_b","0",""
"null","","html-keyboard-response","122","156971","0.0-4.0-2.27","","<div style=""font-size:60px;"">+</div>","null","","","","","","",""
"null","","image-keyboard-response","123","158477","0.0-4.0-0.28","","img/green.png","null","trial","null","true","0.2,0.8","2:nogo_b","",""
"null","","html-keyboard-response","124","159479","0.0-4.0-1.28","","<img src=""img/green-r.png"">","null","trial","null","","0.2,0.8","2:nogo_b","1",""
"null","","html-keyboard-response","125","160482","0.0-4.0-2.28","","<div style=""font-size:60px;"">+</div>","null","","","","","","",""
"846.2699998635799","","image-keyboard-response","126","161329","0.0-4.0-0.29","","img/yellow.png","32","trial","32","true","0.8,0.2","1:go_a","",""
"null","","html-keyboard-response","127","162333","0.0-4.0-1.29","","<img src=""img/yellow-r.png"" border=""10"">","null","trial","32","","0.8,0.2","1:go_a","1",""
"null","","html-keyboard-response","128","163337","0.0-4.0-2.29","","<div style=""font-size:60px;"">+</div>","null","","","","","","",""
"855.6549998465925","","image-keyboard-response","129","164193","0.0-4.0-0.30","","img/yellow.png","32","trial","32","true","0.8,0.2","1:go_a","",""
"null","","html-keyboard-response","130","165195","0.0-4.0-1.30","","<img src=""img/yellow-r.png"" border=""10"">","null","trial","32","","0.8,0.2","1:go_a","1",""
"null","","html-keyboard-response","131","166195","0.0-4.0-2.30","","<div style=""font-size:60px;"">+</div>","null","","","","","","",""
"null","","image-keyboard-response","132","167696","0.0-4.0-0.31","","img/green.png","null","trial","null","true","0.2,0.8","2:nogo_b","",""
"null","","html-keyboard-response","133","168698","0.0-4.0-1.31","","<img src=""img/green-r.png"">","null","trial","null","","0.2,0.8","2:nogo_b","1",""
"null","","html-keyboard-response","134","169698","0.0-4.0-2.31","","<div style=""font-size:60px;"">+</div>","null","","","","","","",""
"671.5850001201034","","image-keyboard-response","135","170371","0.0-4.0-0.32","","img/yellow.png","32","trial","32","true","0.8,0.2","1:go_a","",""
"null","","html-keyboard-response","136","171373","0.0-4.0-1.32","","<img src=""img/yellow-r.png"" border=""10"">","null","trial","32","","0.8,0.2","1:go_a","1",""
"null","","html-keyboard-response","137","172376","0.0-4.0-2.32","","<div style=""font-size:60px;"">+</div>","null","","","","","","",""
"null","","image-keyboard-response","138","173881","0.0-4.0-0.33","","img/green.png","null","trial","null","true","0.2,0.8","2:nogo_b","",""
"null","","html-keyboard-response","139","174887","0.0-4.0-1.33","","<img src=""img/green-r.png"">","null","trial","null","","0.2,0.8","2:nogo_b","1",""
"null","","html-keyboard-response","140","175890","0.0-4.0-2.33","","<div style=""font-size:60px;"">+</div>","null","","","","","","",""
"928.8650001399219","","image-keyboard-response","141","176820","0.0-4.0-0.34","","img/green.png","32","trial","null","false","0.2,0.8","2:nogo_b","",""
"null","","html-keyboard-response","142","177826","0.0-4.0-1.34","","<img src=""img/green-n.png"" border=""10"">","null","trial","null","","0.2,0.8","2:nogo_b","0",""
"null","","html-keyboard-response","143","178829","0.0-4.0-2.34","","<div style=""font-size:60px;"">+</div>","null","","","","","","",""
"808.7249998934567","","image-keyboard-response","144","179638","0.0-4.0-0.35","","img/yellow.png","32","trial","32","true","0.8,0.2","1:go_a","",""
"null","","html-keyboard-response","145","180643","0.0-4.0-1.35","","<img src=""img/yellow-r.png"" border=""10"">","null","trial","32","","0.8,0.2","1:go_a","1",""
"null","","html-keyboard-response","146","181645","0.0-4.0-2.35","","<div style=""font-size:60px;"">+</div>","null","","","","","","",""
"630.5350000038743","","image-keyboard-response","147","182277","0.0-4.0-0.36","","img/yellow.png","32","trial","32","true","0.8,0.2","1:go_a","",""
"null","","html-keyboard-response","148","183282","0.0-4.0-1.36","","<img src=""img/yellow-n.png"" border=""10"">","null","trial","32","","0.8,0.2","1:go_a","0",""
"null","","html-keyboard-response","149","184285","0.0-4.0-2.36","","<div style=""font-size:60px;"">+</div>","null","","","","","","",""
"null","","image-keyboard-response","150","185789","0.0-4.0-0.37","","img/green.png","null","trial","null","true","0.2,0.8","2:nogo_b","",""
"null","","html-keyboard-response","151","186793","0.0-4.0-1.37","","<img src=""img/green-r.png"">","null","trial","null","","0.2,0.8","2:nogo_b","1",""
"null","","html-keyboard-response","152","187794","0.0-4.0-2.37","","<div style=""font-size:60px;"">+</div>","null","","","","","","",""
"864.8300000932068","","image-keyboard-response","153","188660","0.0-4.0-0.38","","img/green.png","32","trial","null","false","0.2,0.8","2:nogo_b","",""
"null","","html-keyboard-response","154","189663","0.0-4.0-1.38","","<img src=""img/green-n.png"" border=""10"">","null","trial","null","","0.2,0.8","2:nogo_b","0",""
"null","","html-keyboard-response","155","190669","0.0-4.0-2.38","","<div style=""font-size:60px;"">+</div>","null","","","","","","",""
"797.6849998813123","","image-keyboard-response","156","191468","0.0-4.0-0.39","","img/yellow.png","32","trial","32","true","0.8,0.2","1:go_a","",""
"null","","html-keyboard-response","157","192472","0.0-4.0-1.39","","<img src=""img/yellow-r.png"" border=""10"">","null","trial","32","","0.8,0.2","1:go_a","1",""
"null","","html-keyboard-response","158","193476","0.0-4.0-2.39","","<div style=""font-size:60px;"">+</div>","null","","","","","","",""
"787.2249998617917","","image-keyboard-response","159","194264","0.0-4.0-0.40","","img/yellow.png","32","trial","32","true","0.8,0.2","1:go_a","",""
"null","","html-keyboard-response","160","195267","0.0-4.0-1.40","","<img src=""img/yellow-n.png"" border=""10"">","null","trial","32","","0.8,0.2","1:go_a","0",""
"null","","html-keyboard-response","161","196270","0.0-4.0-2.40","","<div style=""font-size:60px;"">+</div>","null","","","","","","",""
"null","","image-keyboard-response","162","197773","0.0-4.0-0.41","","img/green.png","null","trial","null","true","0.2,0.8","2:nogo_b","",""
"null","","html-keyboard-response","163","198776","0.0-4.0-1.41","","<img src=""img/green-r.png"">","null","trial","null","","0.2,0.8","2:nogo_b","1",""
"null","","html-keyboard-response","164","199780","0.0-4.0-2.41","","<div style=""font-size:60px;"">+</div>","null","","","","","","",""
"998.7849998287857","","image-keyboard-response","165","200779","0.0-4.0-0.42","","img/yellow.png","32","trial","32","true","0.8,0.2","1:go_a","",""
"null","","html-keyboard-response","166","201784","0.0-4.0-1.42","","<img src=""img/yellow-r.png"" border=""10"">","null","trial","32","","0.8,0.2","1:go_a","1",""
"null","","html-keyboard-response","167","202790","0.0-4.0-2.42","","<div style=""font-size:60px;"">+</div>","null","","","","","","",""
"863.7400001753122","","image-keyboard-response","168","203654","0.0-4.0-0.43","","img/green.png","32","trial","null","false","0.2,0.8","2:nogo_b","",""
"null","","html-keyboard-response","169","204659","0.0-4.0-1.43","","<img src=""img/green-n.png"" border=""10"">","null","trial","null","","0.2,0.8","2:nogo_b","0",""
"null","","html-keyboard-response","170","205662","0.0-4.0-2.43","","<div style=""font-size:60px;"">+</div>","null","","","","","","",""
"1016.4799999911338","","image-keyboard-response","171","206679","0.0-4.0-0.44","","img/green.png","32","trial","null","false","0.2,0.8","2:nogo_b","",""
"null","","html-keyboard-response","172","207683","0.0-4.0-1.44","","<img src=""img/green-n.png"" border=""10"">","null","trial","null","","0.2,0.8","2:nogo_b","0",""
"null","","html-keyboard-response","173","208685","0.0-4.0-2.44","","<div style=""font-size:60px;"">+</div>","null","","","","","","",""
"921.1249998770654","","image-keyboard-response","174","209607","0.0-4.0-0.45","","img/yellow.png","32","trial","32","true","0.8,0.2","1:go_a","",""
"null","","html-keyboard-response","175","210611","0.0-4.0-1.45","","<img src=""img/yellow-r.png"" border=""10"">","null","trial","32","","0.8,0.2","1:go_a","1",""
"null","","html-keyboard-response","176","211613","0.0-4.0-2.45","","<div style=""font-size:60px;"">+</div>","null","","","","","","",""
"937.3149999883026","","image-keyboard-response","177","212552","0.0-4.0-0.46","","img/yellow.png","32","trial","32","true","0.8,0.2","1:go_a","",""
"null","","html-keyboard-response","178","213555","0.0-4.0-1.46","","<img src=""img/yellow-r.png"" border=""10"">","null","trial","32","","0.8,0.2","1:go_a","1",""
"null","","html-keyboard-response","179","214559","0.0-4.0-2.46","","<div style=""font-size:60px;"">+</div>","null","","","","","","",""
"null","","image-keyboard-response","180","216062","0.0-4.0-0.47","","img/green.png","null","trial","null","true","0.2,0.8","2:nogo_b","",""
"null","","html-keyboard-response","181","217067","0.0-4.0-1.47","","<img src=""img/green-r.png"">","null","trial","null","","0.2,0.8","2:nogo_b","1",""
"null","","html-keyboard-response","182","218072","0.0-4.0-2.47","","<div style=""font-size:60px;"">+</div>","null","","","","","","",""
"810.9150000382215","","image-keyboard-response","183","218883","0.0-4.0-0.48","","img/green.png","32","trial","null","false","0.2,0.8","2:nogo_b","",""
"null","","html-keyboard-response","184","219886","0.0-4.0-1.48","","<img src=""img/green-r.png"" border=""10"">","null","trial","null","","0.2,0.8","2:nogo_b","1",""
"null","","html-keyboard-response","185","220889","0.0-4.0-2.48","","<div style=""font-size:60px;"">+</div>","null","","","","","","",""
"892.1799999661744","","image-keyboard-response","186","221782","0.0-4.0-0.49","","img/yellow.png","32","trial","32","true","0.8,0.2","1:go_a","",""
"null","","html-keyboard-response","187","222787","0.0-4.0-1.49","","<img src=""img/yellow-r.png"" border=""10"">","null","trial","32","","0.8,0.2","1:go_a","1",""
"null","","html-keyboard-response","188","223789","0.0-4.0-2.49","","<div style=""font-size:60px;"">+</div>","null","","","","","","",""
"755.9050000272691","","image-keyboard-response","189","224546","0.0-4.0-0.50","","img/yellow.png","32","trial","32","true","0.8,0.2","1:go_a","",""
"null","","html-keyboard-response","190","225549","0.0-4.0-1.50","","<img src=""img/yellow-r.png"" border=""10"">","null","trial","32","","0.8,0.2","1:go_a","1",""
"null","","html-keyboard-response","191","226553","0.0-4.0-2.50","","<div style=""font-size:60px;"">+</div>","null","","","","","","",""
"null","","image-keyboard-response","192","228059","0.0-4.0-0.51","","img/green.png","null","trial","null","true","0.2,0.8","2:nogo_b","",""
"null","","html-keyboard-response","193","229064","0.0-4.0-1.51","","<img src=""img/green-n.png"">","null","trial","null","","0.2,0.8","2:nogo_b","0",""
"null","","html-keyboard-response","194","230069","0.0-4.0-2.51","","<div style=""font-size:60px;"">+</div>","null","","","","","","",""
"865.1099998969585","","image-keyboard-response","195","230935","0.0-4.0-0.52","","img/yellow.png","32","trial","32","true","0.8,0.2","1:go_a","",""
"null","","html-keyboard-response","196","231939","0.0-4.0-1.52","","<img src=""img/yellow-r.png"" border=""10"">","null","trial","32","","0.8,0.2","1:go_a","1",""
"null","","html-keyboard-response","197","232942","0.0-4.0-2.52","","<div style=""font-size:60px;"">+</div>","null","","","","","","",""
"1066.8349999468774","","image-keyboard-response","198","234010","0.0-4.0-0.53","","img/green.png","32","trial","null","false","0.2,0.8","2:nogo_b","",""
"null","","html-keyboard-response","199","235014","0.0-4.0-1.53","","<img src=""img/green-r.png"" border=""10"">","null","trial","null","","0.2,0.8","2:nogo_b","1",""
"null","","html-keyboard-response","200","236019","0.0-4.0-2.53","","<div style=""font-size:60px;"">+</div>","null","","","","","","",""
"736.3050000276417","","image-keyboard-response","201","236757","0.0-4.0-0.54","","img/yellow.png","32","trial","32","true","0.8,0.2","1:go_a","",""
"null","","html-keyboard-response","202","237763","0.0-4.0-1.54","","<img src=""img/yellow-n.png"" border=""10"">","null","trial","32","","0.8,0.2","1:go_a","0",""
"null","","html-keyboard-response","203","238764","0.0-4.0-2.54","","<div style=""font-size:60px;"">+</div>","null","","","","","","",""
"null","","image-keyboard-response","204","240267","0.0-4.0-0.55","","img/green.png","null","trial","null","true","0.2,0.8","2:nogo_b","",""
"null","","html-keyboard-response","205","241273","0.0-4.0-1.55","","<img src=""img/green-n.png"">","null","trial","null","","0.2,0.8","2:nogo_b","0",""
"null","","html-keyboard-response","206","242277","0.0-4.0-2.55","","<div style=""font-size:60px;"">+</div>","null","","","","","","",""
"756.7949998192489","","image-keyboard-response","207","243035","0.0-4.0-0.56","","img/green.png","32","trial","null","false","0.2,0.8","2:nogo_b","",""
"null","","html-keyboard-response","208","244041","0.0-4.0-1.56","","<img src=""img/green-n.png"" border=""10"">","null","trial","null","","0.2,0.8","2:nogo_b","0",""
"null","","html-keyboard-response","209","245045","0.0-4.0-2.56","","<div style=""font-size:60px;"">+</div>","null","","","","","","",""
"864.2400000244379","","image-keyboard-response","210","245910","0.0-4.0-0.57","","img/yellow.png","32","trial","32","true","0.8,0.2","1:go_a","",""
"null","","html-keyboard-response","211","246916","0.0-4.0-1.57","","<img src=""img/yellow-r.png"" border=""10"">","null","trial","32","","0.8,0.2","1:go_a","1",""
"null","","html-keyboard-response","212","247918","0.0-4.0-2.57","","<div style=""font-size:60px;"">+</div>","null","","","","","","",""
"896.3999999687076","","image-keyboard-response","213","248815","0.0-4.0-0.58","","img/yellow.png","32","trial","32","true","0.8,0.2","1:go_a","",""
"null","","html-keyboard-response","214","249820","0.0-4.0-1.58","","<img src=""img/yellow-n.png"" border=""10"">","null","trial","32","","0.8,0.2","1:go_a","0",""
"null","","html-keyboard-response","215","250825","0.0-4.0-2.58","","<div style=""font-size:60px;"">+</div>","null","","","","","","",""
"1445.9949999582022","","image-keyboard-response","216","252272","0.0-4.0-0.59","","img/green.png","32","trial","null","false","0.2,0.8","2:nogo_b","",""
"null","","html-keyboard-response","217","253273","0.0-4.0-1.59","","<img src=""img/green-n.png"" border=""10"">","null","trial","null","","0.2,0.8","2:nogo_b","0",""
"null","","html-keyboard-response","218","254276","0.0-4.0-2.59","","<div style=""font-size:60px;"">+</div>","null","","","","","","",""
"1844.5199998095632","","instructions","219","256121","0.0-5.0","[{""page_index"":0,""viewing_time"":1844.1899998579174}]","","","","","","","","",""
"1285.609999904409","","image-keyboard-response","220","257408","0.0-6.0-0.0","","img/purple.png","32","trial","32","true","1,0","3:go_c","",""
"null","","html-keyboard-response","221","258411","0.0-6.0-1.0","","<img src=""img/purple-r.png"" border=""10"">","null","trial","32","","1,0","3:go_c","1",""
"null","","html-keyboard-response","222","259412","0.0-6.0-2.0","","<div style=""font-size:60px;"">+</div>","null","","","","","","",""
"751.7000001389533","","image-keyboard-response","223","260165","0.0-6.0-0.1","","img/yellow.png","32","trial","32","true","0.8,0.2","1:go_a","",""
"null","","html-keyboard-response","224","261166","0.0-6.0-1.1","","<img src=""img/yellow-r.png"" border=""10"">","null","trial","32","","0.8,0.2","1:go_a","1",""
"null","","html-keyboard-response","225","262167","0.0-6.0-2.1","","<div style=""font-size:60px;"">+</div>","null","","","","","","",""
"729.7199999447912","","image-keyboard-response","226","262898","0.0-6.0-0.2","","img/blue.png","32","trial","null","false","0.2,0.8","2:nogo_b","",""
"null","","html-keyboard-response","227","263901","0.0-6.0-1.2","","<img src=""img/blue-n.png"" border=""10"">","null","trial","null","","0.2,0.8","2:nogo_b","0",""
"null","","html-keyboard-response","228","264905","0.0-6.0-2.2","","<div style=""font-size:60px;"">+</div>","null","","","","","","",""
"762.929999968037","","image-keyboard-response","229","265669","0.0-6.0-0.3","","img/pink.png","32","trial","null","false","0,1","4:nogo_d","",""
"null","","html-keyboard-response","230","266674","0.0-6.0-1.3","","<img src=""img/pink-n.png"" border=""10"">","null","trial","null","","0,1","4:nogo_d","0",""
"null","","html-keyboard-response","231","267675","0.0-6.0-2.3","","<div style=""font-size:60px;"">+</div>","null","","","","","","",""
"754.6500000171363","","image-keyboard-response","232","268431","0.0-6.0-0.4","","img/purple.png","32","trial","32","true","1,0","3:go_c","",""
"null","","html-keyboard-response","233","269435","0.0-6.0-1.4","","<img src=""img/purple-r.png"" border=""10"">","null","trial","32","","1,0","3:go_c","1",""
"null","","html-keyboard-response","234","270436","0.0-6.0-2.4","","<div style=""font-size:60px;"">+</div>","null","","","","","","",""
"null","","image-keyboard-response","235","271939","0.0-6.0-0.5","","img/blue.png","null","trial","null","true","0.2,0.8","2:nogo_b","",""
"null","","html-keyboard-response","236","272945","0.0-6.0-1.5","","<img src=""img/blue-r.png"">","null","trial","null","","0.2,0.8","2:nogo_b","1",""
"null","","html-keyboard-response","237","273948","0.0-6.0-2.5","","<div style=""font-size:60px;"">+</div>","null","","","","","","",""
"800.0000000465661","","image-keyboard-response","238","274749","0.0-6.0-0.6","","img/yellow.png","32","trial","32","true","0.8,0.2","1:go_a","",""
"null","","html-keyboard-response","239","275753","0.0-6.0-1.6","","<img src=""img/yellow-r.png"" border=""10"">","null","trial","32","","0.8,0.2","1:go_a","1",""
"null","","html-keyboard-response","240","276756","0.0-6.0-2.6","","<div style=""font-size:60px;"">+</div>","null","","","","","","",""
"null","","image-keyboard-response","241","278261","0.0-6.0-0.7","","img/pink.png","null","trial","null","true","0,1","4:nogo_d","",""
"null","","html-keyboard-response","242","279263","0.0-6.0-1.7","","<img src=""img/pink-r.png"">","null","trial","null","","0,1","4:nogo_d","1",""
"null","","html-keyboard-response","243","280269","0.0-6.0-2.7","","<div style=""font-size:60px;"">+</div>","null","","","","","","",""
"606.7550000734627","","image-keyboard-response","244","280877","0.0-6.0-0.8","","img/purple.png","32","trial","32","true","1,0","3:go_c","",""
"null","","html-keyboard-response","245","281882","0.0-6.0-1.8","","<img src=""img/purple-r.png"" border=""10"">","null","trial","32","","1,0","3:go_c","1",""
"null","","html-keyboard-response","246","282884","0.0-6.0-2.8","","<div style=""font-size:60px;"">+</div>","null","","","","","","",""
"null","","image-keyboard-response","247","284388","0.0-6.0-0.9","","img/blue.png","null","trial","null","true","0.2,0.8","2:nogo_b","",""
"null","","html-keyboard-response","248","285394","0.0-6.0-1.9","","<img src=""img/blue-r.png"">","null","trial","null","","0.2,0.8","2:nogo_b","1",""
"null","","html-keyboard-response","249","286397","0.0-6.0-2.9","","<div style=""font-size:60px;"">+</div>","null","","","","","","",""
"666.5199999697506","","image-keyboard-response","250","287065","0.0-6.0-0.10","","img/pink.png","32","trial","null","false","0,1","4:nogo_d","",""
"null","","html-keyboard-response","251","288068","0.0-6.0-1.10","","<img src=""img/pink-n.png"" border=""10"">","null","trial","null","","0,1","4:nogo_d","0",""
"null","","html-keyboard-response","252","289071","0.0-6.0-2.10","","<div style=""font-size:60px;"">+</div>","null","","","","","","",""
"981.8799998611212","","image-keyboard-response","253","290054","0.0-6.0-0.11","","img/yellow.png","32","trial","32","true","0.8,0.2","1:go_a","",""
"null","","html-keyboard-response","254","291060","0.0-6.0-1.11","","<img src=""img/yellow-r.png"" border=""10"">","null","trial","32","","0.8,0.2","1:go_a","1",""
"null","","html-keyboard-response","255","292063","0.0-6.0-2.11","","<div style=""font-size:60px;"">+</div>","null","","","","","","",""
"756.6249999217689","","image-keyboard-response","256","292821","0.0-6.0-0.12","","img/yellow.png","32","trial","32","true","0.8,0.2","1:go_a","",""
"null","","html-keyboard-response","257","293823","0.0-6.0-1.12","","<img src=""img/yellow-r.png"" border=""10"">","null","trial","32","","0.8,0.2","1:go_a","1",""
"null","","html-keyboard-response","258","294827","0.0-6.0-2.12","","<div style=""font-size:60px;"">+</div>","null","","","","","","",""
"null","","image-keyboard-response","259","296329","0.0-6.0-0.13","","img/pink.png","null","trial","null","true","0,1","4:nogo_d","",""
"null","","html-keyboard-response","260","297335","0.0-6.0-1.13","","<img src=""img/pink-r.png"">","null","trial","null","","0,1","4:nogo_d","1",""
"null","","html-keyboard-response","261","298341","0.0-6.0-2.13","","<div style=""font-size:60px;"">+</div>","null","","","","","","",""
"null","","image-keyboard-response","262","299846","0.0-6.0-0.14","","img/blue.png","null","trial","null","true","0.2,0.8","2:nogo_b","",""
"null","","html-keyboard-response","263","300853","0.0-6.0-1.14","","<img src=""img/blue-r.png"">","null","trial","null","","0.2,0.8","2:nogo_b","1",""
"null","","html-keyboard-response","264","301857","0.0-6.0-2.14","","<div style=""font-size:60px;"">+</div>","null","","","","","","",""
"785.2449999190867","","image-keyboard-response","265","302643","0.0-6.0-0.15","","img/purple.png","32","trial","32","true","1,0","3:go_c","",""
"null","","html-keyboard-response","266","303647","0.0-6.0-1.15","","<img src=""img/purple-r.png"" border=""10"">","null","trial","32","","1,0","3:go_c","1",""
"null","","html-keyboard-response","267","304649","0.0-6.0-2.15","","<div style=""font-size:60px;"">+</div>","null","","","","","","",""
"936.7249999195337","","image-keyboard-response","268","305587","0.0-6.0-0.16","","img/yellow.png","32","trial","32","true","0.8,0.2","1:go_a","",""
"null","","html-keyboard-response","269","306592","0.0-6.0-1.16","","<img src=""img/yellow-n.png"" border=""10"">","null","trial","32","","0.8,0.2","1:go_a","0",""
"null","","html-keyboard-response","270","307594","0.0-6.0-2.16","","<div style=""font-size:60px;"">+</div>","null","","","","","","",""
"null","","image-keyboard-response","271","309099","0.0-6.0-0.17","","img/blue.png","null","trial","null","true","0.2,0.8","2:nogo_b","",""
"null","","html-keyboard-response","272","310102","0.0-6.0-1.17","","<img src=""img/blue-n.png"">","null","trial","null","","0.2,0.8","2:nogo_b","0",""
"null","","html-keyboard-response","273","311103","0.0-6.0-2.17","","<div style=""font-size:60px;"">+</div>","null","","","","","","",""
"907.7100001741201","","image-keyboard-response","274","312012","0.0-6.0-0.18","","img/purple.png","32","trial","32","true","1,0","3:go_c","",""
"null","","html-keyboard-response","275","313018","0.0-6.0-1.18","","<img src=""img/purple-r.png"" border=""10"">","null","trial","32","","1,0","3:go_c","1",""
"null","","html-keyboard-response","276","314021","0.0-6.0-2.18","","<div style=""font-size:60px;"">+</div>","null","","","","","","",""
"null","","image-keyboard-response","277","315524","0.0-6.0-0.19","","img/pink.png","null","trial","null","true","0,1","4:nogo_d","",""
"null","","html-keyboard-response","278","316528","0.0-6.0-1.19","","<img src=""img/pink-r.png"">","null","trial","null","","0,1","4:nogo_d","1",""
"null","","html-keyboard-response","279","317530","0.0-6.0-2.19","","<div style=""font-size:60px;"">+</div>","null","","","","","","",""
"618.7200001440942","","image-keyboard-response","280","318150","0.0-6.0-0.20","","img/purple.png","32","trial","32","true","1,0","3:go_c","",""
"null","","html-keyboard-response","281","319151","0.0-6.0-1.20","","<img src=""img/purple-r.png"" border=""10"">","null","trial","32","","1,0","3:go_c","1",""
"null","","html-keyboard-response","282","320154","0.0-6.0-2.20","","<div style=""font-size:60px;"">+</div>","null","","","","","","",""
"null","","image-keyboard-response","283","321658","0.0-6.0-0.21","","img/blue.png","null","trial","null","true","0.2,0.8","2:nogo_b","",""
"null","","html-keyboard-response","284","322661","0.0-6.0-1.21","","<img src=""img/blue-r.png"">","null","trial","null","","0.2,0.8","2:nogo_b","1",""
"null","","html-keyboard-response","285","323664","0.0-6.0-2.21","","<div style=""font-size:60px;"">+</div>","null","","","","","","",""
"null","","image-keyboard-response","286","325165","0.0-6.0-0.22","","img/pink.png","null","trial","null","true","0,1","4:nogo_d","",""
"null","","html-keyboard-response","287","326166","0.0-6.0-1.22","","<img src=""img/pink-r.png"">","null","trial","null","","0,1","4:nogo_d","1",""
"null","","html-keyboard-response","288","327167","0.0-6.0-2.22","","<div style=""font-size:60px;"">+</div>","null","","","","","","",""
"847.8350001387298","","image-keyboard-response","289","328016","0.0-6.0-0.23","","img/yellow.png","32","trial","32","true","0.8,0.2","1:go_a","",""
"null","","html-keyboard-response","290","329022","0.0-6.0-1.23","","<img src=""img/yellow-r.png"" border=""10"">","null","trial","32","","0.8,0.2","1:go_a","1",""
"null","","html-keyboard-response","291","330026","0.0-6.0-2.23","","<div style=""font-size:60px;"">+</div>","null","","","","","","",""
"1050.4999998956919","","image-keyboard-response","292","331078","0.0-6.0-0.24","","img/purple.png","32","trial","32","true","1,0","3:go_c","",""
"null","","html-keyboard-response","293","332080","0.0-6.0-1.24","","<img src=""img/purple-r.png"" border=""10"">","null","trial","32","","1,0","3:go_c","1",""
"null","","html-keyboard-response","294","333083","0.0-6.0-2.24","","<div style=""font-size:60px;"">+</div>","null","","","","","","",""
"null","","image-keyboard-response","295","334586","0.0-6.0-0.25","","img/pink.png","null","trial","null","true","0,1","4:nogo_d","",""
"null","","html-keyboard-response","296","335588","0.0-6.0-1.25","","<img src=""img/pink-r.png"">","null","trial","null","","0,1","4:nogo_d","1",""
"null","","html-keyboard-response","297","336592","0.0-6.0-2.25","","<div style=""font-size:60px;"">+</div>","null","","","","","","",""
"1397.2250001970679","","image-keyboard-response","298","337990","0.0-6.0-0.26","","img/yellow.png","32","trial","32","true","0.8,0.2","1:go_a","",""
"null","","html-keyboard-response","299","338995","0.0-6.0-1.26","","<img src=""img/yellow-n.png"" border=""10"">","null","trial","32","","0.8,0.2","1:go_a","0",""
"null","","html-keyboard-response","300","339998","0.0-6.0-2.26","","<div style=""font-size:60px;"">+</div>","null","","","","","","",""
"null","","image-keyboard-response","301","341503","0.0-6.0-0.27","","img/blue.png","null","trial","null","true","0.2,0.8","2:nogo_b","",""
"null","","html-keyboard-response","302","342505","0.0-6.0-1.27","","<img src=""img/blue-r.png"">","null","trial","null","","0.2,0.8","2:nogo_b","1",""
"null","","html-keyboard-response","303","343506","0.0-6.0-2.27","","<div style=""font-size:60px;"">+</div>","null","","","","","","",""
"790.0100001133978","","image-keyboard-response","304","344297","0.0-6.0-0.28","","img/purple.png","32","trial","32","true","1,0","3:go_c","",""
"null","","html-keyboard-response","305","345303","0.0-6.0-1.28","","<img src=""img/purple-r.png"" border=""10"">","null","trial","32","","1,0","3:go_c","1",""
"null","","html-keyboard-response","306","346308","0.0-6.0-2.28","","<div style=""font-size:60px;"">+</div>","null","","","","","","",""
"null","","image-keyboard-response","307","347813","0.0-6.0-0.29","","img/pink.png","null","trial","null","true","0,1","4:nogo_d","",""
"null","","html-keyboard-response","308","348816","0.0-6.0-1.29","","<img src=""img/pink-r.png"">","null","trial","null","","0,1","4:nogo_d","1",""
"null","","html-keyboard-response","309","349819","0.0-6.0-2.29","","<div style=""font-size:60px;"">+</div>","null","","","","","","",""
"860.9599999617785","","image-keyboard-response","310","350681","0.0-6.0-0.30","","img/yellow.png","32","trial","32","true","0.8,0.2","1:go_a","",""
"null","","html-keyboard-response","311","351685","0.0-6.0-1.30","","<img src=""img/yellow-r.png"" border=""10"">","null","trial","32","","0.8,0.2","1:go_a","1",""
"null","","html-keyboard-response","312","352688","0.0-6.0-2.30","","<div style=""font-size:60px;"">+</div>","null","","","","","","",""
"null","","image-keyboard-response","313","354192","0.0-6.0-0.31","","img/blue.png","null","trial","null","true","0.2,0.8","2:nogo_b","",""
"null","","html-keyboard-response","314","355195","0.0-6.0-1.31","","<img src=""img/blue-r.png"">","null","trial","null","","0.2,0.8","2:nogo_b","1",""
"null","","html-keyboard-response","315","356197","0.0-6.0-2.31","","<div style=""font-size:60px;"">+</div>","null","","","","","","",""
"802.4450000375509","","image-keyboard-response","316","357001","0.0-6.0-0.32","","img/purple.png","32","trial","32","true","1,0","3:go_c","",""
"null","","html-keyboard-response","317","358005","0.0-6.0-1.32","","<img src=""img/purple-r.png"" border=""10"">","null","trial","32","","1,0","3:go_c","1",""
"null","","html-keyboard-response","318","359010","0.0-6.0-2.32","","<div style=""font-size:60px;"">+</div>","null","","","","","","",""
"null","","image-keyboard-response","319","360512","0.0-6.0-0.33","","img/blue.png","null","trial","null","true","0.2,0.8","2:nogo_b","",""
"null","","html-keyboard-response","320","361514","0.0-6.0-1.33","","<img src=""img/blue-r.png"">","null","trial","null","","0.2,0.8","2:nogo_b","1",""
"null","","html-keyboard-response","321","362516","0.0-6.0-2.33","","<div style=""font-size:60px;"">+</div>","null","","","","","","",""
"867.1649999450892","","image-keyboard-response","322","363384","0.0-6.0-0.34","","img/yellow.png","32","trial","32","true","0.8,0.2","1:go_a","",""
"null","","html-keyboard-response","323","364390","0.0-6.0-1.34","","<img src=""img/yellow-r.png"" border=""10"">","null","trial","32","","0.8,0.2","1:go_a","1",""
"null","","html-keyboard-response","324","365395","0.0-6.0-2.34","","<div style=""font-size:60px;"">+</div>","null","","","","","","",""
"null","","image-keyboard-response","325","366900","0.0-6.0-0.35","","img/pink.png","null","trial","null","true","0,1","4:nogo_d","",""
"null","","html-keyboard-response","326","367904","0.0-6.0-1.35","","<img src=""img/pink-r.png"">","null","trial","null","","0,1","4:nogo_d","1",""
"null","","html-keyboard-response","327","368907","0.0-6.0-2.35","","<div style=""font-size:60px;"">+</div>","null","","","","","","",""
"null","","image-keyboard-response","328","370411","0.0-6.0-0.36","","img/pink.png","null","trial","null","true","0,1","4:nogo_d","",""
"null","","html-keyboard-response","329","371413","0.0-6.0-1.36","","<img src=""img/pink-r.png"">","null","trial","null","","0,1","4:nogo_d","1",""
"null","","html-keyboard-response","330","372417","0.0-6.0-2.36","","<div style=""font-size:60px;"">+</div>","null","","","","","","",""
"928.7100001238286","","image-keyboard-response","331","373346","0.0-6.0-0.37","","img/yellow.png","32","trial","32","true","0.8,0.2","1:go_a","",""
"null","","html-keyboard-response","332","374352","0.0-6.0-1.37","","<img src=""img/yellow-r.png"" border=""10"">","null","trial","32","","0.8,0.2","1:go_a","1",""
"null","","html-keyboard-response","333","375357","0.0-6.0-2.37","","<div style=""font-size:60px;"">+</div>","null","","","","","","",""
"null","","image-keyboard-response","334","376862","0.0-6.0-0.38","","img/blue.png","null","trial","null","true","0.2,0.8","2:nogo_b","",""
"null","","html-keyboard-response","335","377867","0.0-6.0-1.38","","<img src=""img/blue-r.png"">","null","trial","null","","0.2,0.8","2:nogo_b","1",""
"null","","html-keyboard-response","336","378872","0.0-6.0-2.38","","<div style=""font-size:60px;"">+</div>","null","","","","","","",""
"667.8050002083182","","image-keyboard-response","337","379541","0.0-6.0-0.39","","img/purple.png","32","trial","32","true","1,0","3:go_c","",""
"null","","html-keyboard-response","338","380545","0.0-6.0-1.39","","<img src=""img/purple-r.png"" border=""10"">","null","trial","32","","1,0","3:go_c","1",""
"null","","html-keyboard-response","339","381547","0.0-6.0-2.39","","<div style=""font-size:60px;"">+</div>","null","","","","","","",""
"773.2700000051409","","image-keyboard-response","340","382322","0.0-6.0-0.40","","img/yellow.png","32","trial","32","true","0.8,0.2","1:go_a","",""
"null","","html-keyboard-response","341","383324","0.0-6.0-1.40","","<img src=""img/yellow-n.png"" border=""10"">","null","trial","32","","0.8,0.2","1:go_a","0",""
"null","","html-keyboard-response","342","384330","0.0-6.0-2.40","","<div style=""font-size:60px;"">+</div>","null","","","","","","",""
"null","","image-keyboard-response","343","385835","0.0-6.0-0.41","","img/blue.png","null","trial","null","true","0.2,0.8","2:nogo_b","",""
"null","","html-keyboard-response","344","386838","0.0-6.0-1.41","","<img src=""img/blue-r.png"">","null","trial","null","","0.2,0.8","2:nogo_b","1",""
"null","","html-keyboard-response","345","387841","0.0-6.0-2.41","","<div style=""font-size:60px;"">+</div>","null","","","","","","",""
"null","","image-keyboard-response","346","389390","0.0-6.0-0.42","","img/pink.png","null","trial","null","true","0,1","4:nogo_d","",""
"null","","html-keyboard-response","347","390554","0.0-6.0-1.42","","<img src=""img/pink-r.png"">","null","trial","null","","0,1","4:nogo_d","1",""
"null","","html-keyboard-response","348","392499","0.0-6.0-2.42","","<div style=""font-size:60px;"">+</div>","null","","","","","","",""
"null","","image-keyboard-response","349","394470","0.0-6.0-0.43","","img/purple.png","null","trial","32","false","1,0","3:go_c","",""
"null","","html-keyboard-response","350","396822","0.0-6.0-1.43","","<img src=""img/purple-n.png"">","null","trial","32","","1,0","3:go_c","0",""
"null","","html-keyboard-response","351","398636","0.0-6.0-2.43","","<div style=""font-size:60px;"">+</div>","null","","","","","","",""
"null","","image-keyboard-response","352","400766","0.0-6.0-0.44","","img/purple.png","null","trial","32","false","1,0","3:go_c","",""
"null","","html-keyboard-response","353","402651","0.0-6.0-1.44","","<img src=""img/purple-n.png"">","null","trial","32","","1,0","3:go_c","0",""
"null","","html-keyboard-response","354","404725","0.0-6.0-2.44","","<div style=""font-size:60px;"">+</div>","null","","","","","","",""
"null","","image-keyboard-response","355","406641","0.0-6.0-0.45","","img/pink.png","null","trial","null","true","0,1","4:nogo_d","",""
"null","","html-keyboard-response","356","407720","0.0-6.0-1.45","","<img src=""img/pink-r.png"">","null","trial","null","","0,1","4:nogo_d","1",""
"null","","html-keyboard-response","357","408722","0.0-6.0-2.45","","<div style=""font-size:60px;"">+</div>","null","","","","","","",""
"null","","image-keyboard-response","358","410721","0.0-6.0-0.46","","img/blue.png","null","trial","null","true","0.2,0.8","2:nogo_b","",""
"null","","html-keyboard-response","359","412390","0.0-6.0-1.46","","<img src=""img/blue-n.png"">","null","trial","null","","0.2,0.8","2:nogo_b","0",""
"null","","html-keyboard-response","360","413889","0.0-6.0-2.46","","<div style=""font-size:60px;"">+</div>","null","","","","","","",""
"null","","image-keyboard-response","361","415537","0.0-6.0-0.47","","img/yellow.png","null","trial","32","false","0.8,0.2","1:go_a","",""
"null","","html-keyboard-response","362","416552","0.0-6.0-1.47","","<img src=""img/yellow-r.png"">","null","trial","32","","0.8,0.2","1:go_a","1",""
"null","","html-keyboard-response","363","417808","0.0-6.0-2.47","","<div style=""font-size:60px;"">+</div>","null","","","","","","",""
"null","","image-keyboard-response","364","419601","0.0-6.0-0.48","","img/purple.png","null","trial","32","false","1,0","3:go_c","",""
"null","","html-keyboard-response","365","421390","0.0-6.0-1.48","","<img src=""img/purple-n.png"">","null","trial","32","","1,0","3:go_c","0",""
"null","","html-keyboard-response","366","422391","0.0-6.0-2.48","","<div style=""font-size:60px;"">+</div>","null","","","","","","",""
"null","","image-keyboard-response","367","424668","0.0-6.0-0.49","","img/yellow.png","null","trial","32","false","0.8,0.2","1:go_a","",""
"null","","html-keyboard-response","368","425751","0.0-6.0-1.49","","<img src=""img/yellow-n.png"">","null","trial","32","","0.8,0.2","1:go_a","0",""
"null","","html-keyboard-response","369","427700","0.0-6.0-2.49","","<div style=""font-size:60px;"">+</div>","null","","","","","","",""
"null","","image-keyboard-response","370","429719","0.0-6.0-0.50","","img/pink.png","null","trial","null","true","0,1","4:nogo_d","",""
"null","","html-keyboard-response","371","430726","0.0-6.0-1.50","","<img src=""img/pink-r.png"">","null","trial","null","","0,1","4:nogo_d","1",""
"null","","html-keyboard-response","372","432721","0.0-6.0-2.50","","<div style=""font-size:60px;"">+</div>","null","","","","","","",""
"null","","image-keyboard-response","373","434722","0.0-6.0-0.51","","img/blue.png","null","trial","null","true","0.2,0.8","2:nogo_b","",""
"null","","html-keyboard-response","374","436722","0.0-6.0-1.51","","<img src=""img/blue-r.png"">","null","trial","null","","0.2,0.8","2:nogo_b","1",""
"null","","html-keyboard-response","375","438721","0.0-6.0-2.51","","<div style=""font-size:60px;"">+</div>","null","","","","","","",""
"null","","image-keyboard-response","376","440722","0.0-6.0-0.52","","img/blue.png","null","trial","null","true","0.2,0.8","2:nogo_b","",""
"null","","html-keyboard-response","377","442391","0.0-6.0-1.52","","<img src=""img/blue-n.png"">","null","trial","null","","0.2,0.8","2:nogo_b","0",""
"null","","html-keyboard-response","378","443607","0.0-6.0-2.52","","<div style=""font-size:60px;"">+</div>","null","","","","","","",""
"null","","image-keyboard-response","379","445564","0.0-6.0-0.53","","img/pink.png","null","trial","null","true","0,1","4:nogo_d","",""
"null","","html-keyboard-response","380","446768","0.0-6.0-1.53","","<img src=""img/pink-r.png"">","null","trial","null","","0,1","4:nogo_d","1",""
"null","","html-keyboard-response","381","448633","0.0-6.0-2.53","","<div style=""font-size:60px;"">+</div>","null","","","","","","",""
"null","","image-keyboard-response","382","450717","0.0-6.0-0.54","","img/yellow.png","null","trial","32","false","0.8,0.2","1:go_a","",""
"null","","html-keyboard-response","383","451936","0.0-6.0-1.54","","<img src=""img/yellow-n.png"">","null","trial","32","","0.8,0.2","1:go_a","0",""
"null","","html-keyboard-response","384","452938","0.0-6.0-2.54","","<div style=""font-size:60px;"">+</div>","null","","","","","","",""
"1182.5000001117587","","image-keyboard-response","385","454121","0.0-6.0-0.55","","img/purple.png","32","trial","32","true","1,0","3:go_c","",""
"null","","html-keyboard-response","386","455122","0.0-6.0-1.55","","<img src=""img/purple-r.png"" border=""10"">","null","trial","32","","1,0","3:go_c","1",""
"null","","html-keyboard-response","387","456124","0.0-6.0-2.55","","<div style=""font-size:60px;"">+</div>","null","","","","","","",""
"813.2400000467896","","image-keyboard-response","388","456938","0.0-6.0-0.56","","img/yellow.png","32","trial","32","true","0.8,0.2","1:go_a","",""
"null","","html-keyboard-response","389","457943","0.0-6.0-1.56","","<img src=""img/yellow-n.png"" border=""10"">","null","trial","32","","0.8,0.2","1:go_a","0",""
"null","","html-keyboard-response","390","458948","0.0-6.0-2.56","","<div style=""font-size:60px;"">+</div>","null","","","","","","",""
"null","","image-keyboard-response","391","460454","0.0-6.0-0.57","","img/pink.png","null","trial","null","true","0,1","4:nogo_d","",""
"null","","html-keyboard-response","392","461458","0.0-6.0-1.57","","<img src=""img/pink-r.png"">","null","trial","null","","0,1","4:nogo_d","1",""
"null","","html-keyboard-response","393","462461","0.0-6.0-2.57","","<div style=""font-size:60px;"">+</div>","null","","","","","","",""
"null","","image-keyboard-response","394","463963","0.0-6.0-0.58","","img/blue.png","null","trial","null","true","0.2,0.8","2:nogo_b","",""
"null","","html-keyboard-response","395","464967","0.0-6.0-1.58","","<img src=""img/blue-r.png"">","null","trial","null","","0.2,0.8","2:nogo_b","1",""
"null","","html-keyboard-response","396","465968","0.0-6.0-2.58","","<div style=""font-size:60px;"">+</div>","null","","","","","","",""
"950.8650000207126","","image-keyboard-response","397","466920","0.0-6.0-0.59","","img/purple.png","32","trial","32","true","1,0","3:go_c","",""
"null","","html-keyboard-response","398","467922","0.0-6.0-1.59","","<img src=""img/purple-r.png"" border=""10"">","null","trial","32","","1,0","3:go_c","1",""
"null","","html-keyboard-response","399","468925","0.0-6.0-2.59","","<div style=""font-size:60px;"">+</div>","null","","","","","","",""
"null","","image-keyboard-response","400","470429","0.0-6.0-0.60","","img/pink.png","null","trial","null","true","0,1","4:nogo_d","",""
"null","","html-keyboard-response","401","471434","0.0-6.0-1.60","","<img src=""img/pink-r.png"">","null","trial","null","","0,1","4:nogo_d","1",""
"null","","html-keyboard-response","402","472435","0.0-6.0-2.60","","<div style=""font-size:60px;"">+</div>","null","","","","","","",""
"863.5100000537932","","image-keyboard-response","403","473299","0.0-6.0-0.61","","img/yellow.png","32","trial","32","true","0.8,0.2","1:go_a","",""
"null","","html-keyboard-response","404","474300","0.0-6.0-1.61","","<img src=""img/yellow-r.png"" border=""10"">","null","trial","32","","0.8,0.2","1:go_a","1",""
"null","","html-keyboard-response","405","475306","0.0-6.0-2.61","","<div style=""font-size:60px;"">+</div>","null","","","","","","",""
"817.964999936521","","image-keyboard-response","406","476125","0.0-6.0-0.62","","img/purple.png","32","trial","32","true","1,0","3:go_c","",""
"null","","html-keyboard-response","407","477128","0.0-6.0-1.62","","<img src=""img/purple-r.png"" border=""10"">","null","trial","32","","1,0","3:go_c","1",""
"null","","html-keyboard-response","408","478132","0.0-6.0-2.62","","<div style=""font-size:60px;"">+</div>","null","","","","","","",""
"null","","image-keyboard-response","409","479634","0.0-6.0-0.63","","img/blue.png","null","trial","null","true","0.2,0.8","2:nogo_b","",""
"null","","html-keyboard-response","410","480639","0.0-6.0-1.63","","<img src=""img/blue-r.png"">","null","trial","null","","0.2,0.8","2:nogo_b","1",""
"null","","html-keyboard-response","411","481640","0.0-6.0-2.63","","<div style=""font-size:60px;"">+</div>","null","","","","","","",""
"1085.454999934882","","image-keyboard-response","412","482726","0.0-6.0-0.64","","img/yellow.png","32","trial","32","true","0.8,0.2","1:go_a","",""
"null","","html-keyboard-response","413","483728","0.0-6.0-1.64","","<img src=""img/yellow-r.png"" border=""10"">","null","trial","32","","0.8,0.2","1:go_a","1",""
"null","","html-keyboard-response","414","484730","0.0-6.0-2.64","","<div style=""font-size:60px;"">+</div>","null","","","","","","",""
"null","","image-keyboard-response","415","486234","0.0-6.0-0.65","","img/pink.png","null","trial","null","true","0,1","4:nogo_d","",""
"null","","html-keyboard-response","416","487240","0.0-6.0-1.65","","<img src=""img/pink-r.png"">","null","trial","null","","0,1","4:nogo_d","1",""
"null","","html-keyboard-response","417","488243","0.0-6.0-2.65","","<div style=""font-size:60px;"">+</div>","null","","","","","","",""
"null","","image-keyboard-response","418","489748","0.0-6.0-0.66","","img/blue.png","null","trial","null","true","0.2,0.8","2:nogo_b","",""
"null","","html-keyboard-response","419","490752","0.0-6.0-1.66","","<img src=""img/blue-r.png"">","null","trial","null","","0.2,0.8","2:nogo_b","1",""
"null","","html-keyboard-response","420","491753","0.0-6.0-2.66","","<div style=""font-size:60px;"">+</div>","null","","","","","","",""
"718.8649999443442","","image-keyboard-response","421","492472","0.0-6.0-0.67","","img/purple.png","32","trial","32","true","1,0","3:go_c","",""
"null","","html-keyboard-response","422","493477","0.0-6.0-1.67","","<img src=""img/purple-r.png"" border=""10"">","null","trial","32","","1,0","3:go_c","1",""
"null","","html-keyboard-response","423","494483","0.0-6.0-2.67","","<div style=""font-size:60px;"">+</div>","null","","","","","","",""
"917.7050001453608","","image-keyboard-response","424","495402","0.0-6.0-0.68","","img/purple.png","32","trial","32","true","1,0","3:go_c","",""
"null","","html-keyboard-response","425","496408","0.0-6.0-1.68","","<img src=""img/purple-r.png"" border=""10"">","null","trial","32","","1,0","3:go_c","1",""
"null","","html-keyboard-response","426","497411","0.0-6.0-2.68","","<div style=""font-size:60px;"">+</div>","null","","","","","","",""
"1086.420000065118","","image-keyboard-response","427","498498","0.0-6.0-0.69","","img/yellow.png","32","trial","32","true","0.8,0.2","1:go_a","",""
"null","","html-keyboard-response","428","499501","0.0-6.0-1.69","","<img src=""img/yellow-n.png"" border=""10"">","null","trial","32","","0.8,0.2","1:go_a","0",""
"null","","html-keyboard-response","429","500505","0.0-6.0-2.69","","<div style=""font-size:60px;"">+</div>","null","","","","","","",""
"null","","image-keyboard-response","430","502008","0.0-6.0-0.70","","img/blue.png","null","trial","null","true","0.2,0.8","2:nogo_b","",""
"null","","html-keyboard-response","431","503011","0.0-6.0-1.70","","<img src=""img/blue-n.png"">","null","trial","null","","0.2,0.8","2:nogo_b","0",""
"null","","html-keyboard-response","432","504015","0.0-6.0-2.70","","<div style=""font-size:60px;"">+</div>","null","","","","","","",""
"null","","image-keyboard-response","433","505517","0.0-6.0-0.71","","img/pink.png","null","trial","null","true","0,1","4:nogo_d","",""
"null","","html-keyboard-response","434","506520","0.0-6.0-1.71","","<img src=""img/pink-r.png"">","null","trial","null","","0,1","4:nogo_d","1",""
"null","","html-keyboard-response","435","507521","0.0-6.0-2.71","","<div style=""font-size:60px;"">+</div>","null","","","","","","",""
"824.8049998655915","","image-keyboard-response","436","508347","0.0-6.0-0.72","","img/purple.png","32","trial","32","true","1,0","3:go_c","",""
"null","","html-keyboard-response","437","509353","0.0-6.0-1.72","","<img src=""img/purple-r.png"" border=""10"">","null","trial","32","","1,0","3:go_c","1",""
"null","","html-keyboard-response","438","510357","0.0-6.0-2.72","","<div style=""font-size:60px;"">+</div>","null","","","","","","",""
"800.4749999381602","","image-keyboard-response","439","511158","0.0-6.0-0.73","","img/yellow.png","32","trial","32","true","0.8,0.2","1:go_a","",""
"null","","html-keyboard-response","440","512163","0.0-6.0-1.73","","<img src=""img/yellow-r.png"" border=""10"">","null","trial","32","","0.8,0.2","1:go_a","1",""
"null","","html-keyboard-response","441","513168","0.0-6.0-2.73","","<div style=""font-size:60px;"">+</div>","null","","","","","","",""
"null","","image-keyboard-response","442","514670","0.0-6.0-0.74","","img/pink.png","null","trial","null","true","0,1","4:nogo_d","",""
"null","","html-keyboard-response","443","515675","0.0-6.0-1.74","","<img src=""img/pink-r.png"">","null","trial","null","","0,1","4:nogo_d","1",""
"null","","html-keyboard-response","444","516681","0.0-6.0-2.74","","<div style=""font-size:60px;"">+</div>","null","","","","","","",""
"null","","image-keyboard-response","445","518184","0.0-6.0-0.75","","img/blue.png","null","trial","null","true","0.2,0.8","2:nogo_b","",""
"null","","html-keyboard-response","446","519187","0.0-6.0-1.75","","<img src=""img/blue-r.png"">","null","trial","null","","0.2,0.8","2:nogo_b","1",""
"null","","html-keyboard-response","447","520190","0.0-6.0-2.75","","<div style=""font-size:60px;"">+</div>","null","","","","","","",""
"755.7649998925626","","image-keyboard-response","448","520946","0.0-6.0-0.76","","img/purple.png","32","trial","32","true","1,0","3:go_c","",""
"null","","html-keyboard-response","449","521950","0.0-6.0-1.76","","<img src=""img/purple-r.png"" border=""10"">","null","trial","32","","1,0","3:go_c","1",""
"null","","html-keyboard-response","450","522952","0.0-6.0-2.76","","<div style=""font-size:60px;"">+</div>","null","","","","","","",""
"763.9450000133365","","image-keyboard-response","451","523717","0.0-6.0-0.77","","img/yellow.png","32","trial","32","true","0.8,0.2","1:go_a","",""
"null","","html-keyboard-response","452","524720","0.0-6.0-1.77","","<img src=""img/yellow-r.png"" border=""10"">","null","trial","32","","0.8,0.2","1:go_a","1",""
"null","","html-keyboard-response","453","525725","0.0-6.0-2.77","","<div style=""font-size:60px;"">+</div>","null","","","","","","",""
"null","","image-keyboard-response","454","527230","0.0-6.0-0.78","","img/blue.png","null","trial","null","true","0.2,0.8","2:nogo_b","",""
"null","","html-keyboard-response","455","528235","0.0-6.0-1.78","","<img src=""img/blue-r.png"">","null","trial","null","","0.2,0.8","2:nogo_b","1",""
"null","","html-keyboard-response","456","529239","0.0-6.0-2.78","","<div style=""font-size:60px;"">+</div>","null","","","","","","",""
"null","","image-keyboard-response","457","530740","0.0-6.0-0.79","","img/pink.png","null","trial","null","true","0,1","4:nogo_d","",""
"null","","html-keyboard-response","458","531742","0.0-6.0-1.79","","<img src=""img/pink-r.png"">","null","trial","null","","0,1","4:nogo_d","1",""
"null","","html-keyboard-response","459","532748","0.0-6.0-2.79","","<div style=""font-size:60px;"">+</div>","null","","","","","","",""
"null","","image-keyboard-response","460","534251","0.0-6.0-0.80","","img/blue.png","null","trial","null","true","0.2,0.8","2:nogo_b","",""
"null","","html-keyboard-response","461","535257","0.0-6.0-1.80","","<img src=""img/blue-n.png"">","null","trial","null","","0.2,0.8","2:nogo_b","0",""
"null","","html-keyboard-response","462","536262","0.0-6.0-2.80","","<div style=""font-size:60px;"">+</div>","null","","","","","","",""
"923.8499999046326","","image-keyboard-response","463","537186","0.0-6.0-0.81","","img/purple.png","32","trial","32","true","1,0","3:go_c","",""
"null","","html-keyboard-response","464","538190","0.0-6.0-1.81","","<img src=""img/purple-r.png"" border=""10"">","null","trial","32","","1,0","3:go_c","1",""
"null","","html-keyboard-response","465","539193","0.0-6.0-2.81","","<div style=""font-size:60px;"">+</div>","null","","","","","","",""
"null","","image-keyboard-response","466","540697","0.0-6.0-0.82","","img/pink.png","null","trial","null","true","0,1","4:nogo_d","",""
"null","","html-keyboard-response","467","541702","0.0-6.0-1.82","","<img src=""img/pink-r.png"">","null","trial","null","","0,1","4:nogo_d","1",""
"null","","html-keyboard-response","468","542702","0.0-6.0-2.82","","<div style=""font-size:60px;"">+</div>","null","","","","","","",""
"1050.6400000303984","","image-keyboard-response","469","543754","0.0-6.0-0.83","","img/yellow.png","32","trial","32","true","0.8,0.2","1:go_a","",""
"null","","html-keyboard-response","470","544755","0.0-6.0-1.83","","<img src=""img/yellow-r.png"" border=""10"">","null","trial","32","","0.8,0.2","1:go_a","1",""
"null","","html-keyboard-response","471","545759","0.0-6.0-2.83","","<div style=""font-size:60px;"">+</div>","null","","","","","","",""
"null","","image-keyboard-response","472","547263","0.0-6.0-0.84","","img/pink.png","null","trial","null","true","0,1","4:nogo_d","",""
"null","","html-keyboard-response","473","548268","0.0-6.0-1.84","","<img src=""img/pink-r.png"">","null","trial","null","","0,1","4:nogo_d","1",""
"null","","html-keyboard-response","474","549273","0.0-6.0-2.84","","<div style=""font-size:60px;"">+</div>","null","","","","","","",""
"810.1900001056492","","image-keyboard-response","475","550084","0.0-6.0-0.85","","img/purple.png","32","trial","32","true","1,0","3:go_c","",""
"null","","html-keyboard-response","476","551088","0.0-6.0-1.85","","<img src=""img/purple-r.png"" border=""10"">","null","trial","32","","1,0","3:go_c","1",""
"null","","html-keyboard-response","477","552090","0.0-6.0-2.85","","<div style=""font-size:60px;"">+</div>","null","","","","","","",""
"null","","image-keyboard-response","478","553593","0.0-6.0-0.86","","img/blue.png","null","trial","null","true","0.2,0.8","2:nogo_b","",""
"null","","html-keyboard-response","479","554598","0.0-6.0-1.86","","<img src=""img/blue-r.png"">","null","trial","null","","0.2,0.8","2:nogo_b","1",""
"null","","html-keyboard-response","480","555604","0.0-6.0-2.86","","<div style=""font-size:60px;"">+</div>","null","","","","","","",""
"780.4849999956787","","image-keyboard-response","481","556385","0.0-6.0-0.87","","img/yellow.png","32","trial","32","true","0.8,0.2","1:go_a","",""
"null","","html-keyboard-response","482","557390","0.0-6.0-1.87","","<img src=""img/yellow-r.png"" border=""10"">","null","trial","32","","0.8,0.2","1:go_a","1",""
"null","","html-keyboard-response","483","558393","0.0-6.0-2.87","","<div style=""font-size:60px;"">+</div>","null","","","","","","",""
"null","","image-keyboard-response","484","559897","0.0-6.0-0.88","","img/blue.png","null","trial","null","true","0.2,0.8","2:nogo_b","",""
"null","","html-keyboard-response","485","560902","0.0-6.0-1.88","","<img src=""img/blue-r.png"">","null","trial","null","","0.2,0.8","2:nogo_b","1",""
"null","","html-keyboard-response","486","561907","0.0-6.0-2.88","","<div style=""font-size:60px;"">+</div>","null","","","","","","",""
"760.4000000283122","","image-keyboard-response","487","562668","0.0-6.0-0.89","","img/yellow.png","32","trial","32","true","0.8,0.2","1:go_a","",""
"null","","html-keyboard-response","488","563673","0.0-6.0-1.89","","<img src=""img/yellow-r.png"" border=""10"">","null","trial","32","","0.8,0.2","1:go_a","1",""
"null","","html-keyboard-response","489","564676","0.0-6.0-2.89","","<div style=""font-size:60px;"">+</div>","null","","","","","","",""
"null","","image-keyboard-response","490","566179","0.0-6.0-0.90","","img/purple.png","null","trial","32","false","1,0","3:go_c","",""
"null","","html-keyboard-response","491","567183","0.0-6.0-1.90","","<img src=""img/purple-n.png"">","null","trial","32","","1,0","3:go_c","0",""
"null","","html-keyboard-response","492","568185","0.0-6.0-2.90","","<div style=""font-size:60px;"">+</div>","null","","","","","","",""
"null","","image-keyboard-response","493","569690","0.0-6.0-0.91","","img/pink.png","null","trial","null","true","0,1","4:nogo_d","",""
"null","","html-keyboard-response","494","570692","0.0-6.0-1.91","","<img src=""img/pink-r.png"">","null","trial","null","","0,1","4:nogo_d","1",""
"null","","html-keyboard-response","495","571695","0.0-6.0-2.91","","<div style=""font-size:60px;"">+</div>","null","","","","","","",""
"1200.829999987036","","image-keyboard-response","496","572897","0.0-6.0-0.92","","img/yellow.png","32","trial","32","true","0.8,0.2","1:go_a","",""
"null","","html-keyboard-response","497","573900","0.0-6.0-1.92","","<img src=""img/yellow-n.png"" border=""10"">","null","trial","32","","0.8,0.2","1:go_a","0",""
"null","","html-keyboard-response","498","574906","0.0-6.0-2.92","","<div style=""font-size:60px;"">+</div>","null","","","","","","",""
"1013.9250000938773","","image-keyboard-response","499","575920","0.0-6.0-0.93","","img/purple.png","32","trial","32","true","1,0","3:go_c","",""
"null","","html-keyboard-response","500","576922","0.0-6.0-1.93","","<img src=""img/purple-r.png"" border=""10"">","null","trial","32","","1,0","3:go_c","1",""
"null","","html-keyboard-response","501","577927","0.0-6.0-2.93","","<div style=""font-size:60px;"">+</div>","null","","","","","","",""
"null","","image-keyboard-response","502","579433","0.0-6.0-0.94","","img/blue.png","null","trial","null","true","0.2,0.8","2:nogo_b","",""
"null","","html-keyboard-response","503","580436","0.0-6.0-1.94","","<img src=""img/blue-n.png"">","null","trial","null","","0.2,0.8","2:nogo_b","0",""
"null","","html-keyboard-response","504","581440","0.0-6.0-2.94","","<div style=""font-size:60px;"">+</div>","null","","","","","","",""
"null","","image-keyboard-response","505","582942","0.0-6.0-0.95","","img/pink.png","null","trial","null","true","0,1","4:nogo_d","",""
"null","","html-keyboard-response","506","583946","0.0-6.0-1.95","","<img src=""img/pink-r.png"">","null","trial","null","","0,1","4:nogo_d","1",""
"null","","html-keyboard-response","507","584950","0.0-6.0-2.95","","<div style=""font-size:60px;"">+</div>","null","","","","","","",""
"null","","image-keyboard-response","508","586452","0.0-6.0-0.96","","img/blue.png","null","trial","null","true","0.2,0.8","2:nogo_b","",""
"null","","html-keyboard-response","509","587455","0.0-6.0-1.96","","<img src=""img/blue-r.png"">","null","trial","null","","0.2,0.8","2:nogo_b","1",""
"null","","html-keyboard-response","510","588458","0.0-6.0-2.96","","<div style=""font-size:60px;"">+</div>","null","","","","","","",""
"813.289999961853","","image-keyboard-response","511","589272","0.0-6.0-0.97","","img/purple.png","32","trial","32","true","1,0","3:go_c","",""
"null","","html-keyboard-response","512","590278","0.0-6.0-1.97","","<img src=""img/purple-r.png"" border=""10"">","null","trial","32","","1,0","3:go_c","1",""
"null","","html-keyboard-response","513","591279","0.0-6.0-2.97","","<div style=""font-size:60px;"">+</div>","null","","","","","","",""
"null","","image-keyboard-response","514","592781","0.0-6.0-0.98","","img/pink.png","null","trial","null","true","0,1","4:nogo_d","",""
"null","","html-keyboard-response","515","593783","0.0-6.0-1.98","","<img src=""img/pink-r.png"">","null","trial","null","","0,1","4:nogo_d","1",""
"null","","html-keyboard-response","516","594785","0.0-6.0-2.98","","<div style=""font-size:60px;"">+</div>","null","","","","","","",""
"964.3749999813735","","image-keyboard-response","517","595750","0.0-6.0-0.99","","img/yellow.png","32","trial","32","true","0.8,0.2","1:go_a","",""
"null","","html-keyboard-response","518","596752","0.0-6.0-1.99","","<img src=""img/yellow-r.png"" border=""10"">","null","trial","32","","0.8,0.2","1:go_a","1",""
"null","","html-keyboard-response","519","597754","0.0-6.0-2.99","","<div style=""font-size:60px;"">+</div>","null","","","","","","",""
"844.1200000233948","","image-keyboard-response","520","598599","0.0-6.0-0.100","","img/yellow.png","32","trial","32","true","0.8,0.2","1:go_a","",""
"null","","html-keyboard-response","521","599604","0.0-6.0-1.100","","<img src=""img/yellow-r.png"" border=""10"">","null","trial","32","","0.8,0.2","1:go_a","1",""
"null","","html-keyboard-response","522","600607","0.0-6.0-2.100","","<div style=""font-size:60px;"">+</div>","null","","","","","","",""
"890.6400001142174","","image-keyboard-response","523","601498","0.0-6.0-0.101","","img/purple.png","32","trial","32","true","1,0","3:go_c","",""
"null","","html-keyboard-response","524","602502","0.0-6.0-1.101","","<img src=""img/purple-r.png"" border=""10"">","null","trial","32","","1,0","3:go_c","1",""
"null","","html-keyboard-response","525","603508","0.0-6.0-2.101","","<div style=""font-size:60px;"">+</div>","null","","","","","","",""
"null","","image-keyboard-response","526","605014","0.0-6.0-0.102","","img/pink.png","null","trial","null","true","0,1","4:nogo_d","",""
"null","","html-keyboard-response","527","606019","0.0-6.0-1.102","","<img src=""img/pink-r.png"">","null","trial","null","","0,1","4:nogo_d","1",""
"null","","html-keyboard-response","528","607023","0.0-6.0-2.102","","<div style=""font-size:60px;"">+</div>","null","","","","","","",""
"null","","image-keyboard-response","529","608528","0.0-6.0-0.103","","img/blue.png","null","trial","null","true","0.2,0.8","2:nogo_b","",""
"null","","html-keyboard-response","530","609534","0.0-6.0-1.103","","<img src=""img/blue-n.png"">","null","trial","null","","0.2,0.8","2:nogo_b","0",""
"null","","html-keyboard-response","531","610538","0.0-6.0-2.103","","<div style=""font-size:60px;"">+</div>","null","","","","","","",""
"721.9950000289828","","image-keyboard-response","532","611261","0.0-6.0-0.104","","img/purple.png","32","trial","32","true","1,0","3:go_c","",""
"null","","html-keyboard-response","533","612266","0.0-6.0-1.104","","<img src=""img/purple-r.png"" border=""10"">","null","trial","32","","1,0","3:go_c","1",""
"null","","html-keyboard-response","534","613269","0.0-6.0-2.104","","<div style=""font-size:60px;"">+</div>","null","","","","","","",""
"791.800000006333","","image-keyboard-response","535","614061","0.0-6.0-0.105","","img/yellow.png","32","trial","32","true","0.8,0.2","1:go_a","",""
"null","","html-keyboard-response","536","615066","0.0-6.0-1.105","","<img src=""img/yellow-n.png"" border=""10"">","null","trial","32","","0.8,0.2","1:go_a","0",""
"null","","html-keyboard-response","537","616070","0.0-6.0-2.105","","<div style=""font-size:60px;"">+</div>","null","","","","","","",""
"null","","image-keyboard-response","538","617571","0.0-6.0-0.106","","img/pink.png","null","trial","null","true","0,1","4:nogo_d","",""
"null","","html-keyboard-response","539","618574","0.0-6.0-1.106","","<img src=""img/pink-r.png"">","null","trial","null","","0,1","4:nogo_d","1",""
"null","","html-keyboard-response","540","619575","0.0-6.0-2.106","","<div style=""font-size:60px;"">+</div>","null","","","","","","",""
"null","","image-keyboard-response","541","621077","0.0-6.0-0.107","","img/blue.png","null","trial","null","true","0.2,0.8","2:nogo_b","",""
"null","","html-keyboard-response","542","622080","0.0-6.0-1.107","","<img src=""img/blue-r.png"">","null","trial","null","","0.2,0.8","2:nogo_b","1",""
"null","","html-keyboard-response","543","623084","0.0-6.0-2.107","","<div style=""font-size:60px;"">+</div>","null","","","","","","",""
"766.5900001302361","","image-keyboard-response","544","623852","0.0-6.0-0.108","","img/purple.png","32","trial","32","true","1,0","3:go_c","",""
"null","","html-keyboard-response","545","624853","0.0-6.0-1.108","","<img src=""img/purple-r.png"" border=""10"">","null","trial","32","","1,0","3:go_c","1",""
"null","","html-keyboard-response","546","625855","0.0-6.0-2.108","","<div style=""font-size:60px;"">+</div>","null","","","","","","",""
"821.9900000840425","","image-keyboard-response","547","626678","0.0-6.0-0.109","","img/yellow.png","32","trial","32","true","0.8,0.2","1:go_a","",""
"null","","html-keyboard-response","548","627684","0.0-6.0-1.109","","<img src=""img/yellow-n.png"" border=""10"">","null","trial","32","","0.8,0.2","1:go_a","0",""
"null","","html-keyboard-response","549","628688","0.0-6.0-2.109","","<div style=""font-size:60px;"">+</div>","null","","","","","","",""
"null","","image-keyboard-response","550","630191","0.0-6.0-0.110","","img/blue.png","null","trial","null","true","0.2,0.8","2:nogo_b","",""
"null","","html-keyboard-response","551","631195","0.0-6.0-1.110","","<img src=""img/blue-r.png"">","null","trial","null","","0.2,0.8","2:nogo_b","1",""
"null","","html-keyboard-response","552","632200","0.0-6.0-2.110","","<div style=""font-size:60px;"">+</div>","null","","","","","","",""
"null","","image-keyboard-response","553","633704","0.0-6.0-0.111","","img/pink.png","null","trial","null","true","0,1","4:nogo_d","",""
"null","","html-keyboard-response","554","634705","0.0-6.0-1.111","","<img src=""img/pink-r.png"">","null","trial","null","","0,1","4:nogo_d","1",""
"null","","html-keyboard-response","555","635707","0.0-6.0-2.111","","<div style=""font-size:60px;"">+</div>","null","","","","","","",""
"null","","image-keyboard-response","556","637208","0.0-6.0-0.112","","img/pink.png","null","trial","null","true","0,1","4:nogo_d","",""
"null","","html-keyboard-response","557","638210","0.0-6.0-1.112","","<img src=""img/pink-r.png"">","null","trial","null","","0,1","4:nogo_d","1",""
"null","","html-keyboard-response","558","639210","0.0-6.0-2.112","","<div style=""font-size:60px;"">+</div>","null","","","","","","",""
"948.5649999696761","","image-keyboard-response","559","640160","0.0-6.0-0.113","","img/yellow.png","32","trial","32","true","0.8,0.2","1:go_a","",""
"null","","html-keyboard-response","560","641163","0.0-6.0-1.113","","<img src=""img/yellow-r.png"" border=""10"">","null","trial","32","","0.8,0.2","1:go_a","1",""
"null","","html-keyboard-response","561","642167","0.0-6.0-2.113","","<div style=""font-size:60px;"">+</div>","null","","","","","","",""
"null","","image-keyboard-response","562","643669","0.0-6.0-0.114","","img/purple.png","null","trial","32","false","1,0","3:go_c","",""
"null","","html-keyboard-response","563","644675","0.0-6.0-1.114","","<img src=""img/purple-n.png"">","null","trial","32","","1,0","3:go_c","0",""
"null","","html-keyboard-response","564","645676","0.0-6.0-2.114","","<div style=""font-size:60px;"">+</div>","null","","","","","","",""
"null","","image-keyboard-response","565","647179","0.0-6.0-0.115","","img/blue.png","null","trial","null","true","0.2,0.8","2:nogo_b","",""
"null","","html-keyboard-response","566","648182","0.0-6.0-1.115","","<img src=""img/blue-n.png"">","null","trial","null","","0.2,0.8","2:nogo_b","0",""
"null","","html-keyboard-response","567","649184","0.0-6.0-2.115","","<div style=""font-size:60px;"">+</div>","null","","","","","","",""
"null","","image-keyboard-response","568","650688","0.0-6.0-0.116","","img/blue.png","null","trial","null","true","0.2,0.8","2:nogo_b","",""
"null","","html-keyboard-response","569","651690","0.0-6.0-1.116","","<img src=""img/blue-r.png"">","null","trial","null","","0.2,0.8","2:nogo_b","1",""
"null","","html-keyboard-response","570","652694","0.0-6.0-2.116","","<div style=""font-size:60px;"">+</div>","null","","","","","","",""
"820.490000071004","","image-keyboard-response","571","653515","0.0-6.0-0.117","","img/purple.png","32","trial","32","true","1,0","3:go_c","",""
"null","","html-keyboard-response","572","654518","0.0-6.0-1.117","","<img src=""img/purple-r.png"" border=""10"">","null","trial","32","","1,0","3:go_c","1",""
"null","","html-keyboard-response","573","655520","0.0-6.0-2.117","","<div style=""font-size:60px;"">+</div>","null","","","","","","",""
"null","","image-keyboard-response","574","657025","0.0-6.0-0.118","","img/pink.png","null","trial","null","true","0,1","4:nogo_d","",""
"null","","html-keyboard-response","575","658030","0.0-6.0-1.118","","<img src=""img/pink-r.png"">","null","trial","null","","0,1","4:nogo_d","1",""
"null","","html-keyboard-response","576","659034","0.0-6.0-2.118","","<div style=""font-size:60px;"">+</div>","null","","","","","","",""
"1153.8500001188368","","image-keyboard-response","577","660188","0.0-6.0-0.119","","img/yellow.png","32","trial","32","true","0.8,0.2","1:go_a","",""
"null","","html-keyboard-response","578","661190","0.0-6.0-1.119","","<img src=""img/yellow-n.png"" border=""10"">","null","trial","32","","0.8,0.2","1:go_a","0",""
"null","","html-keyboard-response","579","662193","0.0-6.0-2.119","","<div style=""font-size:60px;"">+</div>","null","","","","","","",""
"15832.110000075772","","instructions","580","678026","0.0-7.0","[{""page_index"":0,""viewing_time"":15831.789999967441}]","","","","","","","","",""
"1483.7949997745454","","image-keyboard-response","581","679511","0.0-8.0-0.0","","img/yellow.png","32","trial","32","true","0.8,0.2","1:go_a","",""
"null","","html-keyboard-response","582","680513","0.0-8.0-1.0","","<img src=""img/yellow-n.png"" border=""10"">","null","trial","32","","0.8,0.2","1:go_a","0",""
"null","","html-keyboard-response","583","681514","0.0-8.0-2.0","","<div style=""font-size:60px;"">+</div>","null","","","","","","",""
"null","","image-keyboard-response","584","683019","0.0-8.0-0.1","","img/red.png","null","trial","null","true","0.2,0.8","4:nogo_d","",""
"null","","html-keyboard-response","585","684022","0.0-8.0-1.1","","<img src=""img/red-n.png"">","null","trial","null","","0.2,0.8","4:nogo_d","0",""
"null","","html-keyboard-response","586","685024","0.0-8.0-2.1","","<div style=""font-size:60px;"">+</div>","null","","","","","","",""
"null","","image-keyboard-response","587","686529","0.0-8.0-0.2","","img/green.png","null","trial","32","false","0.8,0.2","3:go_c","",""
"null","","html-keyboard-response","588","687535","0.0-8.0-1.2","","<img src=""img/green-n.png"">","null","trial","32","","0.8,0.2","3:go_c","0",""
"null","","html-keyboard-response","589","688539","0.0-8.0-2.2","","<div style=""font-size:60px;"">+</div>","null","","","","","","",""
"null","","image-keyboard-response","590","690041","0.0-8.0-0.3","","img/pink.png","null","trial","null","true","0.2,0.8","2:nogo_b","",""
"null","","html-keyboard-response","591","691046","0.0-8.0-1.3","","<img src=""img/pink-r.png"">","null","trial","null","","0.2,0.8","2:nogo_b","1",""
"null","","html-keyboard-response","592","692048","0.0-8.0-2.3","","<div style=""font-size:60px;"">+</div>","null","","","","","","",""
"727.4849999230355","","image-keyboard-response","593","692777","0.0-8.0-0.4","","img/yellow.png","32","trial","32","true","0.8,0.2","1:go_a","",""
"null","","html-keyboard-response","594","693779","0.0-8.0-1.4","","<img src=""img/yellow-r.png"" border=""10"">","null","trial","32","","0.8,0.2","1:go_a","1",""
"null","","html-keyboard-response","595","694780","0.0-8.0-2.4","","<div style=""font-size:60px;"">+</div>","null","","","","","","",""
"1249.6499998960644","","image-keyboard-response","596","696030","0.0-8.0-0.5","","img/green.png","32","trial","32","true","0.8,0.2","3:go_c","",""
"null","","html-keyboard-response","597","697033","0.0-8.0-1.5","","<img src=""img/green-r.png"" border=""10"">","null","trial","32","","0.8,0.2","3:go_c","1",""
"null","","html-keyboard-response","598","698038","0.0-8.0-2.5","","<div style=""font-size:60px;"">+</div>","null","","","","","","",""
"null","","image-keyboard-response","599","699542","0.0-8.0-0.6","","img/pink.png","null","trial","null","true","0.2,0.8","2:nogo_b","",""
"null","","html-keyboard-response","600","700545","0.0-8.0-1.6","","<img src=""img/pink-n.png"">","null","trial","null","","0.2,0.8","2:nogo_b","0",""
"null","","html-keyboard-response","601","701550","0.0-8.0-2.6","","<div style=""font-size:60px;"">+</div>","null","","","","","","",""
"1290.3149998746812","","image-keyboard-response","602","702841","0.0-8.0-0.7","","img/red.png","32","trial","null","false","0.2,0.8","4:nogo_d","",""
"null","","html-keyboard-response","603","703844","0.0-8.0-1.7","","<img src=""img/red-n.png"" border=""10"">","null","trial","null","","0.2,0.8","4:nogo_d","0",""
"null","","html-keyboard-response","604","704849","0.0-8.0-2.7","","<div style=""font-size:60px;"">+</div>","null","","","","","","",""
"null","","image-keyboard-response","605","706353","0.0-8.0-0.8","","img/green.png","null","trial","32","false","0.8,0.2","3:go_c","",""
"null","","html-keyboard-response","606","707355","0.0-8.0-1.8","","<img src=""img/green-r.png"">","null","trial","32","","0.8,0.2","3:go_c","1",""
"null","","html-keyboard-response","607","708359","0.0-8.0-2.8","","<div style=""font-size:60px;"">+</div>","null","","","","","","",""
"763.5200000368059","","image-keyboard-response","608","709123","0.0-8.0-0.9","","img/yellow.png","32","trial","32","true","0.8,0.2","1:go_a","",""
"null","","html-keyboard-response","609","710129","0.0-8.0-1.9","","<img src=""img/yellow-n.png"" border=""10"">","null","trial","32","","0.8,0.2","1:go_a","0",""
"null","","html-keyboard-response","610","711132","0.0-8.0-2.9","","<div style=""font-size:60px;"">+</div>","null","","","","","","",""
"1022.9250001721084","","image-keyboard-response","611","712156","0.0-8.0-0.10","","img/red.png","32","trial","null","false","0.2,0.8","4:nogo_d","",""
"null","","html-keyboard-response","612","713159","0.0-8.0-1.10","","<img src=""img/red-n.png"" border=""10"">","null","trial","null","","0.2,0.8","4:nogo_d","0",""
"null","","html-keyboard-response","613","714161","0.0-8.0-2.10","","<div style=""font-size:60px;"">+</div>","null","","","","","","",""
"822.8249999228865","","image-keyboard-response","614","714985","0.0-8.0-0.11","","img/pink.png","32","trial","null","false","0.2,0.8","2:nogo_b","",""
"null","","html-keyboard-response","615","715989","0.0-8.0-1.11","","<img src=""img/pink-n.png"" border=""10"">","null","trial","null","","0.2,0.8","2:nogo_b","0",""
"null","","html-keyboard-response","616","716994","0.0-8.0-2.11","","<div style=""font-size:60px;"">+</div>","null","","","","","","",""
"1043.8600000925362","","image-keyboard-response","617","718039","0.0-8.0-0.12","","img/yellow.png","32","trial","32","true","0.8,0.2","1:go_a","",""
"null","","html-keyboard-response","618","719043","0.0-8.0-1.12","","<img src=""img/yellow-r.png"" border=""10"">","null","trial","32","","0.8,0.2","1:go_a","1",""
"null","","html-keyboard-response","619","720048","0.0-8.0-2.12","","<div style=""font-size:60px;"">+</div>","null","","","","","","",""
"null","","image-keyboard-response","620","721554","0.0-8.0-0.13","","img/green.png","null","trial","32","false","0.8,0.2","3:go_c","",""
"null","","html-keyboard-response","621","722560","0.0-8.0-1.13","","<img src=""img/green-n.png"">","null","trial","32","","0.8,0.2","3:go_c","0",""
"null","","html-keyboard-response","622","723564","0.0-8.0-2.13","","<div style=""font-size:60px;"">+</div>","null","","","","","","",""
"1156.070000026375","","image-keyboard-response","623","724721","0.0-8.0-0.14","","img/red.png","32","trial","null","false","0.2,0.8","4:nogo_d","",""
"null","","html-keyboard-response","624","725724","0.0-8.0-1.14","","<img src=""img/red-n.png"" border=""10"">","null","trial","null","","0.2,0.8","4:nogo_d","0",""
"null","","html-keyboard-response","625","726728","0.0-8.0-2.14","","<div style=""font-size:60px;"">+</div>","null","","","","","","",""
"1223.360000178218","","image-keyboard-response","626","727952","0.0-8.0-0.15","","img/pink.png","32","trial","null","false","0.2,0.8","2:nogo_b","",""
"null","","html-keyboard-response","627","728956","0.0-8.0-1.15","","<img src=""img/pink-r.png"" border=""10"">","null","trial","null","","0.2,0.8","2:nogo_b","1",""
"null","","html-keyboard-response","628","729958","0.0-8.0-2.15","","<div style=""font-size:60px;"">+</div>","null","","","","","","",""
"937.3800000175834","","image-keyboard-response","629","730897","0.0-8.0-0.16","","img/green.png","32","trial","32","true","0.8,0.2","3:go_c","",""
"null","","html-keyboard-response","630","731902","0.0-8.0-1.16","","<img src=""img/green-r.png"" border=""10"">","null","trial","32","","0.8,0.2","3:go_c","1",""
"null","","html-keyboard-response","631","732905","0.0-8.0-2.16","","<div style=""font-size:60px;"">+</div>","null","","","","","","",""
"null","","image-keyboard-response","632","734410","0.0-8.0-0.17","","img/red.png","null","trial","null","true","0.2,0.8","4:nogo_d","",""
"null","","html-keyboard-response","633","735415","0.0-8.0-1.17","","<img src=""img/red-r.png"">","null","trial","null","","0.2,0.8","4:nogo_d","1",""
"null","","html-keyboard-response","634","736419","0.0-8.0-2.17","","<div style=""font-size:60px;"">+</div>","null","","","","","","",""
"699.7350000310689","","image-keyboard-response","635","737120","0.0-8.0-0.18","","img/yellow.png","32","trial","32","true","0.8,0.2","1:go_a","",""
"null","","html-keyboard-response","636","738124","0.0-8.0-1.18","","<img src=""img/yellow-r.png"" border=""10"">","null","trial","32","","0.8,0.2","1:go_a","1",""
"null","","html-keyboard-response","637","739127","0.0-8.0-2.18","","<div style=""font-size:60px;"">+</div>","null","","","","","","",""
"933.2950001116842","","image-keyboard-response","638","740061","0.0-8.0-0.19","","img/pink.png","32","trial","null","false","0.2,0.8","2:nogo_b","",""
"null","","html-keyboard-response","639","741065","0.0-8.0-1.19","","<img src=""img/pink-n.png"" border=""10"">","null","trial","null","","0.2,0.8","2:nogo_b","0",""
"null","","html-keyboard-response","640","742069","0.0-8.0-2.19","","<div style=""font-size:60px;"">+</div>","null","","","","","","",""
"845.9850000217557","","image-keyboard-response","641","742916","0.0-8.0-0.20","","img/yellow.png","32","trial","32","true","0.8,0.2","1:go_a","",""
"null","","html-keyboard-response","642","743922","0.0-8.0-1.20","","<img src=""img/yellow-r.png"" border=""10"">","null","trial","32","","0.8,0.2","1:go_a","1",""
"null","","html-keyboard-response","643","744925","0.0-8.0-2.20","","<div style=""font-size:60px;"">+</div>","null","","","","","","",""
"null","","image-keyboard-response","644","746430","0.0-8.0-0.21","","img/pink.png","null","trial","null","true","0.2,0.8","2:nogo_b","",""
"null","","html-keyboard-response","645","747436","0.0-8.0-1.21","","<img src=""img/pink-r.png"">","null","trial","null","","0.2,0.8","2:nogo_b","1",""
"null","","html-keyboard-response","646","748439","0.0-8.0-2.21","","<div style=""font-size:60px;"">+</div>","null","","","","","","",""
"776.0149999521673","","image-keyboard-response","647","749216","0.0-8.0-0.22","","img/red.png","32","trial","null","false","0.2,0.8","4:nogo_d","",""
"null","","html-keyboard-response","648","750221","0.0-8.0-1.22","","<img src=""img/red-n.png"" border=""10"">","null","trial","null","","0.2,0.8","4:nogo_d","0",""
"null","","html-keyboard-response","649","751223","0.0-8.0-2.22","","<div style=""font-size:60px;"">+</div>","null","","","","","","",""
"676.865000044927","","image-keyboard-response","650","751901","0.0-8.0-0.23","","img/green.png","32","trial","32","true","0.8,0.2","3:go_c","",""
"null","","html-keyboard-response","651","752903","0.0-8.0-1.23","","<img src=""img/green-r.png"" border=""10"">","null","trial","32","","0.8,0.2","3:go_c","1",""
"null","","html-keyboard-response","652","753906","0.0-8.0-2.23","","<div style=""font-size:60px;"">+</div>","null","","","","","","",""
"786.1850000917912","","image-keyboard-response","653","754693","0.0-8.0-0.24","","img/pink.png","32","trial","null","false","0.2,0.8","2:nogo_b","",""
"null","","html-keyboard-response","654","755698","0.0-8.0-1.24","","<img src=""img/pink-n.png"" border=""10"">","null","trial","null","","0.2,0.8","2:nogo_b","0",""
"null","","html-keyboard-response","655","756703","0.0-8.0-2.24","","<div style=""font-size:60px;"">+</div>","null","","","","","","",""
"794.9650001246482","","image-keyboard-response","656","757499","0.0-8.0-0.25","","img/yellow.png","32","trial","32","true","0.8,0.2","1:go_a","",""
"null","","html-keyboard-response","657","758503","0.0-8.0-1.25","","<img src=""img/yellow-r.png"" border=""10"">","null","trial","32","","0.8,0.2","1:go_a","1",""
"null","","html-keyboard-response","658","759506","0.0-8.0-2.25","","<div style=""font-size:60px;"">+</div>","null","","","","","","",""
"984.2449999414384","","image-keyboard-response","659","760491","0.0-8.0-0.26","","img/green.png","32","trial","32","true","0.8,0.2","3:go_c","",""
"null","","html-keyboard-response","660","761496","0.0-8.0-1.26","","<img src=""img/green-n.png"" border=""10"">","null","trial","32","","0.8,0.2","3:go_c","0",""
"null","","html-keyboard-response","661","762498","0.0-8.0-2.26","","<div style=""font-size:60px;"">+</div>","null","","","","","","",""
"1168.1950001511723","","image-keyboard-response","662","763667","0.0-8.0-0.27","","img/red.png","32","trial","null","false","0.2,0.8","4:nogo_d","",""
"null","","html-keyboard-response","663","764669","0.0-8.0-1.27","","<img src=""img/red-n.png"" border=""10"">","null","trial","null","","0.2,0.8","4:nogo_d","0",""
"null","","html-keyboard-response","664","765671","0.0-8.0-2.27","","<div style=""font-size:60px;"">+</div>","null","","","","","","",""
"704.6499999705702","","image-keyboard-response","665","766377","0.0-8.0-0.28","","img/yellow.png","32","trial","32","true","0.8,0.2","1:go_a","",""
"null","","html-keyboard-response","666","767378","0.0-8.0-1.28","","<img src=""img/yellow-r.png"" border=""10"">","null","trial","32","","0.8,0.2","1:go_a","1",""
"null","","html-keyboard-response","667","768380","0.0-8.0-2.28","","<div style=""font-size:60px;"">+</div>","null","","","","","","",""
"1036.0349998809397","","image-keyboard-response","668","769417","0.0-8.0-0.29","","img/pink.png","32","trial","null","false","0.2,0.8","2:nogo_b","",""
"null","","html-keyboard-response","669","770420","0.0-8.0-1.29","","<img src=""img/pink-n.png"" border=""10"">","null","trial","null","","0.2,0.8","2:nogo_b","0",""
"null","","html-keyboard-response","670","771426","0.0-8.0-2.29","","<div style=""font-size:60px;"">+</div>","null","","","","","","",""
"null","","image-keyboard-response","671","772931","0.0-8.0-0.30","","img/red.png","null","trial","null","true","0.2,0.8","4:nogo_d","",""
"null","","html-keyboard-response","672","773937","0.0-8.0-1.30","","<img src=""img/red-n.png"">","null","trial","null","","0.2,0.8","4:nogo_d","0",""
"null","","html-keyboard-response","673","774941","0.0-8.0-2.30","","<div style=""font-size:60px;"">+</div>","null","","","","","","",""
"809.7949998918921","","image-keyboard-response","674","775751","0.0-8.0-0.31","","img/green.png","32","trial","32","true","0.8,0.2","3:go_c","",""
"null","","html-keyboard-response","675","776758","0.0-8.0-1.31","","<img src=""img/green-r.png"" border=""10"">","null","trial","32","","0.8,0.2","3:go_c","1",""
"null","","html-keyboard-response","676","777763","0.0-8.0-2.31","","<div style=""font-size:60px;"">+</div>","null","","","","","","",""
"747.9300000704825","","image-keyboard-response","677","778511","0.0-8.0-0.32","","img/green.png","32","trial","32","true","0.8,0.2","3:go_c","",""
"null","","html-keyboard-response","678","779513","0.0-8.0-1.32","","<img src=""img/green-r.png"" border=""10"">","null","trial","32","","0.8,0.2","3:go_c","1",""
"null","","html-keyboard-response","679","780514","0.0-8.0-2.32","","<div style=""font-size:60px;"">+</div>","null","","","","","","",""
"997.4449998699129","","image-keyboard-response","680","781513","0.0-8.0-0.33","","img/yellow.png","32","trial","32","true","0.8,0.2","1:go_a","",""
"null","","html-keyboard-response","681","782514","0.0-8.0-1.33","","<img src=""img/yellow-n.png"" border=""10"">","null","trial","32","","0.8,0.2","1:go_a","0",""
"null","","html-keyboard-response","682","783516","0.0-8.0-2.33","","<div style=""font-size:60px;"">+</div>","null","","","","","","",""
