"rt","url","trial_type","trial_index","time_elapsed","internal_node_id","view_history","stimulus","key_press","test_part","correct_response","correct","use_rew","which_stim","reward","responses"
"1533.1000000005588","consent.html","external-html","0","1624","0.0-0.0","","","","","","","","","",""
"34641.78000000538","","instructions","1","36268","0.0-1.0","[{""page_index"":0,""viewing_time"":2048.899999994319},{""page_index"":1,""viewing_time"":10432.380000012927},{""page_index"":2,""viewing_time"":3547.5100000039674},{""page_index"":3,""viewing_time"":6076.014999998733},{""page_index"":4,""viewing_time"":6508.105000015348},{""page_index"":5,""viewing_time"":4192.3749999841675},{""page_index"":6,""viewing_time"":1835.8550000120886}]","","","","","","","","",""
"430.8200000086799","","image-keyboard-response","2","36700","0.0-2.0-0.0","","img/test3.PNG","32","practice","null","false","","","",""
"null","","html-keyboard-response","3","37702","0.0-2.0-1.0","","<img src=""img/test3-neutral.PNG"" border=""10px; grey"">","null","","","","","","",""
"null","","html-keyboard-response","4","38704","0.0-2.0-2.0","","<div style=""font-size:60px;"">+</div>","null","","","","","","",""
"328.5100000211969","","image-keyboard-response","5","39033","0.0-2.0-0.1","","img/test1.PNG","32","practice","32","true","","","",""
"null","","html-keyboard-response","6","40034","0.0-2.0-1.1","","<img src=""img/test1-reward.PNG"" border=""10px; grey"">","null","","","","","","",""
"null","","html-keyboard-response","7","41036","0.0-2.0-2.1","","<div style=""font-size:60px;"">+</div>","null","","","","","","",""
"487.2099999920465","","image-keyboard-response","8","41524","0.0-2.0-0.2","","img/test2.PNG","32","practice","null","false","","","",""
"null","","html-keyboard-response","9","42525","0.0-2.0-1.2","","<img src=""img/test2-neutral.PNG"" border=""10px; grey"">","null","","","","","","",""
"null","","html-keyboard-response","10","43527","0.0-2.0-2.2","","<div style=""font-size:60px;"">+</div>","null","","","","","","",""
"null","","image-keyboard-response","11","45029","0.0-2.0-0.3","","img/test3.PNG","null","practice","null","true","","","",""
"null","","html-keyboard-response","12","46030","0.0-2.0-1.3","","<img src=""img/test3-reward.PNG"">","null","","","","","","",""
"null","","html-keyboard-response","13","47032","0.0-2.0-2.3","","<div style=""font-size:60px;"">+</div>","null","","","","","","",""
"536.9599999976344","","image-keyboard-response","14","47570","0.0-2.0-0.4","","img/test2.PNG","32","practice","null","false","","","",""
"null","","html-keyboard-response","15","48571","0.0-2.0-1.4","","<img src=""img/test2-neutral.PNG"" border=""10px; grey"">","null","","","","","","",""
"null","","html-keyboard-response","16","49572","0.0-2.0-2.4","","<div style=""font-size:60px;"">+</div>","null","","","","","","",""
"404.81000003637746","","image-keyboard-response","17","49978","0.0-2.0-0.5","","img/test1.PNG","32","practice","32","true","","","",""
"null","","html-keyboard-response","18","50980","0.0-2.0-1.5","","<img src=""img/test1-reward.PNG"" border=""10px; grey"">","null","","","","","","",""
"null","","html-keyboard-response","19","51981","0.0-2.0-2.5","","<div style=""font-size:60px;"">+</div>","null","","","","","","",""
"null","","image-keyboard-response","20","53483","0.0-2.0-0.6","","img/test2.PNG","null","practice","null","true","","","",""
"null","","html-keyboard-response","21","54485","0.0-2.0-1.6","","<img src=""img/test2-reward.PNG"">","null","","","","","","",""
"null","","html-keyboard-response","22","55486","0.0-2.0-2.6","","<div style=""font-size:60px;"">+</div>","null","","","","","","",""
"441.1050000344403","","image-keyboard-response","23","55928","0.0-2.0-0.7","","img/test1.PNG","32","practice","32","true","","","",""
"null","","html-keyboard-response","24","56929","0.0-2.0-1.7","","<img src=""img/test1-reward.PNG"" border=""10px; grey"">","null","","","","","","",""
"null","","html-keyboard-response","25","57931","0.0-2.0-2.7","","<div style=""font-size:60px;"">+</div>","null","","","","","","",""
"380.91000000713393","","image-keyboard-response","26","58313","0.0-2.0-0.8","","img/test3.PNG","32","practice","null","false","","","",""
"null","","html-keyboard-response","27","59313","0.0-2.0-1.8","","<img src=""img/test3-neutral.PNG"" border=""10px; grey"">","null","","","","","","",""
"null","","html-keyboard-response","28","60314","0.0-2.0-2.8","","<div style=""font-size:60px;"">+</div>","null","","","","","","",""
"512.7499999944121","","image-keyboard-response","29","60828","0.0-2.0-0.9","","img/test3.PNG","32","practice","null","false","","","",""
"null","","html-keyboard-response","30","61829","0.0-2.0-1.9","","<img src=""img/test3-neutral.PNG"" border=""10px; grey"">","null","","","","","","",""
"null","","html-keyboard-response","31","62831","0.0-2.0-2.9","","<div style=""font-size:60px;"">+</div>","null","","","","","","",""
"545.6400000257418","","image-keyboard-response","32","63377","0.0-2.0-0.10","","img/test2.PNG","32","practice","null","false","","","",""
"null","","html-keyboard-response","33","64379","0.0-2.0-1.10","","<img src=""img/test2-neutral.PNG"" border=""10px; grey"">","null","","","","","","",""
"null","","html-keyboard-response","34","65381","0.0-2.0-2.10","","<div style=""font-size:60px;"">+</div>","null","","","","","","",""
"359.34500000439584","","image-keyboard-response","35","65741","0.0-2.0-0.11","","img/test1.PNG","32","practice","32","true","","","",""
"null","","html-keyboard-response","36","66743","0.0-2.0-1.11","","<img src=""img/test1-reward.PNG"" border=""10px; grey"">","null","","","","","","",""
"null","","html-keyboard-response","37","67744","0.0-2.0-2.11","","<div style=""font-size:60px;"">+</div>","null","","","","","","",""
"3091.1750000086613","","instructions","38","70835","0.0-3.0","[{""page_index"":0,""viewing_time"":3090.844999998808}]","","","","","","","","",""
"424.9800000106916","","image-keyboard-response","39","71262","0.0-4.0-0.0","","img/orange.png","32","trial","32","true","0.8,0.2","1:go_a","",""
"null","","html-keyboard-response","40","72264","0.0-4.0-1.0","","<img src=""img/orange-n.png"" border=""10"">","null","trial","32","","0.8,0.2","1:go_a","0",""
"null","","html-keyboard-response","41","73265","0.0-4.0-2.0","","<div style=""font-size:60px;"">+</div>","null","","","","","","",""
"370.4549999674782","","image-keyboard-response","42","73636","0.0-4.0-0.1","","img/pink.png","32","trial","null","false","0.2,0.8","2:nogo_b","",""
"null","","html-keyboard-response","43","74637","0.0-4.0-1.1","","<img src=""img/pink-n.png"" border=""10"">","null","trial","null","","0.2,0.8","2:nogo_b","0",""
"null","","html-keyboard-response","44","75638","0.0-4.0-2.1","","<div style=""font-size:60px;"">+</div>","null","","","","","","",""
"446.62000000244007","","image-keyboard-response","45","76086","0.0-4.0-0.2","","img/orange.png","32","trial","32","true","0.8,0.2","1:go_a","",""
"null","","html-keyboard-response","46","77088","0.0-4.0-1.2","","<img src=""img/orange-r.png"" border=""10"">","null","trial","32","","0.8,0.2","1:go_a","1",""
"null","","html-keyboard-response","47","78089","0.0-4.0-2.2","","<div style=""font-size:60px;"">+</div>","null","","","","","","",""
"460.4599999729544","","image-keyboard-response","48","78550","0.0-4.0-0.3","","img/pink.png","32","trial","null","false","0.2,0.8","2:nogo_b","",""
"null","","html-keyboard-response","49","79552","0.0-4.0-1.3","","<img src=""img/pink-n.png"" border=""10"">","null","trial","null","","0.2,0.8","2:nogo_b","0",""
"null","","html-keyboard-response","50","80554","0.0-4.0-2.3","","<div style=""font-size:60px;"">+</div>","null","","","","","","",""
"null","","image-keyboard-response","51","82055","0.0-4.0-0.4","","img/pink.png","null","trial","null","true","0.2,0.8","2:nogo_b","",""
"null","","html-keyboard-response","52","83057","0.0-4.0-1.4","","<img src=""img/pink-r.png"">","null","trial","null","","0.2,0.8","2:nogo_b","1",""
"null","","html-keyboard-response","53","84059","0.0-4.0-2.4","","<div style=""font-size:60px;"">+</div>","null","","","","","","",""
"748.1499999994412","","image-keyboard-response","54","84808","0.0-4.0-0.5","","img/orange.png","32","trial","32","true","0.8,0.2","1:go_a","",""
"null","","html-keyboard-response","55","85810","0.0-4.0-1.5","","<img src=""img/orange-r.png"" border=""10"">","null","trial","32","","0.8,0.2","1:go_a","1",""
"null","","html-keyboard-response","56","86812","0.0-4.0-2.5","","<div style=""font-size:60px;"">+</div>","null","","","","","","",""
"null","","image-keyboard-response","57","88313","0.0-4.0-0.6","","img/pink.png","null","trial","null","true","0.2,0.8","2:nogo_b","",""
"null","","html-keyboard-response","58","89320","0.0-4.0-1.6","","<img src=""img/pink-n.png"">","null","trial","null","","0.2,0.8","2:nogo_b","0",""
"null","","html-keyboard-response","59","90321","0.0-4.0-2.6","","<div style=""font-size:60px;"">+</div>","null","","","","","","",""
"353.4450000151992","","image-keyboard-response","60","90675","0.0-4.0-0.7","","img/orange.png","32","trial","32","true","0.8,0.2","1:go_a","",""
"null","","html-keyboard-response","61","91678","0.0-4.0-1.7","","<img src=""img/orange-r.png"" border=""10"">","null","trial","32","","0.8,0.2","1:go_a","1",""
"null","","html-keyboard-response","62","92679","0.0-4.0-2.7","","<div style=""font-size:60px;"">+</div>","null","","","","","","",""
"null","","image-keyboard-response","63","94180","0.0-4.0-0.8","","img/pink.png","null","trial","null","true","0.2,0.8","2:nogo_b","",""
"null","","html-keyboard-response","64","95183","0.0-4.0-1.8","","<img src=""img/pink-r.png"">","null","trial","null","","0.2,0.8","2:nogo_b","1",""
"null","","html-keyboard-response","65","96189","0.0-4.0-2.8","","<div style=""font-size:60px;"">+</div>","null","","","","","","",""
"393.41499999864027","","image-keyboard-response","66","96583","0.0-4.0-0.9","","img/orange.png","32","trial","32","true","0.8,0.2","1:go_a","",""
"null","","html-keyboard-response","67","97585","0.0-4.0-1.9","","<img src=""img/orange-n.png"" border=""10"">","null","trial","32","","0.8,0.2","1:go_a","0",""
"null","","html-keyboard-response","68","98585","0.0-4.0-2.9","","<div style=""font-size:60px;"">+</div>","null","","","","","","",""
"411.9899999932386","","image-keyboard-response","69","98998","0.0-4.0-0.10","","img/pink.png","32","trial","null","false","0.2,0.8","2:nogo_b","",""
"null","","html-keyboard-response","70","100001","0.0-4.0-1.10","","<img src=""img/pink-n.png"" border=""10"">","null","trial","null","","0.2,0.8","2:nogo_b","0",""
"null","","html-keyboard-response","71","101004","0.0-4.0-2.10","","<div style=""font-size:60px;"">+</div>","null","","","","","","",""
"471.35499998694286","","image-keyboard-response","72","101476","0.0-4.0-0.11","","img/orange.png","32","trial","32","true","0.8,0.2","1:go_a","",""
"null","","html-keyboard-response","73","102477","0.0-4.0-1.11","","<img src=""img/orange-r.png"" border=""10"">","null","trial","32","","0.8,0.2","1:go_a","1",""
"null","","html-keyboard-response","74","103478","0.0-4.0-2.11","","<div style=""font-size:60px;"">+</div>","null","","","","","","",""
"505.0850000116043","","image-keyboard-response","75","103984","0.0-4.0-0.12","","img/orange.png","32","trial","32","true","0.8,0.2","1:go_a","",""
"null","","html-keyboard-response","76","104986","0.0-4.0-1.12","","<img src=""img/orange-r.png"" border=""10"">","null","trial","32","","0.8,0.2","1:go_a","1",""
"null","","html-keyboard-response","77","105987","0.0-4.0-2.12","","<div style=""font-size:60px;"">+</div>","null","","","","","","",""
"null","","image-keyboard-response","78","107489","0.0-4.0-0.13","","img/pink.png","null","trial","null","true","0.2,0.8","2:nogo_b","",""
"null","","html-keyboard-response","79","108491","0.0-4.0-1.13","","<img src=""img/pink-r.png"">","null","trial","null","","0.2,0.8","2:nogo_b","1",""
"null","","html-keyboard-response","80","109492","0.0-4.0-2.13","","<div style=""font-size:60px;"">+</div>","null","","","","","","",""
"null","","image-keyboard-response","81","110993","0.0-4.0-0.14","","img/pink.png","null","trial","null","true","0.2,0.8","2:nogo_b","",""
"null","","html-keyboard-response","82","111994","0.0-4.0-1.14","","<img src=""img/pink-r.png"">","null","trial","null","","0.2,0.8","2:nogo_b","1",""
"null","","html-keyboard-response","83","112995","0.0-4.0-2.14","","<div style=""font-size:60px;"">+</div>","null","","","","","","",""
"347.68000000622123","","image-keyboard-response","84","113344","0.0-4.0-0.15","","img/orange.png","32","trial","32","true","0.8,0.2","1:go_a","",""
"null","","html-keyboard-response","85","114345","0.0-4.0-1.15","","<img src=""img/orange-n.png"" border=""10"">","null","trial","32","","0.8,0.2","1:go_a","0",""
"null","","html-keyboard-response","86","115345","0.0-4.0-2.15","","<div style=""font-size:60px;"">+</div>","null","","","","","","",""
"356.57499998342246","","image-keyboard-response","87","115703","0.0-4.0-0.16","","img/pink.png","32","trial","null","false","0.2,0.8","2:nogo_b","",""
"null","","html-keyboard-response","88","116704","0.0-4.0-1.16","","<img src=""img/pink-n.png"" border=""10"">","null","trial","null","","0.2,0.8","2:nogo_b","0",""
"null","","html-keyboard-response","89","117707","0.0-4.0-2.16","","<div style=""font-size:60px;"">+</div>","null","","","","","","",""
"706.4350000000559","","image-keyboard-response","90","118414","0.0-4.0-0.17","","img/orange.png","32","trial","32","true","0.8,0.2","1:go_a","",""
"null","","html-keyboard-response","91","119415","0.0-4.0-1.17","","<img src=""img/orange-n.png"" border=""10"">","null","trial","32","","0.8,0.2","1:go_a","0",""
"null","","html-keyboard-response","92","120416","0.0-4.0-2.17","","<div style=""font-size:60px;"">+</div>","null","","","","","","",""
"null","","image-keyboard-response","93","121918","0.0-4.0-0.18","","img/pink.png","null","trial","null","true","0.2,0.8","2:nogo_b","",""
"null","","html-keyboard-response","94","122920","0.0-4.0-1.18","","<img src=""img/pink-n.png"">","null","trial","null","","0.2,0.8","2:nogo_b","0",""
"null","","html-keyboard-response","95","123922","0.0-4.0-2.18","","<div style=""font-size:60px;"">+</div>","null","","","","","","",""
"773.5100000281818","","image-keyboard-response","96","124696","0.0-4.0-0.19","","img/orange.png","32","trial","32","true","0.8,0.2","1:go_a","",""
"null","","html-keyboard-response","97","125698","0.0-4.0-1.19","","<img src=""img/orange-n.png"" border=""10"">","null","trial","32","","0.8,0.2","1:go_a","0",""
"null","","html-keyboard-response","98","126699","0.0-4.0-2.19","","<div style=""font-size:60px;"">+</div>","null","","","","","","",""
"null","","image-keyboard-response","99","128200","0.0-4.0-0.20","","img/pink.png","null","trial","null","true","0.2,0.8","2:nogo_b","",""
"null","","html-keyboard-response","100","129202","0.0-4.0-1.20","","<img src=""img/pink-n.png"">","null","trial","null","","0.2,0.8","2:nogo_b","0",""
"null","","html-keyboard-response","101","130203","0.0-4.0-2.20","","<div style=""font-size:60px;"">+</div>","null","","","","","","",""
"533.7949999957345","","image-keyboard-response","102","130737","0.0-4.0-0.21","","img/orange.png","32","trial","32","true","0.8,0.2","1:go_a","",""
"null","","html-keyboard-response","103","131738","0.0-4.0-1.21","","<img src=""img/orange-r.png"" border=""10"">","null","trial","32","","0.8,0.2","1:go_a","1",""
"null","","html-keyboard-response","104","132740","0.0-4.0-2.21","","<div style=""font-size:60px;"">+</div>","null","","","","","","",""
"null","","image-keyboard-response","105","134242","0.0-4.0-0.22","","img/pink.png","null","trial","null","true","0.2,0.8","2:nogo_b","",""
"null","","html-keyboard-response","106","135244","0.0-4.0-1.22","","<img src=""img/pink-r.png"">","null","trial","null","","0.2,0.8","2:nogo_b","1",""
"null","","html-keyboard-response","107","136245","0.0-4.0-2.22","","<div style=""font-size:60px;"">+</div>","null","","","","","","",""
"426.6749999951571","","image-keyboard-response","108","136672","0.0-4.0-0.23","","img/orange.png","32","trial","32","true","0.8,0.2","1:go_a","",""
"null","","html-keyboard-response","109","137673","0.0-4.0-1.23","","<img src=""img/orange-n.png"" border=""10"">","null","trial","32","","0.8,0.2","1:go_a","0",""
"null","","html-keyboard-response","110","138674","0.0-4.0-2.23","","<div style=""font-size:60px;"">+</div>","null","","","","","","",""
"992.7150000003166","","image-keyboard-response","111","139667","0.0-4.0-0.24","","img/orange.png","32","trial","32","true","0.8,0.2","1:go_a","",""
"null","","html-keyboard-response","112","140669","0.0-4.0-1.24","","<img src=""img/orange-r.png"" border=""10"">","null","trial","32","","0.8,0.2","1:go_a","1",""
"null","","html-keyboard-response","113","141671","0.0-4.0-2.24","","<div style=""font-size:60px;"">+</div>","null","","","","","","",""
"null","","image-keyboard-response","114","143173","0.0-4.0-0.25","","img/pink.png","null","trial","null","true","0.2,0.8","2:nogo_b","",""
"null","","html-keyboard-response","115","144175","0.0-4.0-1.25","","<img src=""img/pink-r.png"">","null","trial","null","","0.2,0.8","2:nogo_b","1",""
"null","","html-keyboard-response","116","145176","0.0-4.0-2.25","","<div style=""font-size:60px;"">+</div>","null","","","","","","",""
"407.5799999991432","","image-keyboard-response","117","145584","0.0-4.0-0.26","","img/orange.png","32","trial","32","true","0.8,0.2","1:go_a","",""
"null","","html-keyboard-response","118","146585","0.0-4.0-1.26","","<img src=""img/orange-r.png"" border=""10"">","null","trial","32","","0.8,0.2","1:go_a","1",""
"null","","html-keyboard-response","119","147601","0.0-4.0-2.26","","<div style=""font-size:60px;"">+</div>","null","","","","","","",""
"null","","image-keyboard-response","120","149102","0.0-4.0-0.27","","img/pink.png","null","trial","null","true","0.2,0.8","2:nogo_b","",""
"null","","html-keyboard-response","121","150104","0.0-4.0-1.27","","<img src=""img/pink-r.png"">","null","trial","null","","0.2,0.8","2:nogo_b","1",""
"null","","html-keyboard-response","122","151104","0.0-4.0-2.27","","<div style=""font-size:60px;"">+</div>","null","","","","","","",""
"450.9499999694526","","image-keyboard-response","123","151556","0.0-4.0-0.28","","img/orange.png","32","trial","32","true","0.8,0.2","1:go_a","",""
"null","","html-keyboard-response","124","152558","0.0-4.0-1.28","","<img src=""img/orange-r.png"" border=""10"">","null","trial","32","","0.8,0.2","1:go_a","1",""
"null","","html-keyboard-response","125","153559","0.0-4.0-2.28","","<div style=""font-size:60px;"">+</div>","null","","","","","","",""
"null","","image-keyboard-response","126","155060","0.0-4.0-0.29","","img/pink.png","null","trial","null","true","0.2,0.8","2:nogo_b","",""
"null","","html-keyboard-response","127","156063","0.0-4.0-1.29","","<img src=""img/pink-r.png"">","null","trial","null","","0.2,0.8","2:nogo_b","1",""
"null","","html-keyboard-response","128","157064","0.0-4.0-2.29","","<div style=""font-size:60px;"">+</div>","null","","","","","","",""
"344.50000000651926","","image-keyboard-response","129","157409","0.0-4.0-0.30","","img/orange.png","32","trial","32","true","0.8,0.2","1:go_a","",""
"null","","html-keyboard-response","130","158414","0.0-4.0-1.30","","<img src=""img/orange-n.png"" border=""10"">","null","trial","32","","0.8,0.2","1:go_a","0",""
"null","","html-keyboard-response","131","159414","0.0-4.0-2.30","","<div style=""font-size:60px;"">+</div>","null","","","","","","",""
"null","","image-keyboard-response","132","160916","0.0-4.0-0.31","","img/pink.png","null","trial","null","true","0.2,0.8","2:nogo_b","",""
"null","","html-keyboard-response","133","161919","0.0-4.0-1.31","","<img src=""img/pink-n.png"">","null","trial","null","","0.2,0.8","2:nogo_b","0",""
"null","","html-keyboard-response","134","162920","0.0-4.0-2.31","","<div style=""font-size:60px;"">+</div>","null","","","","","","",""
"460.26500000152737","","image-keyboard-response","135","163381","0.0-4.0-0.32","","img/orange.png","32","trial","32","true","0.8,0.2","1:go_a","",""
"null","","html-keyboard-response","136","164382","0.0-4.0-1.32","","<img src=""img/orange-r.png"" border=""10"">","null","trial","32","","0.8,0.2","1:go_a","1",""
"null","","html-keyboard-response","137","165384","0.0-4.0-2.32","","<div style=""font-size:60px;"">+</div>","null","","","","","","",""
"null","","image-keyboard-response","138","166886","0.0-4.0-0.33","","img/pink.png","null","trial","null","true","0.2,0.8","2:nogo_b","",""
"null","","html-keyboard-response","139","167887","0.0-4.0-1.33","","<img src=""img/pink-r.png"">","null","trial","null","","0.2,0.8","2:nogo_b","1",""
"null","","html-keyboard-response","140","168888","0.0-4.0-2.33","","<div style=""font-size:60px;"">+</div>","null","","","","","","",""
"null","","image-keyboard-response","141","170390","0.0-4.0-0.34","","img/pink.png","null","trial","null","true","0.2,0.8","2:nogo_b","",""
"null","","html-keyboard-response","142","171392","0.0-4.0-1.34","","<img src=""img/pink-n.png"">","null","trial","null","","0.2,0.8","2:nogo_b","0",""
"null","","html-keyboard-response","143","172393","0.0-4.0-2.34","","<div style=""font-size:60px;"">+</div>","null","","","","","","",""
"670.7049999968149","","image-keyboard-response","144","173065","0.0-4.0-0.35","","img/orange.png","32","trial","32","true","0.8,0.2","1:go_a","",""
"null","","html-keyboard-response","145","174067","0.0-4.0-1.35","","<img src=""img/orange-r.png"" border=""10"">","null","trial","32","","0.8,0.2","1:go_a","1",""
"null","","html-keyboard-response","146","175068","0.0-4.0-2.35","","<div style=""font-size:60px;"">+</div>","null","","","","","","",""
"943.265000008978","","image-keyboard-response","147","176012","0.0-4.0-0.36","","img/orange.png","32","trial","32","true","0.8,0.2","1:go_a","",""
"null","","html-keyboard-response","148","177014","0.0-4.0-1.36","","<img src=""img/orange-r.png"" border=""10"">","null","trial","32","","0.8,0.2","1:go_a","1",""
"null","","html-keyboard-response","149","178016","0.0-4.0-2.36","","<div style=""font-size:60px;"">+</div>","null","","","","","","",""
"null","","image-keyboard-response","150","179517","0.0-4.0-0.37","","img/pink.png","null","trial","null","true","0.2,0.8","2:nogo_b","",""
"null","","html-keyboard-response","151","180519","0.0-4.0-1.37","","<img src=""img/pink-n.png"">","null","trial","null","","0.2,0.8","2:nogo_b","0",""
"null","","html-keyboard-response","152","181520","0.0-4.0-2.37","","<div style=""font-size:60px;"">+</div>","null","","","","","","",""
"417.6749999751337","","image-keyboard-response","153","181939","0.0-4.0-0.38","","img/orange.png","32","trial","32","true","0.8,0.2","1:go_a","",""
"null","","html-keyboard-response","154","182940","0.0-4.0-1.38","","<img src=""img/orange-r.png"" border=""10"">","null","trial","32","","0.8,0.2","1:go_a","1",""
"null","","html-keyboard-response","155","183943","0.0-4.0-2.38","","<div style=""font-size:60px;"">+</div>","null","","","","","","",""
"null","","image-keyboard-response","156","185444","0.0-4.0-0.39","","img/pink.png","null","trial","null","true","0.2,0.8","2:nogo_b","",""
"null","","html-keyboard-response","157","186445","0.0-4.0-1.39","","<img src=""img/pink-r.png"">","null","trial","null","","0.2,0.8","2:nogo_b","1",""
"null","","html-keyboard-response","158","187446","0.0-4.0-2.39","","<div style=""font-size:60px;"">+</div>","null","","","","","","",""
"null","","image-keyboard-response","159","188948","0.0-4.0-0.40","","img/pink.png","null","trial","null","true","0.2,0.8","2:nogo_b","",""
"null","","html-keyboard-response","160","189950","0.0-4.0-1.40","","<img src=""img/pink-r.png"">","null","trial","null","","0.2,0.8","2:nogo_b","1",""
"null","","html-keyboard-response","161","190951","0.0-4.0-2.40","","<div style=""font-size:60px;"">+</div>","null","","","","","","",""
"380.2100000320934","","image-keyboard-response","162","191332","0.0-4.0-0.41","","img/orange.png","32","trial","32","true","0.8,0.2","1:go_a","",""
"null","","html-keyboard-response","163","192334","0.0-4.0-1.41","","<img src=""img/orange-r.png"" border=""10"">","null","trial","32","","0.8,0.2","1:go_a","1",""
"null","","html-keyboard-response","164","193336","0.0-4.0-2.41","","<div style=""font-size:60px;"">+</div>","null","","","","","","",""
"null","","image-keyboard-response","165","194836","0.0-4.0-0.42","","img/pink.png","null","trial","null","true","0.2,0.8","2:nogo_b","",""
"null","","html-keyboard-response","166","195838","0.0-4.0-1.42","","<img src=""img/pink-r.png"">","null","trial","null","","0.2,0.8","2:nogo_b","1",""
"null","","html-keyboard-response","167","196839","0.0-4.0-2.42","","<div style=""font-size:60px;"">+</div>","null","","","","","","",""
"343.46999996341765","","image-keyboard-response","168","197183","0.0-4.0-0.43","","img/orange.png","32","trial","32","true","0.8,0.2","1:go_a","",""
"null","","html-keyboard-response","169","198185","0.0-4.0-1.43","","<img src=""img/orange-r.png"" border=""10"">","null","trial","32","","0.8,0.2","1:go_a","1",""
"null","","html-keyboard-response","170","199186","0.0-4.0-2.43","","<div style=""font-size:60px;"">+</div>","null","","","","","","",""
"487.95999999856576","","image-keyboard-response","171","199675","0.0-4.0-0.44","","img/orange.png","32","trial","32","true","0.8,0.2","1:go_a","",""
"null","","html-keyboard-response","172","200677","0.0-4.0-1.44","","<img src=""img/orange-n.png"" border=""10"">","null","trial","32","","0.8,0.2","1:go_a","0",""
"null","","html-keyboard-response","173","201678","0.0-4.0-2.44","","<div style=""font-size:60px;"">+</div>","null","","","","","","",""
"null","","image-keyboard-response","174","203179","0.0-4.0-0.45","","img/pink.png","null","trial","null","true","0.2,0.8","2:nogo_b","",""
"null","","html-keyboard-response","175","204181","0.0-4.0-1.45","","<img src=""img/pink-r.png"">","null","trial","null","","0.2,0.8","2:nogo_b","1",""
"null","","html-keyboard-response","176","205182","0.0-4.0-2.45","","<div style=""font-size:60px;"">+</div>","null","","","","","","",""
"396.8449999811128","","image-keyboard-response","177","205580","0.0-4.0-0.46","","img/orange.png","32","trial","32","true","0.8,0.2","1:go_a","",""
"null","","html-keyboard-response","178","206581","0.0-4.0-1.46","","<img src=""img/orange-r.png"" border=""10"">","null","trial","32","","0.8,0.2","1:go_a","1",""
"null","","html-keyboard-response","179","207582","0.0-4.0-2.46","","<div style=""font-size:60px;"">+</div>","null","","","","","","",""
"null","","image-keyboard-response","180","209085","0.0-4.0-0.47","","img/pink.png","null","trial","null","true","0.2,0.8","2:nogo_b","",""
"null","","html-keyboard-response","181","210086","0.0-4.0-1.47","","<img src=""img/pink-n.png"">","null","trial","null","","0.2,0.8","2:nogo_b","0",""
"null","","html-keyboard-response","182","211090","0.0-4.0-2.47","","<div style=""font-size:60px;"">+</div>","null","","","","","","",""
"396.660000027623","","image-keyboard-response","183","211487","0.0-4.0-0.48","","img/orange.png","32","trial","32","true","0.8,0.2","1:go_a","",""
"null","","html-keyboard-response","184","212488","0.0-4.0-1.48","","<img src=""img/orange-r.png"" border=""10"">","null","trial","32","","0.8,0.2","1:go_a","1",""
"null","","html-keyboard-response","185","213489","0.0-4.0-2.48","","<div style=""font-size:60px;"">+</div>","null","","","","","","",""
"null","","image-keyboard-response","186","214990","0.0-4.0-0.49","","img/pink.png","null","trial","null","true","0.2,0.8","2:nogo_b","",""
"null","","html-keyboard-response","187","215991","0.0-4.0-1.49","","<img src=""img/pink-r.png"">","null","trial","null","","0.2,0.8","2:nogo_b","1",""
"null","","html-keyboard-response","188","216993","0.0-4.0-2.49","","<div style=""font-size:60px;"">+</div>","null","","","","","","",""
"null","","image-keyboard-response","189","218494","0.0-4.0-0.50","","img/pink.png","null","trial","null","true","0.2,0.8","2:nogo_b","",""
"null","","html-keyboard-response","190","219495","0.0-4.0-1.50","","<img src=""img/pink-r.png"">","null","trial","null","","0.2,0.8","2:nogo_b","1",""
"null","","html-keyboard-response","191","220496","0.0-4.0-2.50","","<div style=""font-size:60px;"">+</div>","null","","","","","","",""
"355.8000000193715","","image-keyboard-response","192","220853","0.0-4.0-0.51","","img/orange.png","32","trial","32","true","0.8,0.2","1:go_a","",""
"null","","html-keyboard-response","193","221854","0.0-4.0-1.51","","<img src=""img/orange-r.png"" border=""10"">","null","trial","32","","0.8,0.2","1:go_a","1",""
"null","","html-keyboard-response","194","222856","0.0-4.0-2.51","","<div style=""font-size:60px;"">+</div>","null","","","","","","",""
"null","","image-keyboard-response","195","224357","0.0-4.0-0.52","","img/pink.png","null","trial","null","true","0.2,0.8","2:nogo_b","",""
"null","","html-keyboard-response","196","225359","0.0-4.0-1.52","","<img src=""img/pink-r.png"">","null","trial","null","","0.2,0.8","2:nogo_b","1",""
"null","","html-keyboard-response","197","226360","0.0-4.0-2.52","","<div style=""font-size:60px;"">+</div>","null","","","","","","",""
"392.6849999697879","","image-keyboard-response","198","226754","0.0-4.0-0.53","","img/orange.png","32","trial","32","true","0.8,0.2","1:go_a","",""
"null","","html-keyboard-response","199","227762","0.0-4.0-1.53","","<img src=""img/orange-r.png"" border=""10"">","null","trial","32","","0.8,0.2","1:go_a","1",""
"null","","html-keyboard-response","200","228763","0.0-4.0-2.53","","<div style=""font-size:60px;"">+</div>","null","","","","","","",""
"null","","image-keyboard-response","201","230264","0.0-4.0-0.54","","img/pink.png","null","trial","null","true","0.2,0.8","2:nogo_b","",""
"null","","html-keyboard-response","202","231266","0.0-4.0-1.54","","<img src=""img/pink-r.png"">","null","trial","null","","0.2,0.8","2:nogo_b","1",""
"null","","html-keyboard-response","203","232267","0.0-4.0-2.54","","<div style=""font-size:60px;"">+</div>","null","","","","","","",""
"431.9749999558553","","image-keyboard-response","204","232700","0.0-4.0-0.55","","img/orange.png","32","trial","32","true","0.8,0.2","1:go_a","",""
"null","","html-keyboard-response","205","233702","0.0-4.0-1.55","","<img src=""img/orange-r.png"" border=""10"">","null","trial","32","","0.8,0.2","1:go_a","1",""
"null","","html-keyboard-response","206","234704","0.0-4.0-2.55","","<div style=""font-size:60px;"">+</div>","null","","","","","","",""
"863.855000003241","","image-keyboard-response","207","235569","0.0-4.0-0.56","","img/pink.png","32","trial","null","false","0.2,0.8","2:nogo_b","",""
"null","","html-keyboard-response","208","236570","0.0-4.0-1.56","","<img src=""img/pink-n.png"" border=""10"">","null","trial","null","","0.2,0.8","2:nogo_b","0",""
"null","","html-keyboard-response","209","237572","0.0-4.0-2.56","","<div style=""font-size:60px;"">+</div>","null","","","","","","",""
"570.1199999894015","","image-keyboard-response","210","238143","0.0-4.0-0.57","","img/orange.png","32","trial","32","true","0.8,0.2","1:go_a","",""
"null","","html-keyboard-response","211","239144","0.0-4.0-1.57","","<img src=""img/orange-n.png"" border=""10"">","null","trial","32","","0.8,0.2","1:go_a","0",""
"null","","html-keyboard-response","212","240145","0.0-4.0-2.57","","<div style=""font-size:60px;"">+</div>","null","","","","","","",""
"556.8199999979697","","image-keyboard-response","213","240702","0.0-4.0-0.58","","img/orange.png","32","trial","32","true","0.8,0.2","1:go_a","",""
"null","","html-keyboard-response","214","241704","0.0-4.0-1.58","","<img src=""img/orange-r.png"" border=""10"">","null","trial","32","","0.8,0.2","1:go_a","1",""
"null","","html-keyboard-response","215","242705","0.0-4.0-2.58","","<div style=""font-size:60px;"">+</div>","null","","","","","","",""
"874.9299999908544","","image-keyboard-response","216","243580","0.0-4.0-0.59","","img/pink.png","32","trial","null","false","0.2,0.8","2:nogo_b","",""
"null","","html-keyboard-response","217","244587","0.0-4.0-1.59","","<img src=""img/pink-n.png"" border=""10"">","null","trial","null","","0.2,0.8","2:nogo_b","0",""
"null","","html-keyboard-response","218","245589","0.0-4.0-2.59","","<div style=""font-size:60px;"">+</div>","null","","","","","","",""
"2002.2699999972247","","instructions","219","247591","0.0-5.0","[{""page_index"":0,""viewing_time"":2002.0349999540485}]","","","","","","","","",""
"797.0900000073016","","image-keyboard-response","220","248390","0.0-6.0-0.0","","img/yellow.png","32","trial","32","true","0.8,0.2","1:go_a","",""
"null","","html-keyboard-response","221","249392","0.0-6.0-1.0","","<img src=""img/yellow-r.png"" border=""10"">","null","trial","32","","0.8,0.2","1:go_a","1",""
"null","","html-keyboard-response","222","250393","0.0-6.0-2.0","","<div style=""font-size:60px;"">+</div>","null","","","","","","",""
"313.2949999999255","","image-keyboard-response","223","250707","0.0-6.0-0.1","","img/grey.png","32","trial","null","false","0.2,0.8","2:nogo_b","",""
"null","","html-keyboard-response","224","251715","0.0-6.0-1.1","","<img src=""img/grey-n.png"" border=""10"">","null","trial","null","","0.2,0.8","2:nogo_b","0",""
"null","","html-keyboard-response","225","252718","0.0-6.0-2.1","","<div style=""font-size:60px;"">+</div>","null","","","","","","",""
"537.1949999826029","","image-keyboard-response","226","253256","0.0-6.0-0.2","","img/blue.png","32","trial","null","false","0,1","4:nogo_d","",""
"null","","html-keyboard-response","227","254257","0.0-6.0-1.2","","<img src=""img/blue-n.png"" border=""10"">","null","trial","null","","0,1","4:nogo_d","0",""
"null","","html-keyboard-response","228","255258","0.0-6.0-2.2","","<div style=""font-size:60px;"">+</div>","null","","","","","","",""
"768.6799999792129","","image-keyboard-response","229","256028","0.0-6.0-0.3","","img/pink.png","32","trial","32","true","1,0","3:go_c","",""
"null","","html-keyboard-response","230","257030","0.0-6.0-1.3","","<img src=""img/pink-r.png"" border=""10"">","null","trial","32","","1,0","3:go_c","1",""
"null","","html-keyboard-response","231","258039","0.0-6.0-2.3","","<div style=""font-size:60px;"">+</div>","null","","","","","","",""
"null","","image-keyboard-response","232","259541","0.0-6.0-0.4","","img/grey.png","null","trial","null","true","0.2,0.8","2:nogo_b","",""
"null","","html-keyboard-response","233","260543","0.0-6.0-1.4","","<img src=""img/grey-r.png"">","null","trial","null","","0.2,0.8","2:nogo_b","1",""
"null","","html-keyboard-response","234","261545","0.0-6.0-2.4","","<div style=""font-size:60px;"">+</div>","null","","","","","","",""
"824.7250000131316","","image-keyboard-response","235","262371","0.0-6.0-0.5","","img/pink.png","32","trial","32","true","1,0","3:go_c","",""
"null","","html-keyboard-response","236","263373","0.0-6.0-1.5","","<img src=""img/pink-r.png"" border=""10"">","null","trial","32","","1,0","3:go_c","1",""
"null","","html-keyboard-response","237","264375","0.0-6.0-2.5","","<div style=""font-size:60px;"">+</div>","null","","","","","","",""
"null","","image-keyboard-response","238","265875","0.0-6.0-0.6","","img/blue.png","null","trial","null","true","0,1","4:nogo_d","",""
"null","","html-keyboard-response","239","266877","0.0-6.0-1.6","","<img src=""img/blue-r.png"">","null","trial","null","","0,1","4:nogo_d","1",""
"null","","html-keyboard-response","240","267879","0.0-6.0-2.6","","<div style=""font-size:60px;"">+</div>","null","","","","","","",""
"498.85999999241903","","image-keyboard-response","241","268378","0.0-6.0-0.7","","img/yellow.png","32","trial","32","true","0.8,0.2","1:go_a","",""
"null","","html-keyboard-response","242","269380","0.0-6.0-1.7","","<img src=""img/yellow-n.png"" border=""10"">","null","trial","32","","0.8,0.2","1:go_a","0",""
"null","","html-keyboard-response","243","270381","0.0-6.0-2.7","","<div style=""font-size:60px;"">+</div>","null","","","","","","",""
"493.53499995777383","","image-keyboard-response","244","270876","0.0-6.0-0.8","","img/pink.png","32","trial","32","true","1,0","3:go_c","",""
"null","","html-keyboard-response","245","271877","0.0-6.0-1.8","","<img src=""img/pink-r.png"" border=""10"">","null","trial","32","","1,0","3:go_c","1",""
"null","","html-keyboard-response","246","272880","0.0-6.0-2.8","","<div style=""font-size:60px;"">+</div>","null","","","","","","",""
"751.4150000060908","","image-keyboard-response","247","273632","0.0-6.0-0.9","","img/yellow.png","32","trial","32","true","0.8,0.2","1:go_a","",""
"null","","html-keyboard-response","248","274634","0.0-6.0-1.9","","<img src=""img/yellow-r.png"" border=""10"">","null","trial","32","","0.8,0.2","1:go_a","1",""
"null","","html-keyboard-response","249","275636","0.0-6.0-2.9","","<div style=""font-size:60px;"">+</div>","null","","","","","","",""
"null","","image-keyboard-response","250","277137","0.0-6.0-0.10","","img/blue.png","null","trial","null","true","0,1","4:nogo_d","",""
"null","","html-keyboard-response","251","278139","0.0-6.0-1.10","","<img src=""img/blue-r.png"">","null","trial","null","","0,1","4:nogo_d","1",""
"null","","html-keyboard-response","252","279140","0.0-6.0-2.10","","<div style=""font-size:60px;"">+</div>","null","","","","","","",""
"625.3550000255927","","image-keyboard-response","253","279766","0.0-6.0-0.11","","img/grey.png","32","trial","null","false","0.2,0.8","2:nogo_b","",""
"null","","html-keyboard-response","254","280769","0.0-6.0-1.11","","<img src=""img/grey-r.png"" border=""10"">","null","trial","null","","0.2,0.8","2:nogo_b","1",""
"null","","html-keyboard-response","255","281770","0.0-6.0-2.11","","<div style=""font-size:60px;"">+</div>","null","","","","","","",""
"525.1399999833666","","image-keyboard-response","256","282296","0.0-6.0-0.12","","img/yellow.png","32","trial","32","true","0.8,0.2","1:go_a","",""
"null","","html-keyboard-response","257","283298","0.0-6.0-1.12","","<img src=""img/yellow-r.png"" border=""10"">","null","trial","32","","0.8,0.2","1:go_a","1",""
"null","","html-keyboard-response","258","284299","0.0-6.0-2.12","","<div style=""font-size:60px;"">+</div>","null","","","","","","",""
"407.6900000218302","","image-keyboard-response","259","284708","0.0-6.0-0.13","","img/blue.png","32","trial","null","false","0,1","4:nogo_d","",""
"null","","html-keyboard-response","260","285710","0.0-6.0-1.13","","<img src=""img/blue-n.png"" border=""10"">","null","trial","null","","0,1","4:nogo_d","0",""
"null","","html-keyboard-response","261","286711","0.0-6.0-2.13","","<div style=""font-size:60px;"">+</div>","null","","","","","","",""
"527.925000002142","","image-keyboard-response","262","287240","0.0-6.0-0.14","","img/pink.png","32","trial","32","true","1,0","3:go_c","",""
"null","","html-keyboard-response","263","288241","0.0-6.0-1.14","","<img src=""img/pink-r.png"" border=""10"">","null","trial","32","","1,0","3:go_c","1",""
"null","","html-keyboard-response","264","289242","0.0-6.0-2.14","","<div style=""font-size:60px;"">+</div>","null","","","","","","",""
"641.3199999951757","","image-keyboard-response","265","289884","0.0-6.0-0.15","","img/grey.png","32","trial","null","false","0.2,0.8","2:nogo_b","",""
"null","","html-keyboard-response","266","290885","0.0-6.0-1.15","","<img src=""img/grey-n.png"" border=""10"">","null","trial","null","","0.2,0.8","2:nogo_b","0",""
"null","","html-keyboard-response","267","291888","0.0-6.0-2.15","","<div style=""font-size:60px;"">+</div>","null","","","","","","",""
"426.65000003762543","","image-keyboard-response","268","292315","0.0-6.0-0.16","","img/yellow.png","32","trial","32","true","0.8,0.2","1:go_a","",""
"null","","html-keyboard-response","269","293316","0.0-6.0-1.16","","<img src=""img/yellow-r.png"" border=""10"">","null","trial","32","","0.8,0.2","1:go_a","1",""
"null","","html-keyboard-response","270","294317","0.0-6.0-2.16","","<div style=""font-size:60px;"">+</div>","null","","","","","","",""
"582.8549999860115","","image-keyboard-response","271","294900","0.0-6.0-0.17","","img/grey.png","32","trial","null","false","0.2,0.8","2:nogo_b","",""
"null","","html-keyboard-response","272","295903","0.0-6.0-1.17","","<img src=""img/grey-n.png"" border=""10"">","null","trial","null","","0.2,0.8","2:nogo_b","0",""
"null","","html-keyboard-response","273","296904","0.0-6.0-2.17","","<div style=""font-size:60px;"">+</div>","null","","","","","","",""
"847.2049999982119","","image-keyboard-response","274","297752","0.0-6.0-0.18","","img/blue.png","32","trial","null","false","0,1","4:nogo_d","",""
"null","","html-keyboard-response","275","298754","0.0-6.0-1.18","","<img src=""img/blue-n.png"" border=""10"">","null","trial","null","","0,1","4:nogo_d","0",""
"null","","html-keyboard-response","276","299756","0.0-6.0-2.18","","<div style=""font-size:60px;"">+</div>","null","","","","","","",""
"753.4349999623373","","image-keyboard-response","277","300510","0.0-6.0-0.19","","img/pink.png","32","trial","32","true","1,0","3:go_c","",""
"null","","html-keyboard-response","278","301512","0.0-6.0-1.19","","<img src=""img/pink-r.png"" border=""10"">","null","trial","32","","1,0","3:go_c","1",""
"null","","html-keyboard-response","279","302513","0.0-6.0-2.19","","<div style=""font-size:60px;"">+</div>","null","","","","","","",""
"529.70999997342","","image-keyboard-response","280","303043","0.0-6.0-0.20","","img/pink.png","32","trial","32","true","1,0","3:go_c","",""
"null","","html-keyboard-response","281","304046","0.0-6.0-1.20","","<img src=""img/pink-r.png"" border=""10"">","null","trial","32","","1,0","3:go_c","1",""
"null","","html-keyboard-response","282","305047","0.0-6.0-2.20","","<div style=""font-size:60px;"">+</div>","null","","","","","","",""
"767.8300000261515","","image-keyboard-response","283","305816","0.0-6.0-0.21","","img/yellow.png","32","trial","32","true","0.8,0.2","1:go_a","",""
"null","","html-keyboard-response","284","306818","0.0-6.0-1.21","","<img src=""img/yellow-r.png"" border=""10"">","null","trial","32","","0.8,0.2","1:go_a","1",""
"null","","html-keyboard-response","285","307820","0.0-6.0-2.21","","<div style=""font-size:60px;"">+</div>","null","","","","","","",""
"null","","image-keyboard-response","286","309322","0.0-6.0-0.22","","img/blue.png","null","trial","null","true","0,1","4:nogo_d","",""
"null","","html-keyboard-response","287","310323","0.0-6.0-1.22","","<img src=""img/blue-r.png"">","null","trial","null","","0,1","4:nogo_d","1",""
"null","","html-keyboard-response","288","311325","0.0-6.0-2.22","","<div style=""font-size:60px;"">+</div>","null","","","","","","",""
"null","","image-keyboard-response","289","312826","0.0-6.0-0.23","","img/grey.png","null","trial","null","true","0.2,0.8","2:nogo_b","",""
"null","","html-keyboard-response","290","313829","0.0-6.0-1.23","","<img src=""img/grey-n.png"">","null","trial","null","","0.2,0.8","2:nogo_b","0",""
"null","","html-keyboard-response","291","314831","0.0-6.0-2.23","","<div style=""font-size:60px;"">+</div>","null","","","","","","",""
"null","","image-keyboard-response","292","316332","0.0-6.0-0.24","","img/grey.png","null","trial","null","true","0.2,0.8","2:nogo_b","",""
"null","","html-keyboard-response","293","317334","0.0-6.0-1.24","","<img src=""img/grey-r.png"">","null","trial","null","","0.2,0.8","2:nogo_b","1",""
"null","","html-keyboard-response","294","318344","0.0-6.0-2.24","","<div style=""font-size:60px;"">+</div>","null","","","","","","",""
"836.1949999816716","","image-keyboard-response","295","319181","0.0-6.0-0.25","","img/yellow.png","32","trial","32","true","0.8,0.2","1:go_a","",""
"null","","html-keyboard-response","296","320183","0.0-6.0-1.25","","<img src=""img/yellow-r.png"" border=""10"">","null","trial","32","","0.8,0.2","1:go_a","1",""
"null","","html-keyboard-response","297","321184","0.0-6.0-2.25","","<div style=""font-size:60px;"">+</div>","null","","","","","","",""
"null","","image-keyboard-response","298","322686","0.0-6.0-0.26","","img/blue.png","null","trial","null","true","0,1","4:nogo_d","",""
"null","","html-keyboard-response","299","323689","0.0-6.0-1.26","","<img src=""img/blue-r.png"">","null","trial","null","","0,1","4:nogo_d","1",""
"null","","html-keyboard-response","300","324690","0.0-6.0-2.26","","<div style=""font-size:60px;"">+</div>","null","","","","","","",""
"462.8699999884702","","image-keyboard-response","301","325154","0.0-6.0-0.27","","img/pink.png","32","trial","32","true","1,0","3:go_c","",""
"null","","html-keyboard-response","302","326155","0.0-6.0-1.27","","<img src=""img/pink-r.png"" border=""10"">","null","trial","32","","1,0","3:go_c","1",""
"null","","html-keyboard-response","303","327156","0.0-6.0-2.27","","<div style=""font-size:60px;"">+</div>","null","","","","","","",""
"null","","image-keyboard-response","304","328658","0.0-6.0-0.28","","img/grey.png","null","trial","null","true","0.2,0.8","2:nogo_b","",""
"null","","html-keyboard-response","305","329659","0.0-6.0-1.28","","<img src=""img/grey-r.png"">","null","trial","null","","0.2,0.8","2:nogo_b","1",""
"null","","html-keyboard-response","306","330660","0.0-6.0-2.28","","<div style=""font-size:60px;"">+</div>","null","","","","","","",""
"null","","image-keyboard-response","307","332161","0.0-6.0-0.29","","img/blue.png","null","trial","null","true","0,1","4:nogo_d","",""
"null","","html-keyboard-response","308","333163","0.0-6.0-1.29","","<img src=""img/blue-r.png"">","null","trial","null","","0,1","4:nogo_d","1",""
"null","","html-keyboard-response","309","334164","0.0-6.0-2.29","","<div style=""font-size:60px;"">+</div>","null","","","","","","",""
"589.0550000476651","","image-keyboard-response","310","334754","0.0-6.0-0.30","","img/pink.png","32","trial","32","true","1,0","3:go_c","",""
"null","","html-keyboard-response","311","335756","0.0-6.0-1.30","","<img src=""img/pink-r.png"" border=""10"">","null","trial","32","","1,0","3:go_c","1",""
"null","","html-keyboard-response","312","336758","0.0-6.0-2.30","","<div style=""font-size:60px;"">+</div>","null","","","","","","",""
"589.8800000431947","","image-keyboard-response","313","337349","0.0-6.0-0.31","","img/yellow.png","32","trial","32","true","0.8,0.2","1:go_a","",""
"null","","html-keyboard-response","314","338351","0.0-6.0-1.31","","<img src=""img/yellow-r.png"" border=""10"">","null","trial","32","","0.8,0.2","1:go_a","1",""
"null","","html-keyboard-response","315","339367","0.0-6.0-2.31","","<div style=""font-size:60px;"">+</div>","null","","","","","","",""
"null","","image-keyboard-response","316","340869","0.0-6.0-0.32","","img/pink.png","null","trial","32","false","1,0","3:go_c","",""
"null","","html-keyboard-response","317","341871","0.0-6.0-1.32","","<img src=""img/pink-n.png"">","null","trial","32","","1,0","3:go_c","0",""
"null","","html-keyboard-response","318","342872","0.0-6.0-2.32","","<div style=""font-size:60px;"">+</div>","null","","","","","","",""
"null","","image-keyboard-response","319","344374","0.0-6.0-0.33","","img/blue.png","null","trial","null","true","0,1","4:nogo_d","",""
"null","","html-keyboard-response","320","345376","0.0-6.0-1.33","","<img src=""img/blue-r.png"">","null","trial","null","","0,1","4:nogo_d","1",""
"null","","html-keyboard-response","321","346377","0.0-6.0-2.33","","<div style=""font-size:60px;"">+</div>","null","","","","","","",""
"587.0149999973364","","image-keyboard-response","322","346965","0.0-6.0-0.34","","img/yellow.png","32","trial","32","true","0.8,0.2","1:go_a","",""
"null","","html-keyboard-response","323","347967","0.0-6.0-1.34","","<img src=""img/yellow-r.png"" border=""10"">","null","trial","32","","0.8,0.2","1:go_a","1",""
"null","","html-keyboard-response","324","348968","0.0-6.0-2.34","","<div style=""font-size:60px;"">+</div>","null","","","","","","",""
"null","","image-keyboard-response","325","350469","0.0-6.0-0.35","","img/grey.png","null","trial","null","true","0.2,0.8","2:nogo_b","",""
"null","","html-keyboard-response","326","351470","0.0-6.0-1.35","","<img src=""img/grey-r.png"">","null","trial","null","","0.2,0.8","2:nogo_b","1",""
"null","","html-keyboard-response","327","352471","0.0-6.0-2.35","","<div style=""font-size:60px;"">+</div>","null","","","","","","",""
"null","","image-keyboard-response","328","353973","0.0-6.0-0.36","","img/blue.png","null","trial","null","true","0,1","4:nogo_d","",""
"null","","html-keyboard-response","329","354975","0.0-6.0-1.36","","<img src=""img/blue-r.png"">","null","trial","null","","0,1","4:nogo_d","1",""
"null","","html-keyboard-response","330","355976","0.0-6.0-2.36","","<div style=""font-size:60px;"">+</div>","null","","","","","","",""
"903.8450000225566","","image-keyboard-response","331","356881","0.0-6.0-0.37","","img/pink.png","32","trial","32","true","1,0","3:go_c","",""
"null","","html-keyboard-response","332","357882","0.0-6.0-1.37","","<img src=""img/pink-r.png"" border=""10"">","null","trial","32","","1,0","3:go_c","1",""
"null","","html-keyboard-response","333","358883","0.0-6.0-2.37","","<div style=""font-size:60px;"">+</div>","null","","","","","","",""
"747.1849999856204","","image-keyboard-response","334","359631","0.0-6.0-0.38","","img/yellow.png","32","trial","32","true","0.8,0.2","1:go_a","",""
"null","","html-keyboard-response","335","360634","0.0-6.0-1.38","","<img src=""img/yellow-r.png"" border=""10"">","null","trial","32","","0.8,0.2","1:go_a","1",""
"null","","html-keyboard-response","336","361635","0.0-6.0-2.38","","<div style=""font-size:60px;"">+</div>","null","","","","","","",""
"null","","image-keyboard-response","337","363138","0.0-6.0-0.39","","img/grey.png","null","trial","null","true","0.2,0.8","2:nogo_b","",""
"null","","html-keyboard-response","338","364140","0.0-6.0-1.39","","<img src=""img/grey-r.png"">","null","trial","null","","0.2,0.8","2:nogo_b","1",""
"null","","html-keyboard-response","339","365141","0.0-6.0-2.39","","<div style=""font-size:60px;"">+</div>","null","","","","","","",""
"545.5999999539927","","image-keyboard-response","340","365687","0.0-6.0-0.40","","img/yellow.png","32","trial","32","true","0.8,0.2","1:go_a","",""
"null","","html-keyboard-response","341","366690","0.0-6.0-1.40","","<img src=""img/yellow-r.png"" border=""10"">","null","trial","32","","0.8,0.2","1:go_a","1",""
"null","","html-keyboard-response","342","367691","0.0-6.0-2.40","","<div style=""font-size:60px;"">+</div>","null","","","","","","",""
"461.39000001130626","","image-keyboard-response","343","368153","0.0-6.0-0.41","","img/pink.png","32","trial","32","true","1,0","3:go_c","",""
"null","","html-keyboard-response","344","369155","0.0-6.0-1.41","","<img src=""img/pink-r.png"" border=""10"">","null","trial","32","","1,0","3:go_c","1",""
"null","","html-keyboard-response","345","370156","0.0-6.0-2.41","","<div style=""font-size:60px;"">+</div>","null","","","","","","",""
"null","","image-keyboard-response","346","371657","0.0-6.0-0.42","","img/blue.png","null","trial","null","true","0,1","4:nogo_d","",""
"null","","html-keyboard-response","347","372659","0.0-6.0-1.42","","<img src=""img/blue-r.png"">","null","trial","null","","0,1","4:nogo_d","1",""
"null","","html-keyboard-response","348","373660","0.0-6.0-2.42","","<div style=""font-size:60px;"">+</div>","null","","","","","","",""
"583.9150000247173","","image-keyboard-response","349","374245","0.0-6.0-0.43","","img/grey.png","32","trial","null","false","0.2,0.8","2:nogo_b","",""
"null","","html-keyboard-response","350","375246","0.0-6.0-1.43","","<img src=""img/grey-n.png"" border=""10"">","null","trial","null","","0.2,0.8","2:nogo_b","0",""
"null","","html-keyboard-response","351","376247","0.0-6.0-2.43","","<div style=""font-size:60px;"">+</div>","null","","","","","","",""
"510.0800000363961","","image-keyboard-response","352","376757","0.0-6.0-0.44","","img/yellow.png","32","trial","32","true","0.8,0.2","1:go_a","",""
"null","","html-keyboard-response","353","377759","0.0-6.0-1.44","","<img src=""img/yellow-n.png"" border=""10"">","null","trial","32","","0.8,0.2","1:go_a","0",""
"null","","html-keyboard-response","354","378761","0.0-6.0-2.44","","<div style=""font-size:60px;"">+</div>","null","","","","","","",""
"329.9149999511428","","image-keyboard-response","355","379091","0.0-6.0-0.45","","img/pink.png","32","trial","32","true","1,0","3:go_c","",""
"null","","html-keyboard-response","356","380093","0.0-6.0-1.45","","<img src=""img/pink-r.png"" border=""10"">","null","trial","32","","1,0","3:go_c","1",""
"null","","html-keyboard-response","357","381095","0.0-6.0-2.45","","<div style=""font-size:60px;"">+</div>","null","","","","","","",""
"330.6200000224635","","image-keyboard-response","358","381426","0.0-6.0-0.46","","img/blue.png","32","trial","null","false","0,1","4:nogo_d","",""
"null","","html-keyboard-response","359","382429","0.0-6.0-1.46","","<img src=""img/blue-n.png"" border=""10"">","null","trial","null","","0,1","4:nogo_d","0",""
"null","","html-keyboard-response","360","383429","0.0-6.0-2.46","","<div style=""font-size:60px;"">+</div>","null","","","","","","",""
"null","","image-keyboard-response","361","384930","0.0-6.0-0.47","","img/grey.png","null","trial","null","true","0.2,0.8","2:nogo_b","",""
"null","","html-keyboard-response","362","385933","0.0-6.0-1.47","","<img src=""img/grey-r.png"">","null","trial","null","","0.2,0.8","2:nogo_b","1",""
"null","","html-keyboard-response","363","386933","0.0-6.0-2.47","","<div style=""font-size:60px;"">+</div>","null","","","","","","",""
"822.2749999840744","","image-keyboard-response","364","387756","0.0-6.0-0.48","","img/grey.png","32","trial","null","false","0.2,0.8","2:nogo_b","",""
"null","","html-keyboard-response","365","388758","0.0-6.0-1.48","","<img src=""img/grey-n.png"" border=""10"">","null","trial","null","","0.2,0.8","2:nogo_b","0",""
"null","","html-keyboard-response","366","389760","0.0-6.0-2.48","","<div style=""font-size:60px;"">+</div>","null","","","","","","",""
"510.9449999872595","","image-keyboard-response","367","390271","0.0-6.0-0.49","","img/pink.png","32","trial","32","true","1,0","3:go_c","",""
"null","","html-keyboard-response","368","391274","0.0-6.0-1.49","","<img src=""img/pink-r.png"" border=""10"">","null","trial","32","","1,0","3:go_c","1",""
"null","","html-keyboard-response","369","392275","0.0-6.0-2.49","","<div style=""font-size:60px;"">+</div>","null","","","","","","",""
"null","","image-keyboard-response","370","393777","0.0-6.0-0.50","","img/blue.png","null","trial","null","true","0,1","4:nogo_d","",""
"null","","html-keyboard-response","371","394778","0.0-6.0-1.50","","<img src=""img/blue-r.png"">","null","trial","null","","0,1","4:nogo_d","1",""
"null","","html-keyboard-response","372","395778","0.0-6.0-2.50","","<div style=""font-size:60px;"">+</div>","null","","","","","","",""
"640.2799999923445","","image-keyboard-response","373","396419","0.0-6.0-0.51","","img/yellow.png","32","trial","32","true","0.8,0.2","1:go_a","",""
"null","","html-keyboard-response","374","397421","0.0-6.0-1.51","","<img src=""img/yellow-r.png"" border=""10"">","null","trial","32","","0.8,0.2","1:go_a","1",""
"null","","html-keyboard-response","375","398421","0.0-6.0-2.51","","<div style=""font-size:60px;"">+</div>","null","","","","","","",""
"null","","image-keyboard-response","376","399923","0.0-6.0-0.52","","img/grey.png","null","trial","null","true","0.2,0.8","2:nogo_b","",""
"null","","html-keyboard-response","377","400925","0.0-6.0-1.52","","<img src=""img/grey-r.png"">","null","trial","null","","0.2,0.8","2:nogo_b","1",""
"null","","html-keyboard-response","378","401927","0.0-6.0-2.52","","<div style=""font-size:60px;"">+</div>","null","","","","","","",""
"575.780000013765","","image-keyboard-response","379","402504","0.0-6.0-0.53","","img/yellow.png","32","trial","32","true","0.8,0.2","1:go_a","",""
"null","","html-keyboard-response","380","403506","0.0-6.0-1.53","","<img src=""img/yellow-r.png"" border=""10"">","null","trial","32","","0.8,0.2","1:go_a","1",""
"null","","html-keyboard-response","381","404508","0.0-6.0-2.53","","<div style=""font-size:60px;"">+</div>","null","","","","","","",""
"766.0200000391342","","image-keyboard-response","382","405274","0.0-6.0-0.54","","img/pink.png","32","trial","32","true","1,0","3:go_c","",""
"null","","html-keyboard-response","383","406276","0.0-6.0-1.54","","<img src=""img/pink-r.png"" border=""10"">","null","trial","32","","1,0","3:go_c","1",""
"null","","html-keyboard-response","384","407277","0.0-6.0-2.54","","<div style=""font-size:60px;"">+</div>","null","","","","","","",""
"683.4849999868311","","image-keyboard-response","385","407961","0.0-6.0-0.55","","img/blue.png","32","trial","null","false","0,1","4:nogo_d","",""
"null","","html-keyboard-response","386","408964","0.0-6.0-1.55","","<img src=""img/blue-n.png"" border=""10"">","null","trial","null","","0,1","4:nogo_d","0",""
"null","","html-keyboard-response","387","409964","0.0-6.0-2.55","","<div style=""font-size:60px;"">+</div>","null","","","","","","",""
"520.4149999772198","","image-keyboard-response","388","410485","0.0-6.0-0.56","","img/pink.png","32","trial","32","true","1,0","3:go_c","",""
"null","","html-keyboard-response","389","411488","0.0-6.0-1.56","","<img src=""img/pink-r.png"" border=""10"">","null","trial","32","","1,0","3:go_c","1",""
"null","","html-keyboard-response","390","412489","0.0-6.0-2.56","","<div style=""font-size:60px;"">+</div>","null","","","","","","",""
"null","","image-keyboard-response","391","413991","0.0-6.0-0.57","","img/grey.png","null","trial","null","true","0.2,0.8","2:nogo_b","",""
"null","","html-keyboard-response","392","414993","0.0-6.0-1.57","","<img src=""img/grey-n.png"">","null","trial","null","","0.2,0.8","2:nogo_b","0",""
"null","","html-keyboard-response","393","415995","0.0-6.0-2.57","","<div style=""font-size:60px;"">+</div>","null","","","","","","",""
"644.5750000420958","","image-keyboard-response","394","416640","0.0-6.0-0.58","","img/blue.png","32","trial","null","false","0,1","4:nogo_d","",""
"null","","html-keyboard-response","395","417642","0.0-6.0-1.58","","<img src=""img/blue-n.png"" border=""10"">","null","trial","null","","0,1","4:nogo_d","0",""
"null","","html-keyboard-response","396","418644","0.0-6.0-2.58","","<div style=""font-size:60px;"">+</div>","null","","","","","","",""
"369.10000001080334","","image-keyboard-response","397","419014","0.0-6.0-0.59","","img/yellow.png","32","trial","32","true","0.8,0.2","1:go_a","",""
"null","","html-keyboard-response","398","420016","0.0-6.0-1.59","","<img src=""img/yellow-r.png"" border=""10"">","null","trial","32","","0.8,0.2","1:go_a","1",""
"null","","html-keyboard-response","399","421018","0.0-6.0-2.59","","<div style=""font-size:60px;"">+</div>","null","","","","","","",""
"null","","image-keyboard-response","400","422520","0.0-6.0-0.60","","img/grey.png","null","trial","null","true","0.2,0.8","2:nogo_b","",""
"null","","html-keyboard-response","401","423522","0.0-6.0-1.60","","<img src=""img/grey-r.png"">","null","trial","null","","0.2,0.8","2:nogo_b","1",""
"null","","html-keyboard-response","402","424522","0.0-6.0-2.60","","<div style=""font-size:60px;"">+</div>","null","","","","","","",""
"null","","image-keyboard-response","403","426025","0.0-6.0-0.61","","img/blue.png","null","trial","null","true","0,1","4:nogo_d","",""
"null","","html-keyboard-response","404","427026","0.0-6.0-1.61","","<img src=""img/blue-r.png"">","null","trial","null","","0,1","4:nogo_d","1",""
"null","","html-keyboard-response","405","428027","0.0-6.0-2.61","","<div style=""font-size:60px;"">+</div>","null","","","","","","",""
"349.8600000166334","","image-keyboard-response","406","428378","0.0-6.0-0.62","","img/pink.png","32","trial","32","true","1,0","3:go_c","",""
"null","","html-keyboard-response","407","429380","0.0-6.0-1.62","","<img src=""img/pink-r.png"" border=""10"">","null","trial","32","","1,0","3:go_c","1",""
"null","","html-keyboard-response","408","430381","0.0-6.0-2.62","","<div style=""font-size:60px;"">+</div>","null","","","","","","",""
"538.0799999693409","","image-keyboard-response","409","430920","0.0-6.0-0.63","","img/yellow.png","32","trial","32","true","0.8,0.2","1:go_a","",""
"null","","html-keyboard-response","410","431921","0.0-6.0-1.63","","<img src=""img/yellow-r.png"" border=""10"">","null","trial","32","","0.8,0.2","1:go_a","1",""
"null","","html-keyboard-response","411","432923","0.0-6.0-2.63","","<div style=""font-size:60px;"">+</div>","null","","","","","","",""
"605.9049999457784","","image-keyboard-response","412","433529","0.0-6.0-0.64","","img/pink.png","32","trial","32","true","1,0","3:go_c","",""
"null","","html-keyboard-response","413","434531","0.0-6.0-1.64","","<img src=""img/pink-r.png"" border=""10"">","null","trial","32","","1,0","3:go_c","1",""
"null","","html-keyboard-response","414","435533","0.0-6.0-2.64","","<div style=""font-size:60px;"">+</div>","null","","","","","","",""
"null","","image-keyboard-response","415","437034","0.0-6.0-0.65","","img/grey.png","null","trial","null","true","0.2,0.8","2:nogo_b","",""
"null","","html-keyboard-response","416","438036","0.0-6.0-1.65","","<img src=""img/grey-r.png"">","null","trial","null","","0.2,0.8","2:nogo_b","1",""
"null","","html-keyboard-response","417","439038","0.0-6.0-2.65","","<div style=""font-size:60px;"">+</div>","null","","","","","","",""
"718.6649999930523","","image-keyboard-response","418","439758","0.0-6.0-0.66","","img/blue.png","32","trial","null","false","0,1","4:nogo_d","",""
"null","","html-keyboard-response","419","440760","0.0-6.0-1.66","","<img src=""img/blue-n.png"" border=""10"">","null","trial","null","","0,1","4:nogo_d","0",""
"null","","html-keyboard-response","420","441761","0.0-6.0-2.66","","<div style=""font-size:60px;"">+</div>","null","","","","","","",""
"628.3649999531917","","image-keyboard-response","421","442390","0.0-6.0-0.67","","img/yellow.png","32","trial","32","true","0.8,0.2","1:go_a","",""
"null","","html-keyboard-response","422","443392","0.0-6.0-1.67","","<img src=""img/yellow-r.png"" border=""10"">","null","trial","32","","0.8,0.2","1:go_a","1",""
"null","","html-keyboard-response","423","444393","0.0-6.0-2.67","","<div style=""font-size:60px;"">+</div>","null","","","","","","",""
"null","","image-keyboard-response","424","445894","0.0-6.0-0.68","","img/grey.png","null","trial","null","true","0.2,0.8","2:nogo_b","",""
"null","","html-keyboard-response","425","446902","0.0-6.0-1.68","","<img src=""img/grey-r.png"">","null","trial","null","","0.2,0.8","2:nogo_b","1",""
"null","","html-keyboard-response","426","447904","0.0-6.0-2.68","","<div style=""font-size:60px;"">+</div>","null","","","","","","",""
"460.2449999656528","","image-keyboard-response","427","448365","0.0-6.0-0.69","","img/yellow.png","32","trial","32","true","0.8,0.2","1:go_a","",""
"null","","html-keyboard-response","428","449367","0.0-6.0-1.69","","<img src=""img/yellow-r.png"" border=""10"">","null","trial","32","","0.8,0.2","1:go_a","1",""
"null","","html-keyboard-response","429","450369","0.0-6.0-2.69","","<div style=""font-size:60px;"">+</div>","null","","","","","","",""
"262.3400000156835","","image-keyboard-response","430","450632","0.0-6.0-0.70","","img/pink.png","32","trial","32","true","1,0","3:go_c","",""
"null","","html-keyboard-response","431","451633","0.0-6.0-1.70","","<img src=""img/pink-r.png"" border=""10"">","null","trial","32","","1,0","3:go_c","1",""
"null","","html-keyboard-response","432","452634","0.0-6.0-2.70","","<div style=""font-size:60px;"">+</div>","null","","","","","","",""
"577.4250000249594","","image-keyboard-response","433","453212","0.0-6.0-0.71","","img/blue.png","32","trial","null","false","0,1","4:nogo_d","",""
"null","","html-keyboard-response","434","454216","0.0-6.0-1.71","","<img src=""img/blue-n.png"" border=""10"">","null","trial","null","","0,1","4:nogo_d","0",""
"null","","html-keyboard-response","435","455218","0.0-6.0-2.71","","<div style=""font-size:60px;"">+</div>","null","","","","","","",""
"552.6549999485724","","image-keyboard-response","436","455771","0.0-6.0-0.72","","img/grey.png","32","trial","null","false","0.2,0.8","2:nogo_b","",""
"null","","html-keyboard-response","437","456773","0.0-6.0-1.72","","<img src=""img/grey-n.png"" border=""10"">","null","trial","null","","0.2,0.8","2:nogo_b","0",""
"null","","html-keyboard-response","438","457775","0.0-6.0-2.72","","<div style=""font-size:60px;"">+</div>","null","","","","","","",""
"null","","image-keyboard-response","439","459277","0.0-6.0-0.73","","img/blue.png","null","trial","null","true","0,1","4:nogo_d","",""
"null","","html-keyboard-response","440","460279","0.0-6.0-1.73","","<img src=""img/blue-r.png"">","null","trial","null","","0,1","4:nogo_d","1",""
"null","","html-keyboard-response","441","461281","0.0-6.0-2.73","","<div style=""font-size:60px;"">+</div>","null","","","","","","",""
"416.144999966491","","image-keyboard-response","442","461697","0.0-6.0-0.74","","img/pink.png","32","trial","32","true","1,0","3:go_c","",""
"null","","html-keyboard-response","443","462699","0.0-6.0-1.74","","<img src=""img/pink-r.png"" border=""10"">","null","trial","32","","1,0","3:go_c","1",""
"null","","html-keyboard-response","444","463699","0.0-6.0-2.74","","<div style=""font-size:60px;"">+</div>","null","","","","","","",""
"313.605000032112","","image-keyboard-response","445","464014","0.0-6.0-0.75","","img/yellow.png","32","trial","32","true","0.8,0.2","1:go_a","",""
"null","","html-keyboard-response","446","465015","0.0-6.0-1.75","","<img src=""img/yellow-r.png"" border=""10"">","null","trial","32","","0.8,0.2","1:go_a","1",""
"null","","html-keyboard-response","447","466017","0.0-6.0-2.75","","<div style=""font-size:60px;"">+</div>","null","","","","","","",""
"495.88499998208135","","image-keyboard-response","448","466513","0.0-6.0-0.76","","img/yellow.png","32","trial","32","true","0.8,0.2","1:go_a","",""
"null","","html-keyboard-response","449","467514","0.0-6.0-1.76","","<img src=""img/yellow-r.png"" border=""10"">","null","trial","32","","0.8,0.2","1:go_a","1",""
"null","","html-keyboard-response","450","468515","0.0-6.0-2.76","","<div style=""font-size:60px;"">+</div>","null","","","","","","",""
"null","","image-keyboard-response","451","470018","0.0-6.0-0.77","","img/blue.png","null","trial","null","true","0,1","4:nogo_d","",""
"null","","html-keyboard-response","452","471019","0.0-6.0-1.77","","<img src=""img/blue-r.png"">","null","trial","null","","0,1","4:nogo_d","1",""
"null","","html-keyboard-response","453","472020","0.0-6.0-2.77","","<div style=""font-size:60px;"">+</div>","null","","","","","","",""
"1097.8500000201166","","image-keyboard-response","454","473118","0.0-6.0-0.78","","img/grey.png","32","trial","null","false","0.2,0.8","2:nogo_b","",""
"null","","html-keyboard-response","455","474120","0.0-6.0-1.78","","<img src=""img/grey-r.png"" border=""10"">","null","trial","null","","0.2,0.8","2:nogo_b","1",""
"null","","html-keyboard-response","456","475121","0.0-6.0-2.78","","<div style=""font-size:60px;"">+</div>","null","","","","","","",""
"444.2799999960698","","image-keyboard-response","457","475566","0.0-6.0-0.79","","img/pink.png","32","trial","32","true","1,0","3:go_c","",""
"null","","html-keyboard-response","458","476566","0.0-6.0-1.79","","<img src=""img/pink-r.png"" border=""10"">","null","trial","32","","1,0","3:go_c","1",""
"null","","html-keyboard-response","459","477568","0.0-6.0-2.79","","<div style=""font-size:60px;"">+</div>","null","","","","","","",""
"979.49499997776","","image-keyboard-response","460","478548","0.0-6.0-0.80","","img/grey.png","32","trial","null","false","0.2,0.8","2:nogo_b","",""
"null","","html-keyboard-response","461","479550","0.0-6.0-1.80","","<img src=""img/grey-r.png"" border=""10"">","null","trial","null","","0.2,0.8","2:nogo_b","1",""
"null","","html-keyboard-response","462","480552","0.0-6.0-2.80","","<div style=""font-size:60px;"">+</div>","null","","","","","","",""
"null","","image-keyboard-response","463","482053","0.0-6.0-0.81","","img/blue.png","null","trial","null","true","0,1","4:nogo_d","",""
"null","","html-keyboard-response","464","483054","0.0-6.0-1.81","","<img src=""img/blue-r.png"">","null","trial","null","","0,1","4:nogo_d","1",""
"null","","html-keyboard-response","465","484055","0.0-6.0-2.81","","<div style=""font-size:60px;"">+</div>","null","","","","","","",""
"355.260000040289","","image-keyboard-response","466","484411","0.0-6.0-0.82","","img/yellow.png","32","trial","32","true","0.8,0.2","1:go_a","",""
"null","","html-keyboard-response","467","485413","0.0-6.0-1.82","","<img src=""img/yellow-r.png"" border=""10"">","null","trial","32","","0.8,0.2","1:go_a","1",""
"null","","html-keyboard-response","468","486414","0.0-6.0-2.82","","<div style=""font-size:60px;"">+</div>","null","","","","","","",""
"397.12999999755993","","image-keyboard-response","469","486812","0.0-6.0-0.83","","img/pink.png","32","trial","32","true","1,0","3:go_c","",""
"null","","html-keyboard-response","470","487813","0.0-6.0-1.83","","<img src=""img/pink-r.png"" border=""10"">","null","trial","32","","1,0","3:go_c","1",""
"null","","html-keyboard-response","471","488814","0.0-6.0-2.83","","<div style=""font-size:60px;"">+</div>","null","","","","","","",""
"null","","image-keyboard-response","472","490321","0.0-6.0-0.84","","img/blue.png","null","trial","null","true","0,1","4:nogo_d","",""
"null","","html-keyboard-response","473","491323","0.0-6.0-1.84","","<img src=""img/blue-r.png"">","null","trial","null","","0,1","4:nogo_d","1",""
"null","","html-keyboard-response","474","492324","0.0-6.0-2.84","","<div style=""font-size:60px;"">+</div>","null","","","","","","",""
"476.86500003328547","","image-keyboard-response","475","492802","0.0-6.0-0.85","","img/yellow.png","32","trial","32","true","0.8,0.2","1:go_a","",""
"null","","html-keyboard-response","476","493804","0.0-6.0-1.85","","<img src=""img/yellow-r.png"" border=""10"">","null","trial","32","","0.8,0.2","1:go_a","1",""
"null","","html-keyboard-response","477","494806","0.0-6.0-2.85","","<div style=""font-size:60px;"">+</div>","null","","","","","","",""
"471.6449999832548","","image-keyboard-response","478","495278","0.0-6.0-0.86","","img/pink.png","32","trial","32","true","1,0","3:go_c","",""
"null","","html-keyboard-response","479","496279","0.0-6.0-1.86","","<img src=""img/pink-r.png"" border=""10"">","null","trial","32","","1,0","3:go_c","1",""
"null","","html-keyboard-response","480","497281","0.0-6.0-2.86","","<div style=""font-size:60px;"">+</div>","null","","","","","","",""
"896.7600000323728","","image-keyboard-response","481","498178","0.0-6.0-0.87","","img/grey.png","32","trial","null","false","0.2,0.8","2:nogo_b","",""
"null","","html-keyboard-response","482","499180","0.0-6.0-1.87","","<img src=""img/grey-n.png"" border=""10"">","null","trial","null","","0.2,0.8","2:nogo_b","0",""
"null","","html-keyboard-response","483","500182","0.0-6.0-2.87","","<div style=""font-size:60px;"">+</div>","null","","","","","","",""
"716.2099999841303","","image-keyboard-response","484","500899","0.0-6.0-0.88","","img/blue.png","32","trial","null","false","0,1","4:nogo_d","",""
"null","","html-keyboard-response","485","501901","0.0-6.0-1.88","","<img src=""img/blue-n.png"" border=""10"">","null","trial","null","","0,1","4:nogo_d","0",""
"null","","html-keyboard-response","486","502914","0.0-6.0-2.88","","<div style=""font-size:60px;"">+</div>","null","","","","","","",""
"468.9749999670312","","image-keyboard-response","487","503384","0.0-6.0-0.89","","img/pink.png","32","trial","32","true","1,0","3:go_c","",""
"null","","html-keyboard-response","488","504386","0.0-6.0-1.89","","<img src=""img/pink-r.png"" border=""10"">","null","trial","32","","1,0","3:go_c","1",""
"null","","html-keyboard-response","489","505387","0.0-6.0-2.89","","<div style=""font-size:60px;"">+</div>","null","","","","","","",""
"447.3149999976158","","image-keyboard-response","490","505835","0.0-6.0-0.90","","img/yellow.png","32","trial","32","true","0.8,0.2","1:go_a","",""
"null","","html-keyboard-response","491","506836","0.0-6.0-1.90","","<img src=""img/yellow-r.png"" border=""10"">","null","trial","32","","0.8,0.2","1:go_a","1",""
"null","","html-keyboard-response","492","507838","0.0-6.0-2.90","","<div style=""font-size:60px;"">+</div>","null","","","","","","",""
"null","","image-keyboard-response","493","509339","0.0-6.0-0.91","","img/grey.png","null","trial","null","true","0.2,0.8","2:nogo_b","",""
"null","","html-keyboard-response","494","510355","0.0-6.0-1.91","","<img src=""img/grey-r.png"">","null","trial","null","","0.2,0.8","2:nogo_b","1",""
"null","","html-keyboard-response","495","511356","0.0-6.0-2.91","","<div style=""font-size:60px;"">+</div>","null","","","","","","",""
"601.8750000512227","","image-keyboard-response","496","511959","0.0-6.0-0.92","","img/pink.png","32","trial","32","true","1,0","3:go_c","",""
"null","","html-keyboard-response","497","512960","0.0-6.0-1.92","","<img src=""img/pink-r.png"" border=""10"">","null","trial","32","","1,0","3:go_c","1",""
"null","","html-keyboard-response","498","513960","0.0-6.0-2.92","","<div style=""font-size:60px;"">+</div>","null","","","","","","",""
"null","","image-keyboard-response","499","515462","0.0-6.0-0.93","","img/blue.png","null","trial","null","true","0,1","4:nogo_d","",""
"null","","html-keyboard-response","500","516463","0.0-6.0-1.93","","<img src=""img/blue-r.png"">","null","trial","null","","0,1","4:nogo_d","1",""
"null","","html-keyboard-response","501","517465","0.0-6.0-2.93","","<div style=""font-size:60px;"">+</div>","null","","","","","","",""
"522.9849999886937","","image-keyboard-response","502","517988","0.0-6.0-0.94","","img/yellow.png","32","trial","32","true","0.8,0.2","1:go_a","",""
"null","","html-keyboard-response","503","518990","0.0-6.0-1.94","","<img src=""img/yellow-r.png"" border=""10"">","null","trial","32","","0.8,0.2","1:go_a","1",""
"null","","html-keyboard-response","504","519991","0.0-6.0-2.94","","<div style=""font-size:60px;"">+</div>","null","","","","","","",""
"null","","image-keyboard-response","505","521492","0.0-6.0-0.95","","img/grey.png","null","trial","null","true","0.2,0.8","2:nogo_b","",""
"null","","html-keyboard-response","506","522495","0.0-6.0-1.95","","<img src=""img/grey-r.png"">","null","trial","null","","0.2,0.8","2:nogo_b","1",""
"null","","html-keyboard-response","507","523496","0.0-6.0-2.95","","<div style=""font-size:60px;"">+</div>","null","","","","","","",""
"468.8650000025518","","image-keyboard-response","508","523965","0.0-6.0-0.96","","img/yellow.png","32","trial","32","true","0.8,0.2","1:go_a","",""
"null","","html-keyboard-response","509","524968","0.0-6.0-1.96","","<img src=""img/yellow-n.png"" border=""10"">","null","trial","32","","0.8,0.2","1:go_a","0",""
"null","","html-keyboard-response","510","525968","0.0-6.0-2.96","","<div style=""font-size:60px;"">+</div>","null","","","","","","",""
"563.7700000079349","","image-keyboard-response","511","526533","0.0-6.0-0.97","","img/pink.png","32","trial","32","true","1,0","3:go_c","",""
"null","","html-keyboard-response","512","527535","0.0-6.0-1.97","","<img src=""img/pink-r.png"" border=""10"">","null","trial","32","","1,0","3:go_c","1",""
"null","","html-keyboard-response","513","528536","0.0-6.0-2.97","","<div style=""font-size:60px;"">+</div>","null","","","","","","",""
"443.67000000784174","","image-keyboard-response","514","528980","0.0-6.0-0.98","","img/blue.png","32","trial","null","false","0,1","4:nogo_d","",""
"null","","html-keyboard-response","515","529982","0.0-6.0-1.98","","<img src=""img/blue-n.png"" border=""10"">","null","trial","null","","0,1","4:nogo_d","0",""
"null","","html-keyboard-response","516","530984","0.0-6.0-2.98","","<div style=""font-size:60px;"">+</div>","null","","","","","","",""
"371.47499999264255","","image-keyboard-response","517","531356","0.0-6.0-0.99","","img/grey.png","32","trial","null","false","0.2,0.8","2:nogo_b","",""
"null","","html-keyboard-response","518","532358","0.0-6.0-1.99","","<img src=""img/grey-n.png"" border=""10"">","null","trial","null","","0.2,0.8","2:nogo_b","0",""
"null","","html-keyboard-response","519","533360","0.0-6.0-2.99","","<div style=""font-size:60px;"">+</div>","null","","","","","","",""
"653.3749999944121","","image-keyboard-response","520","534014","0.0-6.0-0.100","","img/pink.png","32","trial","32","true","1,0","3:go_c","",""
"null","","html-keyboard-response","521","535016","0.0-6.0-1.100","","<img src=""img/pink-r.png"" border=""10"">","null","trial","32","","1,0","3:go_c","1",""
"null","","html-keyboard-response","522","536017","0.0-6.0-2.100","","<div style=""font-size:60px;"">+</div>","null","","","","","","",""
"null","","image-keyboard-response","523","537519","0.0-6.0-0.101","","img/grey.png","null","trial","null","true","0.2,0.8","2:nogo_b","",""
"null","","html-keyboard-response","524","538521","0.0-6.0-1.101","","<img src=""img/grey-r.png"">","null","trial","null","","0.2,0.8","2:nogo_b","1",""
"null","","html-keyboard-response","525","539522","0.0-6.0-2.101","","<div style=""font-size:60px;"">+</div>","null","","","","","","",""
"765.7799999578856","","image-keyboard-response","526","540288","0.0-6.0-0.102","","img/yellow.png","32","trial","32","true","0.8,0.2","1:go_a","",""
"null","","html-keyboard-response","527","541289","0.0-6.0-1.102","","<img src=""img/yellow-r.png"" border=""10"">","null","trial","32","","0.8,0.2","1:go_a","1",""
"null","","html-keyboard-response","528","542303","0.0-6.0-2.102","","<div style=""font-size:60px;"">+</div>","null","","","","","","",""
"null","","image-keyboard-response","529","543805","0.0-6.0-0.103","","img/blue.png","null","trial","null","true","0,1","4:nogo_d","",""
"null","","html-keyboard-response","530","544807","0.0-6.0-1.103","","<img src=""img/blue-r.png"">","null","trial","null","","0,1","4:nogo_d","1",""
"null","","html-keyboard-response","531","545809","0.0-6.0-2.103","","<div style=""font-size:60px;"">+</div>","null","","","","","","",""
"609.0899999835528","","image-keyboard-response","532","546419","0.0-6.0-0.104","","img/yellow.png","32","trial","32","true","0.8,0.2","1:go_a","",""
"null","","html-keyboard-response","533","547420","0.0-6.0-1.104","","<img src=""img/yellow-r.png"" border=""10"">","null","trial","32","","0.8,0.2","1:go_a","1",""
"null","","html-keyboard-response","534","548421","0.0-6.0-2.104","","<div style=""font-size:60px;"">+</div>","null","","","","","","",""
"554.1200000443496","","image-keyboard-response","535","548976","0.0-6.0-0.105","","img/pink.png","32","trial","32","true","1,0","3:go_c","",""
"null","","html-keyboard-response","536","549979","0.0-6.0-1.105","","<img src=""img/pink-r.png"" border=""10"">","null","trial","32","","1,0","3:go_c","1",""
"null","","html-keyboard-response","537","550981","0.0-6.0-2.105","","<div style=""font-size:60px;"">+</div>","null","","","","","","",""
"null","","image-keyboard-response","538","552482","0.0-6.0-0.106","","img/blue.png","null","trial","null","true","0,1","4:nogo_d","",""
"null","","html-keyboard-response","539","553483","0.0-6.0-1.106","","<img src=""img/blue-r.png"">","null","trial","null","","0,1","4:nogo_d","1",""
"null","","html-keyboard-response","540","554484","0.0-6.0-2.106","","<div style=""font-size:60px;"">+</div>","null","","","","","","",""
"null","","image-keyboard-response","541","555985","0.0-6.0-0.107","","img/grey.png","null","trial","null","true","0.2,0.8","2:nogo_b","",""
"null","","html-keyboard-response","542","556987","0.0-6.0-1.107","","<img src=""img/grey-n.png"">","null","trial","null","","0.2,0.8","2:nogo_b","0",""
"null","","html-keyboard-response","543","557988","0.0-6.0-2.107","","<div style=""font-size:60px;"">+</div>","null","","","","","","",""
"484.29000005126","","image-keyboard-response","544","558473","0.0-6.0-0.108","","img/blue.png","32","trial","null","false","0,1","4:nogo_d","",""
"null","","html-keyboard-response","545","559474","0.0-6.0-1.108","","<img src=""img/blue-n.png"" border=""10"">","null","trial","null","","0,1","4:nogo_d","0",""
"null","","html-keyboard-response","546","560475","0.0-6.0-2.108","","<div style=""font-size:60px;"">+</div>","null","","","","","","",""
"null","","image-keyboard-response","547","561977","0.0-6.0-0.109","","img/grey.png","null","trial","null","true","0.2,0.8","2:nogo_b","",""
"null","","html-keyboard-response","548","562979","0.0-6.0-1.109","","<img src=""img/grey-r.png"">","null","trial","null","","0.2,0.8","2:nogo_b","1",""
"null","","html-keyboard-response","549","563979","0.0-6.0-2.109","","<div style=""font-size:60px;"">+</div>","null","","","","","","",""
"554.9650000175461","","image-keyboard-response","550","564535","0.0-6.0-0.110","","img/pink.png","32","trial","32","true","1,0","3:go_c","",""
"null","","html-keyboard-response","551","565537","0.0-6.0-1.110","","<img src=""img/pink-r.png"" border=""10"">","null","trial","32","","1,0","3:go_c","1",""
"null","","html-keyboard-response","552","566538","0.0-6.0-2.110","","<div style=""font-size:60px;"">+</div>","null","","","","","","",""
"564.4500000053085","","image-keyboard-response","553","567103","0.0-6.0-0.111","","img/yellow.png","32","trial","32","true","0.8,0.2","1:go_a","",""
"null","","html-keyboard-response","554","568106","0.0-6.0-1.111","","<img src=""img/yellow-r.png"" border=""10"">","null","trial","32","","0.8,0.2","1:go_a","1",""
"null","","html-keyboard-response","555","569107","0.0-6.0-2.111","","<div style=""font-size:60px;"">+</div>","null","","","","","","",""
"500.31499995384365","","image-keyboard-response","556","569608","0.0-6.0-0.112","","img/yellow.png","32","trial","32","true","0.8,0.2","1:go_a","",""
"null","","html-keyboard-response","557","570610","0.0-6.0-1.112","","<img src=""img/yellow-n.png"" border=""10"">","null","trial","32","","0.8,0.2","1:go_a","0",""
"null","","html-keyboard-response","558","571611","0.0-6.0-2.112","","<div style=""font-size:60px;"">+</div>","null","","","","","","",""
"null","","image-keyboard-response","559","573112","0.0-6.0-0.113","","img/blue.png","null","trial","null","true","0,1","4:nogo_d","",""
"null","","html-keyboard-response","560","574114","0.0-6.0-1.113","","<img src=""img/blue-r.png"">","null","trial","null","","0,1","4:nogo_d","1",""
"null","","html-keyboard-response","561","575115","0.0-6.0-2.113","","<div style=""font-size:60px;"">+</div>","null","","","","","","",""
"null","","image-keyboard-response","562","576616","0.0-6.0-0.114","","img/grey.png","null","trial","null","true","0.2,0.8","2:nogo_b","",""
"null","","html-keyboard-response","563","577618","0.0-6.0-1.114","","<img src=""img/grey-r.png"">","null","trial","null","","0.2,0.8","2:nogo_b","1",""
"null","","html-keyboard-response","564","578619","0.0-6.0-2.114","","<div style=""font-size:60px;"">+</div>","null","","","","","","",""
"498.50000004516914","","image-keyboard-response","565","579118","0.0-6.0-0.115","","img/pink.png","32","trial","32","true","1,0","3:go_c","",""
"null","","html-keyboard-response","566","580120","0.0-6.0-1.115","","<img src=""img/pink-r.png"" border=""10"">","null","trial","32","","1,0","3:go_c","1",""
"null","","html-keyboard-response","567","581122","0.0-6.0-2.115","","<div style=""font-size:60px;"">+</div>","null","","","","","","",""
"null","","image-keyboard-response","568","582624","0.0-6.0-0.116","","img/grey.png","null","trial","null","true","0.2,0.8","2:nogo_b","",""
"null","","html-keyboard-response","569","583626","0.0-6.0-1.116","","<img src=""img/grey-r.png"">","null","trial","null","","0.2,0.8","2:nogo_b","1",""
"null","","html-keyboard-response","570","584627","0.0-6.0-2.116","","<div style=""font-size:60px;"">+</div>","null","","","","","","",""
"364.2649999819696","","image-keyboard-response","571","584992","0.0-6.0-0.117","","img/yellow.png","32","trial","32","true","0.8,0.2","1:go_a","",""
"null","","html-keyboard-response","572","585994","0.0-6.0-1.117","","<img src=""img/yellow-n.png"" border=""10"">","null","trial","32","","0.8,0.2","1:go_a","0",""
"null","","html-keyboard-response","573","586995","0.0-6.0-2.117","","<div style=""font-size:60px;"">+</div>","null","","","","","","",""
"434.0199999860488","","image-keyboard-response","574","587430","0.0-6.0-0.118","","img/blue.png","32","trial","null","false","0,1","4:nogo_d","",""
"null","","html-keyboard-response","575","588431","0.0-6.0-1.118","","<img src=""img/blue-n.png"" border=""10"">","null","trial","null","","0,1","4:nogo_d","0",""
"null","","html-keyboard-response","576","589432","0.0-6.0-2.118","","<div style=""font-size:60px;"">+</div>","null","","","","","","",""
"666.7799999704584","","image-keyboard-response","577","590099","0.0-6.0-0.119","","img/pink.png","32","trial","32","true","1,0","3:go_c","",""
"null","","html-keyboard-response","578","591101","0.0-6.0-1.119","","<img src=""img/pink-r.png"" border=""10"">","null","trial","32","","1,0","3:go_c","1",""
"null","","html-keyboard-response","579","592102","0.0-6.0-2.119","","<div style=""font-size:60px;"">+</div>","null","","","","","","",""
"75537.30999998515","","instructions","580","667639","0.0-7.0","[{""page_index"":0,""viewing_time"":75537.03499998664}]","","","","","","","","",""
"756.8399999872781","","image-keyboard-response","581","668397","0.0-8.0-0.0","","img/pink.png","32","trial","32","true","0.6,0.4","3:go_c","",""
"null","","html-keyboard-response","582","669399","0.0-8.0-1.0","","<img src=""img/pink-r.png"" border=""10"">","null","trial","32","","0.6,0.4","3:go_c","1",""
"null","","html-keyboard-response","583","670400","0.0-8.0-2.0","","<div style=""font-size:60px;"">+</div>","null","","","","","","",""
"598.4499999904074","","image-keyboard-response","584","670999","0.0-8.0-0.1","","img/red.png","32","trial","32","true","0.8,0.2","1:go_a","",""
"null","","html-keyboard-response","585","672001","0.0-8.0-1.1","","<img src=""img/red-r.png"" border=""10"">","null","trial","32","","0.8,0.2","1:go_a","1",""
"null","","html-keyboard-response","586","673002","0.0-8.0-2.1","","<div style=""font-size:60px;"">+</div>","null","","","","","","",""
"246.42999999923632","","image-keyboard-response","587","673250","0.0-8.0-0.2","","img/purple.png","32","trial","null","false","0.4,0.6","4:nogo_d","",""
"null","","html-keyboard-response","588","674251","0.0-8.0-1.2","","<img src=""img/purple-n.png"" border=""10"">","null","trial","null","","0.4,0.6","4:nogo_d","0",""
"null","","html-keyboard-response","589","675253","0.0-8.0-2.2","","<div style=""font-size:60px;"">+</div>","null","","","","","","",""
"502.5599999935366","","image-keyboard-response","590","675757","0.0-8.0-0.3","","img/green.png","32","trial","null","false","0.2,0.8","2:nogo_b","",""
"null","","html-keyboard-response","591","676759","0.0-8.0-1.3","","<img src=""img/green-n.png"" border=""10"">","null","trial","null","","0.2,0.8","2:nogo_b","0",""
"null","","html-keyboard-response","592","677760","0.0-8.0-2.3","","<div style=""font-size:60px;"">+</div>","null","","","","","","",""
"395.299999974668","","image-keyboard-response","593","678156","0.0-8.0-0.4","","img/pink.png","32","trial","32","true","0.6,0.4","3:go_c","",""
"null","","html-keyboard-response","594","679157","0.0-8.0-1.4","","<img src=""img/pink-r.png"" border=""10"">","null","trial","32","","0.6,0.4","3:go_c","1",""
"null","","html-keyboard-response","595","680158","0.0-8.0-2.4","","<div style=""font-size:60px;"">+</div>","null","","","","","","",""
"689.1750000067987","","image-keyboard-response","596","680848","0.0-8.0-0.5","","img/purple.png","32","trial","null","false","0.4,0.6","4:nogo_d","",""
"null","","html-keyboard-response","597","681850","0.0-8.0-1.5","","<img src=""img/purple-n.png"" border=""10"">","null","trial","null","","0.4,0.6","4:nogo_d","0",""
"null","","html-keyboard-response","598","682858","0.0-8.0-2.5","","<div style=""font-size:60px;"">+</div>","null","","","","","","",""
"642.8050000104122","","image-keyboard-response","599","683501","0.0-8.0-0.6","","img/green.png","32","trial","null","false","0.2,0.8","2:nogo_b","",""
"null","","html-keyboard-response","600","684503","0.0-8.0-1.6","","<img src=""img/green-n.png"" border=""10"">","null","trial","null","","0.2,0.8","2:nogo_b","0",""
"null","","html-keyboard-response","601","685504","0.0-8.0-2.6","","<div style=""font-size:60px;"">+</div>","null","","","","","","",""
"711.0000000102445","","image-keyboard-response","602","686216","0.0-8.0-0.7","","img/red.png","32","trial","32","true","0.8,0.2","1:go_a","",""
"null","","html-keyboard-response","603","687218","0.0-8.0-1.7","","<img src=""img/red-n.png"" border=""10"">","null","trial","32","","0.8,0.2","1:go_a","0",""
"null","","html-keyboard-response","604","688219","0.0-8.0-2.7","","<div style=""font-size:60px;"">+</div>","null","","","","","","",""
"null","","image-keyboard-response","605","689722","0.0-8.0-0.8","","img/green.png","null","trial","null","true","0.2,0.8","2:nogo_b","",""
"null","","html-keyboard-response","606","690724","0.0-8.0-1.8","","<img src=""img/green-r.png"">","null","trial","null","","0.2,0.8","2:nogo_b","1",""
"null","","html-keyboard-response","607","691726","0.0-8.0-2.8","","<div style=""font-size:60px;"">+</div>","null","","","","","","",""
"494.1050000488758","","image-keyboard-response","608","692221","0.0-8.0-0.9","","img/pink.png","32","trial","32","true","0.6,0.4","3:go_c","",""
"null","","html-keyboard-response","609","693222","0.0-8.0-1.9","","<img src=""img/pink-n.png"" border=""10"">","null","trial","32","","0.6,0.4","3:go_c","0",""
"null","","html-keyboard-response","610","694224","0.0-8.0-2.9","","<div style=""font-size:60px;"">+</div>","null","","","","","","",""
"599.8399999807589","","image-keyboard-response","611","694824","0.0-8.0-0.10","","img/red.png","32","trial","32","true","0.8,0.2","1:go_a","",""
"null","","html-keyboard-response","612","695827","0.0-8.0-1.10","","<img src=""img/red-n.png"" border=""10"">","null","trial","32","","0.8,0.2","1:go_a","0",""
"null","","html-keyboard-response","613","696828","0.0-8.0-2.10","","<div style=""font-size:60px;"">+</div>","null","","","","","","",""
"1057.8499999828637","","image-keyboard-response","614","697887","0.0-8.0-0.11","","img/purple.png","32","trial","null","false","0.4,0.6","4:nogo_d","",""
"null","","html-keyboard-response","615","698890","0.0-8.0-1.11","","<img src=""img/purple-r.png"" border=""10"">","null","trial","null","","0.4,0.6","4:nogo_d","1",""
"null","","html-keyboard-response","616","699892","0.0-8.0-2.11","","<div style=""font-size:60px;"">+</div>","null","","","","","","",""
"500.51499996334314","","image-keyboard-response","617","700393","0.0-8.0-0.12","","img/purple.png","32","trial","null","false","0.4,0.6","4:nogo_d","",""
"null","","html-keyboard-response","618","701394","0.0-8.0-1.12","","<img src=""img/purple-n.png"" border=""10"">","null","trial","null","","0.4,0.6","4:nogo_d","0",""
"null","","html-keyboard-response","619","702396","0.0-8.0-2.12","","<div style=""font-size:60px;"">+</div>","null","","","","","","",""
"764.2549999873154","","image-keyboard-response","620","703161","0.0-8.0-0.13","","img/pink.png","32","trial","32","true","0.6,0.4","3:go_c","",""
"null","","html-keyboard-response","621","704163","0.0-8.0-1.13","","<img src=""img/pink-n.png"" border=""10"">","null","trial","32","","0.6,0.4","3:go_c","0",""
"null","","html-keyboard-response","622","705165","0.0-8.0-2.13","","<div style=""font-size:60px;"">+</div>","null","","","","","","",""
"686.6550000268035","","image-keyboard-response","623","705852","0.0-8.0-0.14","","img/green.png","32","trial","null","false","0.2,0.8","2:nogo_b","",""
"null","","html-keyboard-response","624","706853","0.0-8.0-1.14","","<img src=""img/green-n.png"" border=""10"">","null","trial","null","","0.2,0.8","2:nogo_b","0",""
"null","","html-keyboard-response","625","707854","0.0-8.0-2.14","","<div style=""font-size:60px;"">+</div>","null","","","","","","",""
"780.8999999542721","","image-keyboard-response","626","708636","0.0-8.0-0.15","","img/red.png","32","trial","32","true","0.8,0.2","1:go_a","",""
"null","","html-keyboard-response","627","709636","0.0-8.0-1.15","","<img src=""img/red-n.png"" border=""10"">","null","trial","32","","0.8,0.2","1:go_a","0",""
"null","","html-keyboard-response","628","710637","0.0-8.0-2.15","","<div style=""font-size:60px;"">+</div>","null","","","","","","",""
"null","","image-keyboard-response","629","712138","0.0-8.0-0.16","","img/green.png","null","trial","null","true","0.2,0.8","2:nogo_b","",""
"null","","html-keyboard-response","630","713140","0.0-8.0-1.16","","<img src=""img/green-r.png"">","null","trial","null","","0.2,0.8","2:nogo_b","1",""
"null","","html-keyboard-response","631","714141","0.0-8.0-2.16","","<div style=""font-size:60px;"">+</div>","null","","","","","","",""
"658.594999986235","","image-keyboard-response","632","714800","0.0-8.0-0.17","","img/pink.png","32","trial","32","true","0.6,0.4","3:go_c","",""
"null","","html-keyboard-response","633","715807","0.0-8.0-1.17","","<img src=""img/pink-n.png"" border=""10"">","null","trial","32","","0.6,0.4","3:go_c","0",""
"null","","html-keyboard-response","634","716808","0.0-8.0-2.17","","<div style=""font-size:60px;"">+</div>","null","","","","","","",""
"null","","image-keyboard-response","635","718309","0.0-8.0-0.18","","img/red.png","null","trial","32","false","0.8,0.2","1:go_a","",""
"null","","html-keyboard-response","636","719311","0.0-8.0-1.18","","<img src=""img/red-r.png"">","null","trial","32","","0.8,0.2","1:go_a","1",""
"null","","html-keyboard-response","637","720312","0.0-8.0-2.18","","<div style=""font-size:60px;"">+</div>","null","","","","","","",""
"1299.3049999931827","","image-keyboard-response","638","721612","0.0-8.0-0.19","","img/purple.png","32","trial","null","false","0.4,0.6","4:nogo_d","",""
"null","","html-keyboard-response","639","722613","0.0-8.0-1.19","","<img src=""img/purple-r.png"" border=""10"">","null","trial","null","","0.4,0.6","4:nogo_d","1",""
"null","","html-keyboard-response","640","723616","0.0-8.0-2.19","","<div style=""font-size:60px;"">+</div>","null","","","","","","",""
"591.6699999943376","","image-keyboard-response","641","724208","0.0-8.0-0.20","","img/purple.png","32","trial","null","false","0.4,0.6","4:nogo_d","",""
"null","","html-keyboard-response","642","725210","0.0-8.0-1.20","","<img src=""img/purple-n.png"" border=""10"">","null","trial","null","","0.4,0.6","4:nogo_d","0",""
"null","","html-keyboard-response","643","726213","0.0-8.0-2.20","","<div style=""font-size:60px;"">+</div>","null","","","","","","",""
"1500.4249999765307","","image-keyboard-response","644","727713","0.0-8.0-0.21","","img/green.png","32","trial","null","false","0.2,0.8","2:nogo_b","",""
"null","","html-keyboard-response","645","728716","0.0-8.0-1.21","","<img src=""img/green-n.png"" border=""10"">","null","trial","null","","0.2,0.8","2:nogo_b","0",""
"null","","html-keyboard-response","646","729729","0.0-8.0-2.21","","<div style=""font-size:60px;"">+</div>","null","","","","","","",""
"null","","image-keyboard-response","647","731231","0.0-8.0-0.22","","img/red.png","null","trial","32","false","0.8,0.2","1:go_a","",""
"null","","html-keyboard-response","648","732232","0.0-8.0-1.22","","<img src=""img/red-n.png"">","null","trial","32","","0.8,0.2","1:go_a","0",""
"null","","html-keyboard-response","649","733234","0.0-8.0-2.22","","<div style=""font-size:60px;"">+</div>","null","","","","","","",""
"641.8950000079349","","image-keyboard-response","650","733877","0.0-8.0-0.23","","img/pink.png","32","trial","32","true","0.6,0.4","3:go_c","",""
"null","","html-keyboard-response","651","734878","0.0-8.0-1.23","","<img src=""img/pink-r.png"" border=""10"">","null","trial","32","","0.6,0.4","3:go_c","1",""
"null","","html-keyboard-response","652","735880","0.0-8.0-2.23","","<div style=""font-size:60px;"">+</div>","null","","","","","","",""
"558.3050000132062","","image-keyboard-response","653","736439","0.0-8.0-0.24","","img/green.png","32","trial","null","false","0.2,0.8","2:nogo_b","",""
"null","","html-keyboard-response","654","737441","0.0-8.0-1.24","","<img src=""img/green-n.png"" border=""10"">","null","trial","null","","0.2,0.8","2:nogo_b","0",""
"null","","html-keyboard-response","655","738442","0.0-8.0-2.24","","<div style=""font-size:60px;"">+</div>","null","","","","","","",""
"752.7600000030361","","image-keyboard-response","656","739196","0.0-8.0-0.25","","img/pink.png","32","trial","32","true","0.6,0.4","3:go_c","",""
"null","","html-keyboard-response","657","740197","0.0-8.0-1.25","","<img src=""img/pink-r.png"" border=""10"">","null","trial","32","","0.6,0.4","3:go_c","1",""
"null","","html-keyboard-response","658","741198","0.0-8.0-2.25","","<div style=""font-size:60px;"">+</div>","null","","","","","","",""
"null","","image-keyboard-response","659","742699","0.0-8.0-0.26","","img/red.png","null","trial","32","false","0.8,0.2","1:go_a","",""
"null","","html-keyboard-response","660","743704","0.0-8.0-1.26","","<img src=""img/red-r.png"">","null","trial","32","","0.8,0.2","1:go_a","1",""
"null","","html-keyboard-response","661","744705","0.0-8.0-2.26","","<div style=""font-size:60px;"">+</div>","null","","","","","","",""
"554.7750000259839","","image-keyboard-response","662","745260","0.0-8.0-0.27","","img/purple.png","32","trial","null","false","0.4,0.6","4:nogo_d","",""
"null","","html-keyboard-response","663","746262","0.0-8.0-1.27","","<img src=""img/purple-n.png"" border=""10"">","null","trial","null","","0.4,0.6","4:nogo_d","0",""
"null","","html-keyboard-response","664","747263","0.0-8.0-2.27","","<div style=""font-size:60px;"">+</div>","null","","","","","","",""
"631.5799999865703","","image-keyboard-response","665","747896","0.0-8.0-0.28","","img/pink.png","32","trial","32","true","0.6,0.4","3:go_c","",""
"null","","html-keyboard-response","666","748898","0.0-8.0-1.28","","<img src=""img/pink-r.png"" border=""10"">","null","trial","32","","0.6,0.4","3:go_c","1",""
"null","","html-keyboard-response","667","749900","0.0-8.0-2.28","","<div style=""font-size:60px;"">+</div>","null","","","","","","",""
"1050.9350000065751","","image-keyboard-response","668","750952","0.0-8.0-0.29","","img/green.png","32","trial","null","false","0.2,0.8","2:nogo_b","",""
"null","","html-keyboard-response","669","751953","0.0-8.0-1.29","","<img src=""img/green-n.png"" border=""10"">","null","trial","null","","0.2,0.8","2:nogo_b","0",""
"null","","html-keyboard-response","670","752955","0.0-8.0-2.29","","<div style=""font-size:60px;"">+</div>","null","","","","","","",""
"447.7249999763444","","image-keyboard-response","671","753404","0.0-8.0-0.30","","img/purple.png","32","trial","null","false","0.4,0.6","4:nogo_d","",""
"null","","html-keyboard-response","672","754406","0.0-8.0-1.30","","<img src=""img/purple-n.png"" border=""10"">","null","trial","null","","0.4,0.6","4:nogo_d","0",""
"null","","html-keyboard-response","673","755407","0.0-8.0-2.30","","<div style=""font-size:60px;"">+</div>","null","","","","","","",""
"831.064999976661","","image-keyboard-response","674","756239","0.0-8.0-0.31","","img/red.png","32","trial","32","true","0.8,0.2","1:go_a","",""
"null","","html-keyboard-response","675","757240","0.0-8.0-1.31","","<img src=""img/red-r.png"" border=""10"">","null","trial","32","","0.8,0.2","1:go_a","1",""
"null","","html-keyboard-response","676","758242","0.0-8.0-2.31","","<div style=""font-size:60px;"">+</div>","null","","","","","","",""
"null","","image-keyboard-response","677","759743","0.0-8.0-0.32","","img/purple.png","null","trial","null","true","0.4,0.6","4:nogo_d","",""
"null","","html-keyboard-response","678","760745","0.0-8.0-1.32","","<img src=""img/purple-r.png"">","null","trial","null","","0.4,0.6","4:nogo_d","1",""
