"rt","url","trial_type","trial_index","time_elapsed","internal_node_id","view_history","stimulus","key_press","test_part","correct_response","correct","use_rew","which_stim","reward","responses"
"52548.51500003133","consent.html","external-html","0","52721","0.0-0.0","","","","","","","","","",""
"510084.6349999774","","instructions","1","562842","0.0-1.0","[{""page_index"":0,""viewing_time"":4668.4949999907985},{""page_index"":1,""viewing_time"":54054.30000007618},{""page_index"":2,""viewing_time"":304543.1399999652},{""page_index"":3,""viewing_time"":30340.8000000054},{""page_index"":4,""viewing_time"":84705.74000000488},{""page_index"":5,""viewing_time"":13057.754999957979},{""page_index"":6,""viewing_time"":18713.695000042208}]","","","","","","","","",""
"483.3299999590963","","image-keyboard-response","2","563327","0.0-2.0-0.0","","img/test1.PNG","32","practice","32","true","","","",""
"null","","html-keyboard-response","3","564330","0.0-2.0-1.0","","<img src=""img/test1-reward.PNG"" border=""10px; grey"">","null","","","","","","",""
"null","","html-keyboard-response","4","565335","0.0-2.0-2.0","","<div style=""font-size:60px;"">+</div>","null","","","","","","",""
"null","","image-keyboard-response","5","566840","0.0-2.0-0.1","","img/test2.PNG","null","practice","null","true","","","",""
"null","","html-keyboard-response","6","567842","0.0-2.0-1.1","","<img src=""img/test2-reward.PNG"">","null","","","","","","",""
"null","","html-keyboard-response","7","568846","0.0-2.0-2.1","","<div style=""font-size:60px;"">+</div>","null","","","","","","",""
"null","","image-keyboard-response","8","570352","0.0-2.0-0.2","","img/test3.PNG","null","practice","null","true","","","",""
"null","","html-keyboard-response","9","571354","0.0-2.0-1.2","","<img src=""img/test3-reward.PNG"">","null","","","","","","",""
"null","","html-keyboard-response","10","572359","0.0-2.0-2.2","","<div style=""font-size:60px;"">+</div>","null","","","","","","",""
"null","","image-keyboard-response","11","573861","0.0-2.0-0.3","","img/test3.PNG","null","practice","null","true","","","",""
"null","","html-keyboard-response","12","574863","0.0-2.0-1.3","","<img src=""img/test3-reward.PNG"">","null","","","","","","",""
"null","","html-keyboard-response","13","575865","0.0-2.0-2.3","","<div style=""font-size:60px;"">+</div>","null","","","","","","",""
"477.9199999757111","","image-keyboard-response","14","576344","0.0-2.0-0.4","","img/test1.PNG","32","practice","32","true","","","",""
"null","","html-keyboard-response","15","577345","0.0-2.0-1.4","","<img src=""img/test1-reward.PNG"" border=""10px; grey"">","null","","","","","","",""
"null","","html-keyboard-response","16","578350","0.0-2.0-2.4","","<div style=""font-size:60px;"">+</div>","null","","","","","","",""
"null","","image-keyboard-response","17","579853","0.0-2.0-0.5","","img/test2.PNG","null","practice","null","true","","","",""
"null","","html-keyboard-response","18","580857","0.0-2.0-1.5","","<img src=""img/test2-reward.PNG"">","null","","","","","","",""
"null","","html-keyboard-response","19","581861","0.0-2.0-2.5","","<div style=""font-size:60px;"">+</div>","null","","","","","","",""
"null","","image-keyboard-response","20","583365","0.0-2.0-0.6","","img/test3.PNG","null","practice","null","true","","","",""
"null","","html-keyboard-response","21","584370","0.0-2.0-1.6","","<img src=""img/test3-reward.PNG"">","null","","","","","","",""
"null","","html-keyboard-response","22","585374","0.0-2.0-2.6","","<div style=""font-size:60px;"">+</div>","null","","","","","","",""
"null","","image-keyboard-response","23","586876","0.0-2.0-0.7","","img/test2.PNG","null","practice","null","true","","","",""
"null","","html-keyboard-response","24","587879","0.0-2.0-1.7","","<img src=""img/test2-reward.PNG"">","null","","","","","","",""
"null","","html-keyboard-response","25","588880","0.0-2.0-2.7","","<div style=""font-size:60px;"">+</div>","null","","","","","","",""
"462.2449999442324","","image-keyboard-response","26","589343","0.0-2.0-0.8","","img/test1.PNG","32","practice","32","true","","","",""
"null","","html-keyboard-response","27","590349","0.0-2.0-1.8","","<img src=""img/test1-reward.PNG"" border=""10px; grey"">","null","","","","","","",""
"null","","html-keyboard-response","28","591353","0.0-2.0-2.8","","<div style=""font-size:60px;"">+</div>","null","","","","","","",""
"null","","image-keyboard-response","29","592857","0.0-2.0-0.9","","img/test2.PNG","null","practice","null","true","","","",""
"null","","html-keyboard-response","30","593860","0.0-2.0-1.9","","<img src=""img/test2-reward.PNG"">","null","","","","","","",""
"null","","html-keyboard-response","31","594865","0.0-2.0-2.9","","<div style=""font-size:60px;"">+</div>","null","","","","","","",""
"null","","image-keyboard-response","32","596368","0.0-2.0-0.10","","img/test3.PNG","null","practice","null","true","","","",""
"null","","html-keyboard-response","33","597373","0.0-2.0-1.10","","<img src=""img/test3-reward.PNG"">","null","","","","","","",""
"null","","html-keyboard-response","34","598377","0.0-2.0-2.10","","<div style=""font-size:60px;"">+</div>","null","","","","","","",""
"461.379999993369","","image-keyboard-response","35","598840","0.0-2.0-0.11","","img/test1.PNG","32","practice","32","true","","","",""
"null","","html-keyboard-response","36","599842","0.0-2.0-1.11","","<img src=""img/test1-reward.PNG"" border=""10px; grey"">","null","","","","","","",""
"null","","html-keyboard-response","37","600844","0.0-2.0-2.11","","<div style=""font-size:60px;"">+</div>","null","","","","","","",""
"20268.84999999311","","instructions","38","621114","0.0-3.0","[{""page_index"":0,""viewing_time"":20268.625000026077}]","","","","","","","","",""
"666.9649999821559","","image-keyboard-response","39","621783","0.0-4.0-0.0","","img/grey.png","32","trial","32","true","0.8,0.2","1:go_a","",""
"null","","html-keyboard-response","40","622788","0.0-4.0-1.0","","<img src=""img/grey-r.png"" border=""10"">","null","trial","32","","0.8,0.2","1:go_a","1",""
"null","","html-keyboard-response","41","623792","0.0-4.0-2.0","","<div style=""font-size:60px;"">+</div>","null","","","","","","",""
"774.8099999735132","","image-keyboard-response","42","624568","0.0-4.0-0.1","","img/blue.png","32","trial","null","false","0.2,0.8","2:nogo_b","",""
"null","","html-keyboard-response","43","625573","0.0-4.0-1.1","","<img src=""img/blue-n.png"" border=""10"">","null","trial","null","","0.2,0.8","2:nogo_b","0",""
"null","","html-keyboard-response","44","626574","0.0-4.0-2.1","","<div style=""font-size:60px;"">+</div>","null","","","","","","",""
"null","","image-keyboard-response","45","628077","0.0-4.0-0.2","","img/blue.png","null","trial","null","true","0.2,0.8","2:nogo_b","",""
"null","","html-keyboard-response","46","629081","0.0-4.0-1.2","","<img src=""img/blue-r.png"">","null","trial","null","","0.2,0.8","2:nogo_b","1",""
"null","","html-keyboard-response","47","630085","0.0-4.0-2.2","","<div style=""font-size:60px;"">+</div>","null","","","","","","",""
"466.6800000704825","","image-keyboard-response","48","630552","0.0-4.0-0.3","","img/grey.png","32","trial","32","true","0.8,0.2","1:go_a","",""
"null","","html-keyboard-response","49","631554","0.0-4.0-1.3","","<img src=""img/grey-n.png"" border=""10"">","null","trial","32","","0.8,0.2","1:go_a","0",""
"null","","html-keyboard-response","50","632558","0.0-4.0-2.3","","<div style=""font-size:60px;"">+</div>","null","","","","","","",""
"561.2399999517947","","image-keyboard-response","51","633120","0.0-4.0-0.4","","img/grey.png","32","trial","32","true","0.8,0.2","1:go_a","",""
"null","","html-keyboard-response","52","634126","0.0-4.0-1.4","","<img src=""img/grey-r.png"" border=""10"">","null","trial","32","","0.8,0.2","1:go_a","1",""
"null","","html-keyboard-response","53","635130","0.0-4.0-2.4","","<div style=""font-size:60px;"">+</div>","null","","","","","","",""
"397.4550000857562","","image-keyboard-response","54","635528","0.0-4.0-0.5","","img/blue.png","32","trial","null","false","0.2,0.8","2:nogo_b","",""
"null","","html-keyboard-response","55","636531","0.0-4.0-1.5","","<img src=""img/blue-n.png"" border=""10"">","null","trial","null","","0.2,0.8","2:nogo_b","0",""
"null","","html-keyboard-response","56","637533","0.0-4.0-2.5","","<div style=""font-size:60px;"">+</div>","null","","","","","","",""
"393.6300000641495","","image-keyboard-response","57","637927","0.0-4.0-0.6","","img/blue.png","32","trial","null","false","0.2,0.8","2:nogo_b","",""
"null","","html-keyboard-response","58","638932","0.0-4.0-1.6","","<img src=""img/blue-n.png"" border=""10"">","null","trial","null","","0.2,0.8","2:nogo_b","0",""
"null","","html-keyboard-response","59","639937","0.0-4.0-2.6","","<div style=""font-size:60px;"">+</div>","null","","","","","","",""
"510.8000000473112","","image-keyboard-response","60","640448","0.0-4.0-0.7","","img/grey.png","32","trial","32","true","0.8,0.2","1:go_a","",""
"null","","html-keyboard-response","61","641452","0.0-4.0-1.7","","<img src=""img/grey-r.png"" border=""10"">","null","trial","32","","0.8,0.2","1:go_a","1",""
"null","","html-keyboard-response","62","642456","0.0-4.0-2.7","","<div style=""font-size:60px;"">+</div>","null","","","","","","",""
"null","","image-keyboard-response","63","643959","0.0-4.0-0.8","","img/blue.png","null","trial","null","true","0.2,0.8","2:nogo_b","",""
"null","","html-keyboard-response","64","644964","0.0-4.0-1.8","","<img src=""img/blue-r.png"">","null","trial","null","","0.2,0.8","2:nogo_b","1",""
"null","","html-keyboard-response","65","645968","0.0-4.0-2.8","","<div style=""font-size:60px;"">+</div>","null","","","","","","",""
"431.29999993834645","","image-keyboard-response","66","646400","0.0-4.0-0.9","","img/grey.png","32","trial","32","true","0.8,0.2","1:go_a","",""
"null","","html-keyboard-response","67","647405","0.0-4.0-1.9","","<img src=""img/grey-n.png"" border=""10"">","null","trial","32","","0.8,0.2","1:go_a","0",""
"null","","html-keyboard-response","68","648408","0.0-4.0-2.9","","<div style=""font-size:60px;"">+</div>","null","","","","","","",""
"582.8050000127405","","image-keyboard-response","69","648992","0.0-4.0-0.10","","img/grey.png","32","trial","32","true","0.8,0.2","1:go_a","",""
"null","","html-keyboard-response","70","649997","0.0-4.0-1.10","","<img src=""img/grey-r.png"" border=""10"">","null","trial","32","","0.8,0.2","1:go_a","1",""
"null","","html-keyboard-response","71","651001","0.0-4.0-2.10","","<div style=""font-size:60px;"">+</div>","null","","","","","","",""
"null","","image-keyboard-response","72","652505","0.0-4.0-0.11","","img/blue.png","null","trial","null","true","0.2,0.8","2:nogo_b","",""
"null","","html-keyboard-response","73","653508","0.0-4.0-1.11","","<img src=""img/blue-r.png"">","null","trial","null","","0.2,0.8","2:nogo_b","1",""
"null","","html-keyboard-response","74","654513","0.0-4.0-2.11","","<div style=""font-size:60px;"">+</div>","null","","","","","","",""
"null","","image-keyboard-response","75","656016","0.0-4.0-0.12","","img/blue.png","null","trial","null","true","0.2,0.8","2:nogo_b","",""
"null","","html-keyboard-response","76","657021","0.0-4.0-1.12","","<img src=""img/blue-n.png"">","null","trial","null","","0.2,0.8","2:nogo_b","0",""
"null","","html-keyboard-response","77","658025","0.0-4.0-2.12","","<div style=""font-size:60px;"">+</div>","null","","","","","","",""
"655.2000000374392","","image-keyboard-response","78","658681","0.0-4.0-0.13","","img/grey.png","32","trial","32","true","0.8,0.2","1:go_a","",""
"null","","html-keyboard-response","79","659693","0.0-4.0-1.13","","<img src=""img/grey-r.png"" border=""10"">","null","trial","32","","0.8,0.2","1:go_a","1",""
"null","","html-keyboard-response","80","660696","0.0-4.0-2.13","","<div style=""font-size:60px;"">+</div>","null","","","","","","",""
"null","","image-keyboard-response","81","662199","0.0-4.0-0.14","","img/grey.png","null","trial","32","false","0.8,0.2","1:go_a","",""
"null","","html-keyboard-response","82","663204","0.0-4.0-1.14","","<img src=""img/grey-n.png"">","null","trial","32","","0.8,0.2","1:go_a","0",""
"null","","html-keyboard-response","83","664208","0.0-4.0-2.14","","<div style=""font-size:60px;"">+</div>","null","","","","","","",""
"424.97500008903444","","image-keyboard-response","84","664633","0.0-4.0-0.15","","img/blue.png","32","trial","null","false","0.2,0.8","2:nogo_b","",""
"null","","html-keyboard-response","85","665636","0.0-4.0-1.15","","<img src=""img/blue-n.png"" border=""10"">","null","trial","null","","0.2,0.8","2:nogo_b","0",""
"null","","html-keyboard-response","86","666640","0.0-4.0-2.15","","<div style=""font-size:60px;"">+</div>","null","","","","","","",""
"351.29000002052635","","image-keyboard-response","87","666992","0.0-4.0-0.16","","img/blue.png","32","trial","null","false","0.2,0.8","2:nogo_b","",""
"null","","html-keyboard-response","88","667997","0.0-4.0-1.16","","<img src=""img/blue-r.png"" border=""10"">","null","trial","null","","0.2,0.8","2:nogo_b","1",""
"null","","html-keyboard-response","89","669000","0.0-4.0-2.16","","<div style=""font-size:60px;"">+</div>","null","","","","","","",""
"745.1800000853837","","image-keyboard-response","90","669746","0.0-4.0-0.17","","img/grey.png","32","trial","32","true","0.8,0.2","1:go_a","",""
"null","","html-keyboard-response","91","670750","0.0-4.0-1.17","","<img src=""img/grey-n.png"" border=""10"">","null","trial","32","","0.8,0.2","1:go_a","0",""
"null","","html-keyboard-response","92","671754","0.0-4.0-2.17","","<div style=""font-size:60px;"">+</div>","null","","","","","","",""
"720.4149999888614","","image-keyboard-response","93","672476","0.0-4.0-0.18","","img/blue.png","32","trial","null","false","0.2,0.8","2:nogo_b","",""
"null","","html-keyboard-response","94","673479","0.0-4.0-1.18","","<img src=""img/blue-n.png"" border=""10"">","null","trial","null","","0.2,0.8","2:nogo_b","0",""
"null","","html-keyboard-response","95","674482","0.0-4.0-2.18","","<div style=""font-size:60px;"">+</div>","null","","","","","","",""
"766.084999893792","","image-keyboard-response","96","675249","0.0-4.0-0.19","","img/grey.png","32","trial","32","true","0.8,0.2","1:go_a","",""
"null","","html-keyboard-response","97","676254","0.0-4.0-1.19","","<img src=""img/grey-r.png"" border=""10"">","null","trial","32","","0.8,0.2","1:go_a","1",""
"null","","html-keyboard-response","98","677259","0.0-4.0-2.19","","<div style=""font-size:60px;"">+</div>","null","","","","","","",""
"862.5400000018999","","image-keyboard-response","99","678122","0.0-4.0-0.20","","img/blue.png","32","trial","null","false","0.2,0.8","2:nogo_b","",""
"null","","html-keyboard-response","100","679127","0.0-4.0-1.20","","<img src=""img/blue-n.png"" border=""10"">","null","trial","null","","0.2,0.8","2:nogo_b","0",""
"null","","html-keyboard-response","101","680131","0.0-4.0-2.20","","<div style=""font-size:60px;"">+</div>","null","","","","","","",""
"725.5649999715388","","image-keyboard-response","102","680858","0.0-4.0-0.21","","img/grey.png","32","trial","32","true","0.8,0.2","1:go_a","",""
"null","","html-keyboard-response","103","681861","0.0-4.0-1.21","","<img src=""img/grey-r.png"" border=""10"">","null","trial","32","","0.8,0.2","1:go_a","1",""
"null","","html-keyboard-response","104","682865","0.0-4.0-2.21","","<div style=""font-size:60px;"">+</div>","null","","","","","","",""
"766.7750000255182","","image-keyboard-response","105","683633","0.0-4.0-0.22","","img/grey.png","32","trial","32","true","0.8,0.2","1:go_a","",""
"null","","html-keyboard-response","106","684636","0.0-4.0-1.22","","<img src=""img/grey-r.png"" border=""10"">","null","trial","32","","0.8,0.2","1:go_a","1",""
"null","","html-keyboard-response","107","685641","0.0-4.0-2.22","","<div style=""font-size:60px;"">+</div>","null","","","","","","",""
"null","","image-keyboard-response","108","687144","0.0-4.0-0.23","","img/blue.png","null","trial","null","true","0.2,0.8","2:nogo_b","",""
"null","","html-keyboard-response","109","688148","0.0-4.0-1.23","","<img src=""img/blue-r.png"">","null","trial","null","","0.2,0.8","2:nogo_b","1",""
"null","","html-keyboard-response","110","689153","0.0-4.0-2.23","","<div style=""font-size:60px;"">+</div>","null","","","","","","",""
"null","","image-keyboard-response","111","690656","0.0-4.0-0.24","","img/blue.png","null","trial","null","true","0.2,0.8","2:nogo_b","",""
"null","","html-keyboard-response","112","691660","0.0-4.0-1.24","","<img src=""img/blue-r.png"">","null","trial","null","","0.2,0.8","2:nogo_b","1",""
"null","","html-keyboard-response","113","692664","0.0-4.0-2.24","","<div style=""font-size:60px;"">+</div>","null","","","","","","",""
"505.7950000045821","","image-keyboard-response","114","693171","0.0-4.0-0.25","","img/grey.png","32","trial","32","true","0.8,0.2","1:go_a","",""
"null","","html-keyboard-response","115","694172","0.0-4.0-1.25","","<img src=""img/grey-r.png"" border=""10"">","null","trial","32","","0.8,0.2","1:go_a","1",""
"null","","html-keyboard-response","116","695178","0.0-4.0-2.25","","<div style=""font-size:60px;"">+</div>","null","","","","","","",""
"589.1199999023229","","image-keyboard-response","117","695769","0.0-4.0-0.26","","img/grey.png","32","trial","32","true","0.8,0.2","1:go_a","",""
"null","","html-keyboard-response","118","696774","0.0-4.0-1.26","","<img src=""img/grey-r.png"" border=""10"">","null","trial","32","","0.8,0.2","1:go_a","1",""
"null","","html-keyboard-response","119","697779","0.0-4.0-2.26","","<div style=""font-size:60px;"">+</div>","null","","","","","","",""
"null","","image-keyboard-response","120","699282","0.0-4.0-0.27","","img/blue.png","null","trial","null","true","0.2,0.8","2:nogo_b","",""
"null","","html-keyboard-response","121","700287","0.0-4.0-1.27","","<img src=""img/blue-n.png"">","null","trial","null","","0.2,0.8","2:nogo_b","0",""
"null","","html-keyboard-response","122","701291","0.0-4.0-2.27","","<div style=""font-size:60px;"">+</div>","null","","","","","","",""
"429.4450000161305","","image-keyboard-response","123","701721","0.0-4.0-0.28","","img/blue.png","32","trial","null","false","0.2,0.8","2:nogo_b","",""
"null","","html-keyboard-response","124","702725","0.0-4.0-1.28","","<img src=""img/blue-n.png"" border=""10"">","null","trial","null","","0.2,0.8","2:nogo_b","0",""
"null","","html-keyboard-response","125","703726","0.0-4.0-2.28","","<div style=""font-size:60px;"">+</div>","null","","","","","","",""
"555.0000000512227","","image-keyboard-response","126","704282","0.0-4.0-0.29","","img/grey.png","32","trial","32","true","0.8,0.2","1:go_a","",""
"null","","html-keyboard-response","127","705285","0.0-4.0-1.29","","<img src=""img/grey-r.png"" border=""10"">","null","trial","32","","0.8,0.2","1:go_a","1",""
"null","","html-keyboard-response","128","706290","0.0-4.0-2.29","","<div style=""font-size:60px;"">+</div>","null","","","","","","",""
"null","","image-keyboard-response","129","707793","0.0-4.0-0.30","","img/blue.png","null","trial","null","true","0.2,0.8","2:nogo_b","",""
"null","","html-keyboard-response","130","708797","0.0-4.0-1.30","","<img src=""img/blue-r.png"">","null","trial","null","","0.2,0.8","2:nogo_b","1",""
"null","","html-keyboard-response","131","709802","0.0-4.0-2.30","","<div style=""font-size:60px;"">+</div>","null","","","","","","",""
"636.8850000435486","","image-keyboard-response","132","710439","0.0-4.0-0.31","","img/grey.png","32","trial","32","true","0.8,0.2","1:go_a","",""
"null","","html-keyboard-response","133","711445","0.0-4.0-1.31","","<img src=""img/grey-r.png"" border=""10"">","null","trial","32","","0.8,0.2","1:go_a","1",""
"null","","html-keyboard-response","134","712448","0.0-4.0-2.31","","<div style=""font-size:60px;"">+</div>","null","","","","","","",""
"536.5999999921769","","image-keyboard-response","135","712986","0.0-4.0-0.32","","img/blue.png","32","trial","null","false","0.2,0.8","2:nogo_b","",""
"null","","html-keyboard-response","136","713991","0.0-4.0-1.32","","<img src=""img/blue-n.png"" border=""10"">","null","trial","null","","0.2,0.8","2:nogo_b","0",""
"null","","html-keyboard-response","137","714993","0.0-4.0-2.32","","<div style=""font-size:60px;"">+</div>","null","","","","","","",""
"633.3749999757856","","image-keyboard-response","138","715627","0.0-4.0-0.33","","img/grey.png","32","trial","32","true","0.8,0.2","1:go_a","",""
"null","","html-keyboard-response","139","716629","0.0-4.0-1.33","","<img src=""img/grey-r.png"" border=""10"">","null","trial","32","","0.8,0.2","1:go_a","1",""
"null","","html-keyboard-response","140","717633","0.0-4.0-2.33","","<div style=""font-size:60px;"">+</div>","null","","","","","","",""
"null","","image-keyboard-response","141","719136","0.0-4.0-0.34","","img/blue.png","null","trial","null","true","0.2,0.8","2:nogo_b","",""
"null","","html-keyboard-response","142","720141","0.0-4.0-1.34","","<img src=""img/blue-r.png"">","null","trial","null","","0.2,0.8","2:nogo_b","1",""
"null","","html-keyboard-response","143","721145","0.0-4.0-2.34","","<div style=""font-size:60px;"">+</div>","null","","","","","","",""
"537.0600000023842","","image-keyboard-response","144","721683","0.0-4.0-0.35","","img/grey.png","32","trial","32","true","0.8,0.2","1:go_a","",""
"null","","html-keyboard-response","145","722689","0.0-4.0-1.35","","<img src=""img/grey-n.png"" border=""10"">","null","trial","32","","0.8,0.2","1:go_a","0",""
"null","","html-keyboard-response","146","723693","0.0-4.0-2.35","","<div style=""font-size:60px;"">+</div>","null","","","","","","",""
"null","","image-keyboard-response","147","725199","0.0-4.0-0.36","","img/blue.png","null","trial","null","true","0.2,0.8","2:nogo_b","",""
"null","","html-keyboard-response","148","726204","0.0-4.0-1.36","","<img src=""img/blue-r.png"">","null","trial","null","","0.2,0.8","2:nogo_b","1",""
"null","","html-keyboard-response","149","727209","0.0-4.0-2.36","","<div style=""font-size:60px;"">+</div>","null","","","","","","",""
"521.4449999621138","","image-keyboard-response","150","727732","0.0-4.0-0.37","","img/grey.png","32","trial","32","true","0.8,0.2","1:go_a","",""
"null","","html-keyboard-response","151","728742","0.0-4.0-1.37","","<img src=""img/grey-n.png"" border=""10"">","null","trial","32","","0.8,0.2","1:go_a","0",""
"null","","html-keyboard-response","152","729747","0.0-4.0-2.37","","<div style=""font-size:60px;"">+</div>","null","","","","","","",""
"639.7550000110641","","image-keyboard-response","153","730387","0.0-4.0-0.38","","img/blue.png","32","trial","null","false","0.2,0.8","2:nogo_b","",""
"null","","html-keyboard-response","154","731390","0.0-4.0-1.38","","<img src=""img/blue-n.png"" border=""10"">","null","trial","null","","0.2,0.8","2:nogo_b","0",""
"null","","html-keyboard-response","155","732395","0.0-4.0-2.38","","<div style=""font-size:60px;"">+</div>","null","","","","","","",""
"571.5699999127537","","image-keyboard-response","156","732967","0.0-4.0-0.39","","img/grey.png","32","trial","32","true","0.8,0.2","1:go_a","",""
"null","","html-keyboard-response","157","733970","0.0-4.0-1.39","","<img src=""img/grey-r.png"" border=""10"">","null","trial","32","","0.8,0.2","1:go_a","1",""
"null","","html-keyboard-response","158","734975","0.0-4.0-2.39","","<div style=""font-size:60px;"">+</div>","null","","","","","","",""
"754.4600000837818","","image-keyboard-response","159","735730","0.0-4.0-0.40","","img/blue.png","32","trial","null","false","0.2,0.8","2:nogo_b","",""
"null","","html-keyboard-response","160","736738","0.0-4.0-1.40","","<img src=""img/blue-r.png"" border=""10"">","null","trial","null","","0.2,0.8","2:nogo_b","1",""
"null","","html-keyboard-response","161","737741","0.0-4.0-2.40","","<div style=""font-size:60px;"">+</div>","null","","","","","","",""
"661.5799999563023","","image-keyboard-response","162","738404","0.0-4.0-0.41","","img/grey.png","32","trial","32","true","0.8,0.2","1:go_a","",""
"null","","html-keyboard-response","163","739408","0.0-4.0-1.41","","<img src=""img/grey-n.png"" border=""10"">","null","trial","32","","0.8,0.2","1:go_a","0",""
"null","","html-keyboard-response","164","740412","0.0-4.0-2.41","","<div style=""font-size:60px;"">+</div>","null","","","","","","",""
"null","","image-keyboard-response","165","741916","0.0-4.0-0.42","","img/blue.png","null","trial","null","true","0.2,0.8","2:nogo_b","",""
"null","","html-keyboard-response","166","742925","0.0-4.0-1.42","","<img src=""img/blue-r.png"">","null","trial","null","","0.2,0.8","2:nogo_b","1",""
"null","","html-keyboard-response","167","743930","0.0-4.0-2.42","","<div style=""font-size:60px;"">+</div>","null","","","","","","",""
"472.5449999095872","","image-keyboard-response","168","744403","0.0-4.0-0.43","","img/grey.png","32","trial","32","true","0.8,0.2","1:go_a","",""
"null","","html-keyboard-response","169","745408","0.0-4.0-1.43","","<img src=""img/grey-n.png"" border=""10"">","null","trial","32","","0.8,0.2","1:go_a","0",""
"null","","html-keyboard-response","170","746411","0.0-4.0-2.43","","<div style=""font-size:60px;"">+</div>","null","","","","","","",""
"623.0300000170246","","image-keyboard-response","171","747034","0.0-4.0-0.44","","img/blue.png","32","trial","null","false","0.2,0.8","2:nogo_b","",""
"null","","html-keyboard-response","172","748040","0.0-4.0-1.44","","<img src=""img/blue-n.png"" border=""10"">","null","trial","null","","0.2,0.8","2:nogo_b","0",""
"null","","html-keyboard-response","173","749045","0.0-4.0-2.44","","<div style=""font-size:60px;"">+</div>","null","","","","","","",""
"702.0299999276176","","image-keyboard-response","174","749747","0.0-4.0-0.45","","img/grey.png","32","trial","32","true","0.8,0.2","1:go_a","",""
"null","","html-keyboard-response","175","750751","0.0-4.0-1.45","","<img src=""img/grey-r.png"" border=""10"">","null","trial","32","","0.8,0.2","1:go_a","1",""
"null","","html-keyboard-response","176","751756","0.0-4.0-2.45","","<div style=""font-size:60px;"">+</div>","null","","","","","","",""
"1014.0400000382215","","image-keyboard-response","177","752771","0.0-4.0-0.46","","img/blue.png","32","trial","null","false","0.2,0.8","2:nogo_b","",""
"null","","html-keyboard-response","178","753773","0.0-4.0-1.46","","<img src=""img/blue-n.png"" border=""10"">","null","trial","null","","0.2,0.8","2:nogo_b","0",""
"null","","html-keyboard-response","179","754775","0.0-4.0-2.46","","<div style=""font-size:60px;"">+</div>","null","","","","","","",""
"691.690000006929","","image-keyboard-response","180","755467","0.0-4.0-0.47","","img/grey.png","32","trial","32","true","0.8,0.2","1:go_a","",""
"null","","html-keyboard-response","181","756473","0.0-4.0-1.47","","<img src=""img/grey-n.png"" border=""10"">","null","trial","32","","0.8,0.2","1:go_a","0",""
"null","","html-keyboard-response","182","757476","0.0-4.0-2.47","","<div style=""font-size:60px;"">+</div>","null","","","","","","",""
"null","","image-keyboard-response","183","758977","0.0-4.0-0.48","","img/blue.png","null","trial","null","true","0.2,0.8","2:nogo_b","",""
"null","","html-keyboard-response","184","759981","0.0-4.0-1.48","","<img src=""img/blue-r.png"">","null","trial","null","","0.2,0.8","2:nogo_b","1",""
"null","","html-keyboard-response","185","760985","0.0-4.0-2.48","","<div style=""font-size:60px;"">+</div>","null","","","","","","",""
"674.570000031963","","image-keyboard-response","186","761660","0.0-4.0-0.49","","img/grey.png","32","trial","32","true","0.8,0.2","1:go_a","",""
"null","","html-keyboard-response","187","762664","0.0-4.0-1.49","","<img src=""img/grey-n.png"" border=""10"">","null","trial","32","","0.8,0.2","1:go_a","0",""
"null","","html-keyboard-response","188","763668","0.0-4.0-2.49","","<div style=""font-size:60px;"">+</div>","null","","","","","","",""
"766.3600000087172","","image-keyboard-response","189","764435","0.0-4.0-0.50","","img/grey.png","32","trial","32","true","0.8,0.2","1:go_a","",""
"null","","html-keyboard-response","190","765439","0.0-4.0-1.50","","<img src=""img/grey-r.png"" border=""10"">","null","trial","32","","0.8,0.2","1:go_a","1",""
"null","","html-keyboard-response","191","766442","0.0-4.0-2.50","","<div style=""font-size:60px;"">+</div>","null","","","","","","",""
"960.630000103265","","image-keyboard-response","192","767404","0.0-4.0-0.51","","img/blue.png","32","trial","null","false","0.2,0.8","2:nogo_b","",""
"null","","html-keyboard-response","193","768409","0.0-4.0-1.51","","<img src=""img/blue-n.png"" border=""10"">","null","trial","null","","0.2,0.8","2:nogo_b","0",""
"null","","html-keyboard-response","194","769411","0.0-4.0-2.51","","<div style=""font-size:60px;"">+</div>","null","","","","","","",""
"447.8899999521673","","image-keyboard-response","195","769859","0.0-4.0-0.52","","img/blue.png","32","trial","null","false","0.2,0.8","2:nogo_b","",""
"null","","html-keyboard-response","196","770861","0.0-4.0-1.52","","<img src=""img/blue-n.png"" border=""10"">","null","trial","null","","0.2,0.8","2:nogo_b","0",""
"null","","html-keyboard-response","197","771865","0.0-4.0-2.52","","<div style=""font-size:60px;"">+</div>","null","","","","","","",""
"626.1299999896437","","image-keyboard-response","198","772492","0.0-4.0-0.53","","img/grey.png","32","trial","32","true","0.8,0.2","1:go_a","",""
"null","","html-keyboard-response","199","773495","0.0-4.0-1.53","","<img src=""img/grey-n.png"" border=""10"">","null","trial","32","","0.8,0.2","1:go_a","0",""
"null","","html-keyboard-response","200","774500","0.0-4.0-2.53","","<div style=""font-size:60px;"">+</div>","null","","","","","","",""
"775.1050000078976","","image-keyboard-response","201","775276","0.0-4.0-0.54","","img/grey.png","32","trial","32","true","0.8,0.2","1:go_a","",""
"null","","html-keyboard-response","202","776282","0.0-4.0-1.54","","<img src=""img/grey-r.png"" border=""10"">","null","trial","32","","0.8,0.2","1:go_a","1",""
"null","","html-keyboard-response","203","777287","0.0-4.0-2.54","","<div style=""font-size:60px;"">+</div>","null","","","","","","",""
"812.4799999641255","","image-keyboard-response","204","778100","0.0-4.0-0.55","","img/blue.png","32","trial","null","false","0.2,0.8","2:nogo_b","",""
"null","","html-keyboard-response","205","779104","0.0-4.0-1.55","","<img src=""img/blue-n.png"" border=""10"">","null","trial","null","","0.2,0.8","2:nogo_b","0",""
"null","","html-keyboard-response","206","780108","0.0-4.0-2.55","","<div style=""font-size:60px;"">+</div>","null","","","","","","",""
"916.6949999053031","","image-keyboard-response","207","781028","0.0-4.0-0.56","","img/grey.png","32","trial","32","true","0.8,0.2","1:go_a","",""
"null","","html-keyboard-response","208","782030","0.0-4.0-1.56","","<img src=""img/grey-r.png"" border=""10"">","null","trial","32","","0.8,0.2","1:go_a","1",""
"null","","html-keyboard-response","209","783034","0.0-4.0-2.56","","<div style=""font-size:60px;"">+</div>","null","","","","","","",""
"null","","image-keyboard-response","210","784538","0.0-4.0-0.57","","img/blue.png","null","trial","null","true","0.2,0.8","2:nogo_b","",""
"null","","html-keyboard-response","211","785541","0.0-4.0-1.57","","<img src=""img/blue-n.png"">","null","trial","null","","0.2,0.8","2:nogo_b","0",""
"null","","html-keyboard-response","212","786546","0.0-4.0-2.57","","<div style=""font-size:60px;"">+</div>","null","","","","","","",""
"715.1199999498203","","image-keyboard-response","213","787262","0.0-4.0-0.58","","img/grey.png","32","trial","32","true","0.8,0.2","1:go_a","",""
"null","","html-keyboard-response","214","788264","0.0-4.0-1.58","","<img src=""img/grey-r.png"" border=""10"">","null","trial","32","","0.8,0.2","1:go_a","1",""
"null","","html-keyboard-response","215","789268","0.0-4.0-2.58","","<div style=""font-size:60px;"">+</div>","null","","","","","","",""
"null","","image-keyboard-response","216","790772","0.0-4.0-0.59","","img/blue.png","null","trial","null","true","0.2,0.8","2:nogo_b","",""
"null","","html-keyboard-response","217","791778","0.0-4.0-1.59","","<img src=""img/blue-r.png"">","null","trial","null","","0.2,0.8","2:nogo_b","1",""
"null","","html-keyboard-response","218","792781","0.0-4.0-2.59","","<div style=""font-size:60px;"">+</div>","null","","","","","","",""
"503984.12000003736","","instructions","219","1296781","0.0-5.0","[{""page_index"":0,""viewing_time"":503983.8549999986}]","","","","","","","","",""
"1029.09000008367","","image-keyboard-response","220","1297812","0.0-6.0-0.0","","img/grey.png","32","trial","null","false","0,1","4:nogo_d","",""
"null","","html-keyboard-response","221","1298817","0.0-6.0-1.0","","<img src=""img/grey-n.png"" border=""10"">","null","trial","null","","0,1","4:nogo_d","0",""
"null","","html-keyboard-response","222","1299827","0.0-6.0-2.0","","<div style=""font-size:60px;"">+</div>","null","","","","","","",""
"657.4300000211224","","image-keyboard-response","223","1300485","0.0-6.0-0.1","","img/purple.png","32","trial","null","false","0.2,0.8","2:nogo_b","",""
"null","","html-keyboard-response","224","1301488","0.0-6.0-1.1","","<img src=""img/purple-n.png"" border=""10"">","null","trial","null","","0.2,0.8","2:nogo_b","0",""
"null","","html-keyboard-response","225","1302492","0.0-6.0-2.1","","<div style=""font-size:60px;"">+</div>","null","","","","","","",""
"608.4249999839813","","image-keyboard-response","226","1303102","0.0-6.0-0.2","","img/green.png","32","trial","32","true","1,0","3:go_c","",""
"null","","html-keyboard-response","227","1304107","0.0-6.0-1.2","","<img src=""img/green-r.png"" border=""10"">","null","trial","32","","1,0","3:go_c","1",""
"null","","html-keyboard-response","228","1305111","0.0-6.0-2.2","","<div style=""font-size:60px;"">+</div>","null","","","","","","",""
"null","","image-keyboard-response","229","1306615","0.0-6.0-0.3","","img/yellow.png","null","trial","32","false","0.8,0.2","1:go_a","",""
"null","","html-keyboard-response","230","1307620","0.0-6.0-1.3","","<img src=""img/yellow-n.png"">","null","trial","32","","0.8,0.2","1:go_a","0",""
"null","","html-keyboard-response","231","1308624","0.0-6.0-2.3","","<div style=""font-size:60px;"">+</div>","null","","","","","","",""
"null","","image-keyboard-response","232","1310128","0.0-6.0-0.4","","img/yellow.png","null","trial","32","false","0.8,0.2","1:go_a","",""
"null","","html-keyboard-response","233","1311132","0.0-6.0-1.4","","<img src=""img/yellow-n.png"">","null","trial","32","","0.8,0.2","1:go_a","0",""
"null","","html-keyboard-response","234","1312136","0.0-6.0-2.4","","<div style=""font-size:60px;"">+</div>","null","","","","","","",""
"550.2199999755248","","image-keyboard-response","235","1312687","0.0-6.0-0.5","","img/green.png","32","trial","32","true","1,0","3:go_c","",""
"null","","html-keyboard-response","236","1313692","0.0-6.0-1.5","","<img src=""img/green-r.png"" border=""10"">","null","trial","32","","1,0","3:go_c","1",""
"null","","html-keyboard-response","237","1314697","0.0-6.0-2.5","","<div style=""font-size:60px;"">+</div>","null","","","","","","",""
"null","","image-keyboard-response","238","1316200","0.0-6.0-0.6","","img/grey.png","null","trial","null","true","0,1","4:nogo_d","",""
"null","","html-keyboard-response","239","1317204","0.0-6.0-1.6","","<img src=""img/grey-r.png"">","null","trial","null","","0,1","4:nogo_d","1",""
"null","","html-keyboard-response","240","1318209","0.0-6.0-2.6","","<div style=""font-size:60px;"">+</div>","null","","","","","","",""
"837.3199999332428","","image-keyboard-response","241","1319047","0.0-6.0-0.7","","img/purple.png","32","trial","null","false","0.2,0.8","2:nogo_b","",""
"null","","html-keyboard-response","242","1320050","0.0-6.0-1.7","","<img src=""img/purple-n.png"" border=""10"">","null","trial","null","","0.2,0.8","2:nogo_b","0",""
"null","","html-keyboard-response","243","1321054","0.0-6.0-2.7","","<div style=""font-size:60px;"">+</div>","null","","","","","","",""
"null","","image-keyboard-response","244","1322557","0.0-6.0-0.8","","img/grey.png","null","trial","null","true","0,1","4:nogo_d","",""
"null","","html-keyboard-response","245","1323562","0.0-6.0-1.8","","<img src=""img/grey-r.png"">","null","trial","null","","0,1","4:nogo_d","1",""
"null","","html-keyboard-response","246","1324566","0.0-6.0-2.8","","<div style=""font-size:60px;"">+</div>","null","","","","","","",""
"null","","image-keyboard-response","247","1326070","0.0-6.0-0.9","","img/purple.png","null","trial","null","true","0.2,0.8","2:nogo_b","",""
"null","","html-keyboard-response","248","1327073","0.0-6.0-1.9","","<img src=""img/purple-r.png"">","null","trial","null","","0.2,0.8","2:nogo_b","1",""
"null","","html-keyboard-response","249","1328079","0.0-6.0-2.9","","<div style=""font-size:60px;"">+</div>","null","","","","","","",""
"null","","image-keyboard-response","250","1329582","0.0-6.0-0.10","","img/yellow.png","null","trial","32","false","0.8,0.2","1:go_a","",""
"null","","html-keyboard-response","251","1330586","0.0-6.0-1.10","","<img src=""img/yellow-n.png"">","null","trial","32","","0.8,0.2","1:go_a","0",""
"null","","html-keyboard-response","252","1331590","0.0-6.0-2.10","","<div style=""font-size:60px;"">+</div>","null","","","","","","",""
"395.00999997835606","","image-keyboard-response","253","1331986","0.0-6.0-0.11","","img/green.png","32","trial","32","true","1,0","3:go_c","",""
"null","","html-keyboard-response","254","1332989","0.0-6.0-1.11","","<img src=""img/green-r.png"" border=""10"">","null","trial","32","","1,0","3:go_c","1",""
"null","","html-keyboard-response","255","1333994","0.0-6.0-2.11","","<div style=""font-size:60px;"">+</div>","null","","","","","","",""
"null","","image-keyboard-response","256","1335498","0.0-6.0-0.12","","img/purple.png","null","trial","null","true","0.2,0.8","2:nogo_b","",""
"null","","html-keyboard-response","257","1336502","0.0-6.0-1.12","","<img src=""img/purple-n.png"">","null","trial","null","","0.2,0.8","2:nogo_b","0",""
"null","","html-keyboard-response","258","1337506","0.0-6.0-2.12","","<div style=""font-size:60px;"">+</div>","null","","","","","","",""
"534.2100000707433","","image-keyboard-response","259","1338041","0.0-6.0-0.13","","img/green.png","32","trial","32","true","1,0","3:go_c","",""
"null","","html-keyboard-response","260","1339045","0.0-6.0-1.13","","<img src=""img/green-r.png"" border=""10"">","null","trial","32","","1,0","3:go_c","1",""
"null","","html-keyboard-response","261","1340049","0.0-6.0-2.13","","<div style=""font-size:60px;"">+</div>","null","","","","","","",""
"null","","image-keyboard-response","262","1341552","0.0-6.0-0.14","","img/yellow.png","null","trial","32","false","0.8,0.2","1:go_a","",""
"null","","html-keyboard-response","263","1342557","0.0-6.0-1.14","","<img src=""img/yellow-n.png"">","null","trial","32","","0.8,0.2","1:go_a","0",""
"null","","html-keyboard-response","264","1343560","0.0-6.0-2.14","","<div style=""font-size:60px;"">+</div>","null","","","","","","",""
"696.6149999061599","","image-keyboard-response","265","1344258","0.0-6.0-0.15","","img/grey.png","32","trial","null","false","0,1","4:nogo_d","",""
"null","","html-keyboard-response","266","1345262","0.0-6.0-1.15","","<img src=""img/grey-n.png"" border=""10"">","null","trial","null","","0,1","4:nogo_d","0",""
"null","","html-keyboard-response","267","1346266","0.0-6.0-2.15","","<div style=""font-size:60px;"">+</div>","null","","","","","","",""
"579.7199999215081","","image-keyboard-response","268","1346849","0.0-6.0-0.16","","img/grey.png","32","trial","null","false","0,1","4:nogo_d","",""
"null","","html-keyboard-response","269","1347851","0.0-6.0-1.16","","<img src=""img/grey-n.png"" border=""10"">","null","trial","null","","0,1","4:nogo_d","0",""
"null","","html-keyboard-response","270","1348855","0.0-6.0-2.16","","<div style=""font-size:60px;"">+</div>","null","","","","","","",""
"null","","image-keyboard-response","271","1350359","0.0-6.0-0.17","","img/purple.png","null","trial","null","true","0.2,0.8","2:nogo_b","",""
"null","","html-keyboard-response","272","1351364","0.0-6.0-1.17","","<img src=""img/purple-r.png"">","null","trial","null","","0.2,0.8","2:nogo_b","1",""
"null","","html-keyboard-response","273","1352368","0.0-6.0-2.17","","<div style=""font-size:60px;"">+</div>","null","","","","","","",""
"null","","image-keyboard-response","274","1353871","0.0-6.0-0.18","","img/yellow.png","null","trial","32","false","0.8,0.2","1:go_a","",""
"null","","html-keyboard-response","275","1354876","0.0-6.0-1.18","","<img src=""img/yellow-n.png"">","null","trial","32","","0.8,0.2","1:go_a","0",""
"null","","html-keyboard-response","276","1355879","0.0-6.0-2.18","","<div style=""font-size:60px;"">+</div>","null","","","","","","",""
"443.36499995552003","","image-keyboard-response","277","1356323","0.0-6.0-0.19","","img/green.png","32","trial","32","true","1,0","3:go_c","",""
"null","","html-keyboard-response","278","1357325","0.0-6.0-1.19","","<img src=""img/green-r.png"" border=""10"">","null","trial","32","","1,0","3:go_c","1",""
"null","","html-keyboard-response","279","1358329","0.0-6.0-2.19","","<div style=""font-size:60px;"">+</div>","null","","","","","","",""
"1320.2499999897555","","image-keyboard-response","280","1359650","0.0-6.0-0.20","","img/grey.png","32","trial","null","false","0,1","4:nogo_d","",""
"null","","html-keyboard-response","281","1360652","0.0-6.0-1.20","","<img src=""img/grey-n.png"" border=""10"">","null","trial","null","","0,1","4:nogo_d","0",""
"null","","html-keyboard-response","282","1361656","0.0-6.0-2.20","","<div style=""font-size:60px;"">+</div>","null","","","","","","",""
"null","","image-keyboard-response","283","1363159","0.0-6.0-0.21","","img/purple.png","null","trial","null","true","0.2,0.8","2:nogo_b","",""
"null","","html-keyboard-response","284","1364164","0.0-6.0-1.21","","<img src=""img/purple-n.png"">","null","trial","null","","0.2,0.8","2:nogo_b","0",""
"null","","html-keyboard-response","285","1365168","0.0-6.0-2.21","","<div style=""font-size:60px;"">+</div>","null","","","","","","",""
"null","","image-keyboard-response","286","1366671","0.0-6.0-0.22","","img/yellow.png","null","trial","32","false","0.8,0.2","1:go_a","",""
"null","","html-keyboard-response","287","1367676","0.0-6.0-1.22","","<img src=""img/yellow-n.png"">","null","trial","32","","0.8,0.2","1:go_a","0",""
"null","","html-keyboard-response","288","1368680","0.0-6.0-2.22","","<div style=""font-size:60px;"">+</div>","null","","","","","","",""
"512.6549999695271","","image-keyboard-response","289","1369194","0.0-6.0-0.23","","img/green.png","32","trial","32","true","1,0","3:go_c","",""
"null","","html-keyboard-response","290","1370195","0.0-6.0-1.23","","<img src=""img/green-r.png"" border=""10"">","null","trial","32","","1,0","3:go_c","1",""
"null","","html-keyboard-response","291","1371196","0.0-6.0-2.23","","<div style=""font-size:60px;"">+</div>","null","","","","","","",""
"null","","image-keyboard-response","292","1372697","0.0-6.0-0.24","","img/purple.png","null","trial","null","true","0.2,0.8","2:nogo_b","",""
"null","","html-keyboard-response","293","1373702","0.0-6.0-1.24","","<img src=""img/purple-n.png"">","null","trial","null","","0.2,0.8","2:nogo_b","0",""
"null","","html-keyboard-response","294","1374705","0.0-6.0-2.24","","<div style=""font-size:60px;"">+</div>","null","","","","","","",""
"null","","image-keyboard-response","295","1376210","0.0-6.0-0.25","","img/yellow.png","null","trial","32","false","0.8,0.2","1:go_a","",""
"null","","html-keyboard-response","296","1377214","0.0-6.0-1.25","","<img src=""img/yellow-n.png"">","null","trial","32","","0.8,0.2","1:go_a","0",""
"null","","html-keyboard-response","297","1378218","0.0-6.0-2.25","","<div style=""font-size:60px;"">+</div>","null","","","","","","",""
"558.8849999476224","","image-keyboard-response","298","1378778","0.0-6.0-0.26","","img/green.png","32","trial","32","true","1,0","3:go_c","",""
"null","","html-keyboard-response","299","1379779","0.0-6.0-1.26","","<img src=""img/green-r.png"" border=""10"">","null","trial","32","","1,0","3:go_c","1",""
"null","","html-keyboard-response","300","1380784","0.0-6.0-2.26","","<div style=""font-size:60px;"">+</div>","null","","","","","","",""
"null","","image-keyboard-response","301","1382287","0.0-6.0-0.27","","img/grey.png","null","trial","null","true","0,1","4:nogo_d","",""
"null","","html-keyboard-response","302","1383292","0.0-6.0-1.27","","<img src=""img/grey-r.png"">","null","trial","null","","0,1","4:nogo_d","1",""
"null","","html-keyboard-response","303","1384296","0.0-6.0-2.27","","<div style=""font-size:60px;"">+</div>","null","","","","","","",""
"null","","image-keyboard-response","304","1385800","0.0-6.0-0.28","","img/yellow.png","null","trial","32","false","0.8,0.2","1:go_a","",""
"null","","html-keyboard-response","305","1386804","0.0-6.0-1.28","","<img src=""img/yellow-n.png"">","null","trial","32","","0.8,0.2","1:go_a","0",""
"null","","html-keyboard-response","306","1387808","0.0-6.0-2.28","","<div style=""font-size:60px;"">+</div>","null","","","","","","",""
"466.46999998483807","","image-keyboard-response","307","1388275","0.0-6.0-0.29","","img/green.png","32","trial","32","true","1,0","3:go_c","",""
"null","","html-keyboard-response","308","1389280","0.0-6.0-1.29","","<img src=""img/green-r.png"" border=""10"">","null","trial","32","","1,0","3:go_c","1",""
"null","","html-keyboard-response","309","1390281","0.0-6.0-2.29","","<div style=""font-size:60px;"">+</div>","null","","","","","","",""
"1031.940000015311","","image-keyboard-response","310","1391314","0.0-6.0-0.30","","img/grey.png","32","trial","null","false","0,1","4:nogo_d","",""
"null","","html-keyboard-response","311","1392319","0.0-6.0-1.30","","<img src=""img/grey-n.png"" border=""10"">","null","trial","null","","0,1","4:nogo_d","0",""
"null","","html-keyboard-response","312","1393324","0.0-6.0-2.30","","<div style=""font-size:60px;"">+</div>","null","","","","","","",""
"null","","image-keyboard-response","313","1394829","0.0-6.0-0.31","","img/purple.png","null","trial","null","true","0.2,0.8","2:nogo_b","",""
"null","","html-keyboard-response","314","1395831","0.0-6.0-1.31","","<img src=""img/purple-r.png"">","null","trial","null","","0.2,0.8","2:nogo_b","1",""
"null","","html-keyboard-response","315","1396836","0.0-6.0-2.31","","<div style=""font-size:60px;"">+</div>","null","","","","","","",""
"null","","image-keyboard-response","316","1398339","0.0-6.0-0.32","","img/purple.png","null","trial","null","true","0.2,0.8","2:nogo_b","",""
"null","","html-keyboard-response","317","1399343","0.0-6.0-1.32","","<img src=""img/purple-n.png"">","null","trial","null","","0.2,0.8","2:nogo_b","0",""
"null","","html-keyboard-response","318","1400347","0.0-6.0-2.32","","<div style=""font-size:60px;"">+</div>","null","","","","","","",""
"867.4200000241399","","image-keyboard-response","319","1401216","0.0-6.0-0.33","","img/grey.png","32","trial","null","false","0,1","4:nogo_d","",""
"null","","html-keyboard-response","320","1402222","0.0-6.0-1.33","","<img src=""img/grey-n.png"" border=""10"">","null","trial","null","","0,1","4:nogo_d","0",""
"null","","html-keyboard-response","321","1403227","0.0-6.0-2.33","","<div style=""font-size:60px;"">+</div>","null","","","","","","",""
"null","","image-keyboard-response","322","1404730","0.0-6.0-0.34","","img/yellow.png","null","trial","32","false","0.8,0.2","1:go_a","",""
"null","","html-keyboard-response","323","1405735","0.0-6.0-1.34","","<img src=""img/yellow-n.png"">","null","trial","32","","0.8,0.2","1:go_a","0",""
"null","","html-keyboard-response","324","1406739","0.0-6.0-2.34","","<div style=""font-size:60px;"">+</div>","null","","","","","","",""
"470.1049999566749","","image-keyboard-response","325","1407210","0.0-6.0-0.35","","img/green.png","32","trial","32","true","1,0","3:go_c","",""
"null","","html-keyboard-response","326","1408213","0.0-6.0-1.35","","<img src=""img/green-r.png"" border=""10"">","null","trial","32","","1,0","3:go_c","1",""
"null","","html-keyboard-response","327","1409217","0.0-6.0-2.35","","<div style=""font-size:60px;"">+</div>","null","","","","","","",""
"1145.409999997355","","image-keyboard-response","328","1410363","0.0-6.0-0.36","","img/grey.png","32","trial","null","false","0,1","4:nogo_d","",""
"null","","html-keyboard-response","329","1411365","0.0-6.0-1.36","","<img src=""img/grey-n.png"" border=""10"">","null","trial","null","","0,1","4:nogo_d","0",""
"null","","html-keyboard-response","330","1412369","0.0-6.0-2.36","","<div style=""font-size:60px;"">+</div>","null","","","","","","",""
"576.8199999583885","","image-keyboard-response","331","1412947","0.0-6.0-0.37","","img/purple.png","32","trial","null","false","0.2,0.8","2:nogo_b","",""
"null","","html-keyboard-response","332","1413949","0.0-6.0-1.37","","<img src=""img/purple-n.png"" border=""10"">","null","trial","null","","0.2,0.8","2:nogo_b","0",""
"null","","html-keyboard-response","333","1414953","0.0-6.0-2.37","","<div style=""font-size:60px;"">+</div>","null","","","","","","",""
"697.8000000817701","","image-keyboard-response","334","1415652","0.0-6.0-0.38","","img/green.png","32","trial","32","true","1,0","3:go_c","",""
"null","","html-keyboard-response","335","1416658","0.0-6.0-1.38","","<img src=""img/green-r.png"" border=""10"">","null","trial","32","","1,0","3:go_c","1",""
"null","","html-keyboard-response","336","1417664","0.0-6.0-2.38","","<div style=""font-size:60px;"">+</div>","null","","","","","","",""
"null","","image-keyboard-response","337","1419168","0.0-6.0-0.39","","img/yellow.png","null","trial","32","false","0.8,0.2","1:go_a","",""
"null","","html-keyboard-response","338","1420172","0.0-6.0-1.39","","<img src=""img/yellow-n.png"">","null","trial","32","","0.8,0.2","1:go_a","0",""
"null","","html-keyboard-response","339","1421176","0.0-6.0-2.39","","<div style=""font-size:60px;"">+</div>","null","","","","","","",""
"null","","image-keyboard-response","340","1422680","0.0-6.0-0.40","","img/yellow.png","null","trial","32","false","0.8,0.2","1:go_a","",""
"null","","html-keyboard-response","341","1423684","0.0-6.0-1.40","","<img src=""img/yellow-r.png"">","null","trial","32","","0.8,0.2","1:go_a","1",""
"null","","html-keyboard-response","342","1424690","0.0-6.0-2.40","","<div style=""font-size:60px;"">+</div>","null","","","","","","",""
"553.1000000191852","","image-keyboard-response","343","1425243","0.0-6.0-0.41","","img/green.png","32","trial","32","true","1,0","3:go_c","",""
"null","","html-keyboard-response","344","1426250","0.0-6.0-1.41","","<img src=""img/green-r.png"" border=""10"">","null","trial","32","","1,0","3:go_c","1",""
"null","","html-keyboard-response","345","1427254","0.0-6.0-2.41","","<div style=""font-size:60px;"">+</div>","null","","","","","","",""
"null","","image-keyboard-response","346","1428757","0.0-6.0-0.42","","img/purple.png","null","trial","null","true","0.2,0.8","2:nogo_b","",""
"null","","html-keyboard-response","347","1429762","0.0-6.0-1.42","","<img src=""img/purple-r.png"">","null","trial","null","","0.2,0.8","2:nogo_b","1",""
"null","","html-keyboard-response","348","1430766","0.0-6.0-2.42","","<div style=""font-size:60px;"">+</div>","null","","","","","","",""
"1140.5800000065938","","image-keyboard-response","349","1431908","0.0-6.0-0.43","","img/grey.png","32","trial","null","false","0,1","4:nogo_d","",""
"null","","html-keyboard-response","350","1432909","0.0-6.0-1.43","","<img src=""img/grey-n.png"" border=""10"">","null","trial","null","","0,1","4:nogo_d","0",""
"null","","html-keyboard-response","351","1433913","0.0-6.0-2.43","","<div style=""font-size:60px;"">+</div>","null","","","","","","",""
"1297.5599999772385","","image-keyboard-response","352","1435212","0.0-6.0-0.44","","img/purple.png","32","trial","null","false","0.2,0.8","2:nogo_b","",""
"null","","html-keyboard-response","353","1436217","0.0-6.0-1.44","","<img src=""img/purple-n.png"" border=""10"">","null","trial","null","","0.2,0.8","2:nogo_b","0",""
"null","","html-keyboard-response","354","1437222","0.0-6.0-2.44","","<div style=""font-size:60px;"">+</div>","null","","","","","","",""
"742.1200000680983","","image-keyboard-response","355","1437964","0.0-6.0-0.45","","img/green.png","32","trial","32","true","1,0","3:go_c","",""
"null","","html-keyboard-response","356","1438969","0.0-6.0-1.45","","<img src=""img/green-r.png"" border=""10"">","null","trial","32","","1,0","3:go_c","1",""
"null","","html-keyboard-response","357","1439973","0.0-6.0-2.45","","<div style=""font-size:60px;"">+</div>","null","","","","","","",""
"null","","image-keyboard-response","358","1441477","0.0-6.0-0.46","","img/yellow.png","null","trial","32","false","0.8,0.2","1:go_a","",""
"null","","html-keyboard-response","359","1442481","0.0-6.0-1.46","","<img src=""img/yellow-n.png"">","null","trial","32","","0.8,0.2","1:go_a","0",""
"null","","html-keyboard-response","360","1443485","0.0-6.0-2.46","","<div style=""font-size:60px;"">+</div>","null","","","","","","",""
"null","","image-keyboard-response","361","1444989","0.0-6.0-0.47","","img/grey.png","null","trial","null","true","0,1","4:nogo_d","",""
"null","","html-keyboard-response","362","1445993","0.0-6.0-1.47","","<img src=""img/grey-r.png"">","null","trial","null","","0,1","4:nogo_d","1",""
"null","","html-keyboard-response","363","1446997","0.0-6.0-2.47","","<div style=""font-size:60px;"">+</div>","null","","","","","","",""
"null","","image-keyboard-response","364","1448501","0.0-6.0-0.48","","img/grey.png","null","trial","null","true","0,1","4:nogo_d","",""
"null","","html-keyboard-response","365","1449506","0.0-6.0-1.48","","<img src=""img/grey-r.png"">","null","trial","null","","0,1","4:nogo_d","1",""
"null","","html-keyboard-response","366","1450509","0.0-6.0-2.48","","<div style=""font-size:60px;"">+</div>","null","","","","","","",""
"null","","image-keyboard-response","367","1452013","0.0-6.0-0.49","","img/purple.png","null","trial","null","true","0.2,0.8","2:nogo_b","",""
"null","","html-keyboard-response","368","1453017","0.0-6.0-1.49","","<img src=""img/purple-r.png"">","null","trial","null","","0.2,0.8","2:nogo_b","1",""
"null","","html-keyboard-response","369","1454022","0.0-6.0-2.49","","<div style=""font-size:60px;"">+</div>","null","","","","","","",""
"525.7999999448657","","image-keyboard-response","370","1454548","0.0-6.0-0.50","","img/green.png","32","trial","32","true","1,0","3:go_c","",""
"null","","html-keyboard-response","371","1455555","0.0-6.0-1.50","","<img src=""img/green-r.png"" border=""10"">","null","trial","32","","1,0","3:go_c","1",""
"null","","html-keyboard-response","372","1456559","0.0-6.0-2.50","","<div style=""font-size:60px;"">+</div>","null","","","","","","",""
"null","","image-keyboard-response","373","1458062","0.0-6.0-0.51","","img/yellow.png","null","trial","32","false","0.8,0.2","1:go_a","",""
"null","","html-keyboard-response","374","1459066","0.0-6.0-1.51","","<img src=""img/yellow-n.png"">","null","trial","32","","0.8,0.2","1:go_a","0",""
"null","","html-keyboard-response","375","1460071","0.0-6.0-2.51","","<div style=""font-size:60px;"">+</div>","null","","","","","","",""
"868.529999977909","","image-keyboard-response","376","1460940","0.0-6.0-0.52","","img/grey.png","32","trial","null","false","0,1","4:nogo_d","",""
"null","","html-keyboard-response","377","1461946","0.0-6.0-1.52","","<img src=""img/grey-n.png"" border=""10"">","null","trial","null","","0,1","4:nogo_d","0",""
"null","","html-keyboard-response","378","1462950","0.0-6.0-2.52","","<div style=""font-size:60px;"">+</div>","null","","","","","","",""
"606.180000002496","","image-keyboard-response","379","1463557","0.0-6.0-0.53","","img/green.png","32","trial","32","true","1,0","3:go_c","",""
"null","","html-keyboard-response","380","1464558","0.0-6.0-1.53","","<img src=""img/green-r.png"" border=""10"">","null","trial","32","","1,0","3:go_c","1",""
"null","","html-keyboard-response","381","1465562","0.0-6.0-2.53","","<div style=""font-size:60px;"">+</div>","null","","","","","","",""
"null","","image-keyboard-response","382","1467066","0.0-6.0-0.54","","img/purple.png","null","trial","null","true","0.2,0.8","2:nogo_b","",""
"null","","html-keyboard-response","383","1468071","0.0-6.0-1.54","","<img src=""img/purple-r.png"">","null","trial","null","","0.2,0.8","2:nogo_b","1",""
"null","","html-keyboard-response","384","1469075","0.0-6.0-2.54","","<div style=""font-size:60px;"">+</div>","null","","","","","","",""
"null","","image-keyboard-response","385","1470578","0.0-6.0-0.55","","img/yellow.png","null","trial","32","false","0.8,0.2","1:go_a","",""
"null","","html-keyboard-response","386","1471583","0.0-6.0-1.55","","<img src=""img/yellow-r.png"">","null","trial","32","","0.8,0.2","1:go_a","1",""
"null","","html-keyboard-response","387","1472586","0.0-6.0-2.55","","<div style=""font-size:60px;"">+</div>","null","","","","","","",""
"658.9949999470264","","image-keyboard-response","388","1473246","0.0-6.0-0.56","","img/green.png","32","trial","32","true","1,0","3:go_c","",""
"null","","html-keyboard-response","389","1474251","0.0-6.0-1.56","","<img src=""img/green-r.png"" border=""10"">","null","trial","32","","1,0","3:go_c","1",""
"null","","html-keyboard-response","390","1475253","0.0-6.0-2.56","","<div style=""font-size:60px;"">+</div>","null","","","","","","",""
"null","","image-keyboard-response","391","1476755","0.0-6.0-0.57","","img/purple.png","null","trial","null","true","0.2,0.8","2:nogo_b","",""
"null","","html-keyboard-response","392","1477760","0.0-6.0-1.57","","<img src=""img/purple-r.png"">","null","trial","null","","0.2,0.8","2:nogo_b","1",""
"null","","html-keyboard-response","393","1478766","0.0-6.0-2.57","","<div style=""font-size:60px;"">+</div>","null","","","","","","",""
"null","","image-keyboard-response","394","1480269","0.0-6.0-0.58","","img/yellow.png","null","trial","32","false","0.8,0.2","1:go_a","",""
"null","","html-keyboard-response","395","1481272","0.0-6.0-1.58","","<img src=""img/yellow-n.png"">","null","trial","32","","0.8,0.2","1:go_a","0",""
"null","","html-keyboard-response","396","1482276","0.0-6.0-2.58","","<div style=""font-size:60px;"">+</div>","null","","","","","","",""
"696.6849999735132","","image-keyboard-response","397","1482973","0.0-6.0-0.59","","img/grey.png","32","trial","null","false","0,1","4:nogo_d","",""
"null","","html-keyboard-response","398","1483976","0.0-6.0-1.59","","<img src=""img/grey-n.png"" border=""10"">","null","trial","null","","0,1","4:nogo_d","0",""
"null","","html-keyboard-response","399","1484980","0.0-6.0-2.59","","<div style=""font-size:60px;"">+</div>","null","","","","","","",""
"593.2100000791252","","image-keyboard-response","400","1485574","0.0-6.0-0.60","","img/grey.png","32","trial","null","false","0,1","4:nogo_d","",""
"null","","html-keyboard-response","401","1486577","0.0-6.0-1.60","","<img src=""img/grey-n.png"" border=""10"">","null","trial","null","","0,1","4:nogo_d","0",""
"null","","html-keyboard-response","402","1487581","0.0-6.0-2.60","","<div style=""font-size:60px;"">+</div>","null","","","","","","",""
"887.4999999534339","","image-keyboard-response","403","1488470","0.0-6.0-0.61","","img/green.png","32","trial","32","true","1,0","3:go_c","",""
"null","","html-keyboard-response","404","1489474","0.0-6.0-1.61","","<img src=""img/green-r.png"" border=""10"">","null","trial","32","","1,0","3:go_c","1",""
"null","","html-keyboard-response","405","1490478","0.0-6.0-2.61","","<div style=""font-size:60px;"">+</div>","null","","","","","","",""
"null","","image-keyboard-response","406","1491982","0.0-6.0-0.62","","img/yellow.png","null","trial","32","false","0.8,0.2","1:go_a","",""
"null","","html-keyboard-response","407","1492985","0.0-6.0-1.62","","<img src=""img/yellow-n.png"">","null","trial","32","","0.8,0.2","1:go_a","0",""
"null","","html-keyboard-response","408","1493990","0.0-6.0-2.62","","<div style=""font-size:60px;"">+</div>","null","","","","","","",""
"613.8199999695644","","image-keyboard-response","409","1494605","0.0-6.0-0.63","","img/purple.png","32","trial","null","false","0.2,0.8","2:nogo_b","",""
"null","","html-keyboard-response","410","1495610","0.0-6.0-1.63","","<img src=""img/purple-n.png"" border=""10"">","null","trial","null","","0.2,0.8","2:nogo_b","0",""
"null","","html-keyboard-response","411","1496614","0.0-6.0-2.63","","<div style=""font-size:60px;"">+</div>","null","","","","","","",""
"967.0949999708682","","image-keyboard-response","412","1497582","0.0-6.0-0.64","","img/grey.png","32","trial","null","false","0,1","4:nogo_d","",""
"null","","html-keyboard-response","413","1498584","0.0-6.0-1.64","","<img src=""img/grey-n.png"" border=""10"">","null","trial","null","","0,1","4:nogo_d","0",""
"null","","html-keyboard-response","414","1499587","0.0-6.0-2.64","","<div style=""font-size:60px;"">+</div>","null","","","","","","",""
"602.5750000262633","","image-keyboard-response","415","1500190","0.0-6.0-0.65","","img/green.png","32","trial","32","true","1,0","3:go_c","",""
"null","","html-keyboard-response","416","1501194","0.0-6.0-1.65","","<img src=""img/green-r.png"" border=""10"">","null","trial","32","","1,0","3:go_c","1",""
"null","","html-keyboard-response","417","1502198","0.0-6.0-2.65","","<div style=""font-size:60px;"">+</div>","null","","","","","","",""
"null","","image-keyboard-response","418","1503702","0.0-6.0-0.66","","img/yellow.png","null","trial","32","false","0.8,0.2","1:go_a","",""
"null","","html-keyboard-response","419","1504707","0.0-6.0-1.66","","<img src=""img/yellow-n.png"">","null","trial","32","","0.8,0.2","1:go_a","0",""
"null","","html-keyboard-response","420","1505711","0.0-6.0-2.66","","<div style=""font-size:60px;"">+</div>","null","","","","","","",""
"null","","image-keyboard-response","421","1507216","0.0-6.0-0.67","","img/purple.png","null","trial","null","true","0.2,0.8","2:nogo_b","",""
"null","","html-keyboard-response","422","1508219","0.0-6.0-1.67","","<img src=""img/purple-r.png"">","null","trial","null","","0.2,0.8","2:nogo_b","1",""
"null","","html-keyboard-response","423","1509223","0.0-6.0-2.67","","<div style=""font-size:60px;"">+</div>","null","","","","","","",""
"647.1800000872463","","image-keyboard-response","424","1509871","0.0-6.0-0.68","","img/green.png","32","trial","32","true","1,0","3:go_c","",""
"null","","html-keyboard-response","425","1510875","0.0-6.0-1.68","","<img src=""img/green-r.png"" border=""10"">","null","trial","32","","1,0","3:go_c","1",""
"null","","html-keyboard-response","426","1511876","0.0-6.0-2.68","","<div style=""font-size:60px;"">+</div>","null","","","","","","",""
"null","","image-keyboard-response","427","1513379","0.0-6.0-0.69","","img/grey.png","null","trial","null","true","0,1","4:nogo_d","",""
"null","","html-keyboard-response","428","1514384","0.0-6.0-1.69","","<img src=""img/grey-r.png"">","null","trial","null","","0,1","4:nogo_d","1",""
"null","","html-keyboard-response","429","1515388","0.0-6.0-2.69","","<div style=""font-size:60px;"">+</div>","null","","","","","","",""
"809.1550000244752","","image-keyboard-response","430","1516198","0.0-6.0-0.70","","img/purple.png","32","trial","null","false","0.2,0.8","2:nogo_b","",""
"null","","html-keyboard-response","431","1517202","0.0-6.0-1.70","","<img src=""img/purple-n.png"" border=""10"">","null","trial","null","","0.2,0.8","2:nogo_b","0",""
"null","","html-keyboard-response","432","1518204","0.0-6.0-2.70","","<div style=""font-size:60px;"">+</div>","null","","","","","","",""
"null","","image-keyboard-response","433","1519707","0.0-6.0-0.71","","img/yellow.png","null","trial","32","false","0.8,0.2","1:go_a","",""
"null","","html-keyboard-response","434","1520713","0.0-6.0-1.71","","<img src=""img/yellow-n.png"">","null","trial","32","","0.8,0.2","1:go_a","0",""
"null","","html-keyboard-response","435","1521716","0.0-6.0-2.71","","<div style=""font-size:60px;"">+</div>","null","","","","","","",""
"null","","image-keyboard-response","436","1523219","0.0-6.0-0.72","","img/grey.png","null","trial","null","true","0,1","4:nogo_d","",""
"null","","html-keyboard-response","437","1524223","0.0-6.0-1.72","","<img src=""img/grey-r.png"">","null","trial","null","","0,1","4:nogo_d","1",""
"null","","html-keyboard-response","438","1525228","0.0-6.0-2.72","","<div style=""font-size:60px;"">+</div>","null","","","","","","",""
"null","","image-keyboard-response","439","1526731","0.0-6.0-0.73","","img/yellow.png","null","trial","32","false","0.8,0.2","1:go_a","",""
"null","","html-keyboard-response","440","1527736","0.0-6.0-1.73","","<img src=""img/yellow-n.png"">","null","trial","32","","0.8,0.2","1:go_a","0",""
"null","","html-keyboard-response","441","1528740","0.0-6.0-2.73","","<div style=""font-size:60px;"">+</div>","null","","","","","","",""
"955.7199999690056","","image-keyboard-response","442","1529697","0.0-6.0-0.74","","img/purple.png","32","trial","null","false","0.2,0.8","2:nogo_b","",""
"null","","html-keyboard-response","443","1530702","0.0-6.0-1.74","","<img src=""img/purple-n.png"" border=""10"">","null","trial","null","","0.2,0.8","2:nogo_b","0",""
"null","","html-keyboard-response","444","1531707","0.0-6.0-2.74","","<div style=""font-size:60px;"">+</div>","null","","","","","","",""
"555.6300000753254","","image-keyboard-response","445","1532263","0.0-6.0-0.75","","img/green.png","32","trial","32","true","1,0","3:go_c","",""
"null","","html-keyboard-response","446","1533268","0.0-6.0-1.75","","<img src=""img/green-r.png"" border=""10"">","null","trial","32","","1,0","3:go_c","1",""
"null","","html-keyboard-response","447","1534273","0.0-6.0-2.75","","<div style=""font-size:60px;"">+</div>","null","","","","","","",""
"null","","image-keyboard-response","448","1535774","0.0-6.0-0.76","","img/grey.png","null","trial","null","true","0,1","4:nogo_d","",""
"null","","html-keyboard-response","449","1536776","0.0-6.0-1.76","","<img src=""img/grey-r.png"">","null","trial","null","","0,1","4:nogo_d","1",""
"null","","html-keyboard-response","450","1537783","0.0-6.0-2.76","","<div style=""font-size:60px;"">+</div>","null","","","","","","",""
"null","","image-keyboard-response","451","1539288","0.0-6.0-0.77","","img/purple.png","null","trial","null","true","0.2,0.8","2:nogo_b","",""
"null","","html-keyboard-response","452","1540292","0.0-6.0-1.77","","<img src=""img/purple-r.png"">","null","trial","null","","0.2,0.8","2:nogo_b","1",""
"null","","html-keyboard-response","453","1541297","0.0-6.0-2.77","","<div style=""font-size:60px;"">+</div>","null","","","","","","",""
"606.2999999849126","","image-keyboard-response","454","1541904","0.0-6.0-0.78","","img/green.png","32","trial","32","true","1,0","3:go_c","",""
"null","","html-keyboard-response","455","1542905","0.0-6.0-1.78","","<img src=""img/green-r.png"" border=""10"">","null","trial","32","","1,0","3:go_c","1",""
"null","","html-keyboard-response","456","1543909","0.0-6.0-2.78","","<div style=""font-size:60px;"">+</div>","null","","","","","","",""
"null","","image-keyboard-response","457","1545412","0.0-6.0-0.79","","img/yellow.png","null","trial","32","false","0.8,0.2","1:go_a","",""
"null","","html-keyboard-response","458","1546417","0.0-6.0-1.79","","<img src=""img/yellow-r.png"">","null","trial","32","","0.8,0.2","1:go_a","1",""
"null","","html-keyboard-response","459","1547421","0.0-6.0-2.79","","<div style=""font-size:60px;"">+</div>","null","","","","","","",""
"1377.1900000283495","","image-keyboard-response","460","1548799","0.0-6.0-0.80","","img/grey.png","32","trial","null","false","0,1","4:nogo_d","",""
"null","","html-keyboard-response","461","1549801","0.0-6.0-1.80","","<img src=""img/grey-n.png"" border=""10"">","null","trial","null","","0,1","4:nogo_d","0",""
"null","","html-keyboard-response","462","1550805","0.0-6.0-2.80","","<div style=""font-size:60px;"">+</div>","null","","","","","","",""
"null","","image-keyboard-response","463","1552309","0.0-6.0-0.81","","img/yellow.png","null","trial","32","false","0.8,0.2","1:go_a","",""
"null","","html-keyboard-response","464","1553313","0.0-6.0-1.81","","<img src=""img/yellow-n.png"">","null","trial","32","","0.8,0.2","1:go_a","0",""
"null","","html-keyboard-response","465","1554318","0.0-6.0-2.81","","<div style=""font-size:60px;"">+</div>","null","","","","","","",""
"833.3449999336153","","image-keyboard-response","466","1555152","0.0-6.0-0.82","","img/green.png","32","trial","32","true","1,0","3:go_c","",""
"null","","html-keyboard-response","467","1556158","0.0-6.0-1.82","","<img src=""img/green-r.png"" border=""10"">","null","trial","32","","1,0","3:go_c","1",""
"null","","html-keyboard-response","468","1557162","0.0-6.0-2.82","","<div style=""font-size:60px;"">+</div>","null","","","","","","",""
"null","","image-keyboard-response","469","1558666","0.0-6.0-0.83","","img/purple.png","null","trial","null","true","0.2,0.8","2:nogo_b","",""
"null","","html-keyboard-response","470","1559670","0.0-6.0-1.83","","<img src=""img/purple-n.png"">","null","trial","null","","0.2,0.8","2:nogo_b","0",""
"null","","html-keyboard-response","471","1560674","0.0-6.0-2.83","","<div style=""font-size:60px;"">+</div>","null","","","","","","",""
"564.2750000115484","","image-keyboard-response","472","1561240","0.0-6.0-0.84","","img/green.png","32","trial","32","true","1,0","3:go_c","",""
"null","","html-keyboard-response","473","1562242","0.0-6.0-1.84","","<img src=""img/green-r.png"" border=""10"">","null","trial","32","","1,0","3:go_c","1",""
"null","","html-keyboard-response","474","1563247","0.0-6.0-2.84","","<div style=""font-size:60px;"">+</div>","null","","","","","","",""
"1328.3550000051036","","image-keyboard-response","475","1564576","0.0-6.0-0.85","","img/purple.png","32","trial","null","false","0.2,0.8","2:nogo_b","",""
"null","","html-keyboard-response","476","1565580","0.0-6.0-1.85","","<img src=""img/purple-n.png"" border=""10"">","null","trial","null","","0.2,0.8","2:nogo_b","0",""
"null","","html-keyboard-response","477","1566583","0.0-6.0-2.85","","<div style=""font-size:60px;"">+</div>","null","","","","","","",""
"null","","image-keyboard-response","478","1568088","0.0-6.0-0.86","","img/grey.png","null","trial","null","true","0,1","4:nogo_d","",""
"null","","html-keyboard-response","479","1569092","0.0-6.0-1.86","","<img src=""img/grey-r.png"">","null","trial","null","","0,1","4:nogo_d","1",""
"null","","html-keyboard-response","480","1570096","0.0-6.0-2.86","","<div style=""font-size:60px;"">+</div>","null","","","","","","",""
"null","","image-keyboard-response","481","1571599","0.0-6.0-0.87","","img/yellow.png","null","trial","32","false","0.8,0.2","1:go_a","",""
"null","","html-keyboard-response","482","1572604","0.0-6.0-1.87","","<img src=""img/yellow-n.png"">","null","trial","32","","0.8,0.2","1:go_a","0",""
"null","","html-keyboard-response","483","1573608","0.0-6.0-2.87","","<div style=""font-size:60px;"">+</div>","null","","","","","","",""
"null","","image-keyboard-response","484","1575111","0.0-6.0-0.88","","img/grey.png","null","trial","null","true","0,1","4:nogo_d","",""
"null","","html-keyboard-response","485","1576116","0.0-6.0-1.88","","<img src=""img/grey-r.png"">","null","trial","null","","0,1","4:nogo_d","1",""
"null","","html-keyboard-response","486","1577120","0.0-6.0-2.88","","<div style=""font-size:60px;"">+</div>","null","","","","","","",""
"null","","image-keyboard-response","487","1578624","0.0-6.0-0.89","","img/yellow.png","null","trial","32","false","0.8,0.2","1:go_a","",""
"null","","html-keyboard-response","488","1579628","0.0-6.0-1.89","","<img src=""img/yellow-n.png"">","null","trial","32","","0.8,0.2","1:go_a","0",""
"null","","html-keyboard-response","489","1580632","0.0-6.0-2.89","","<div style=""font-size:60px;"">+</div>","null","","","","","","",""
"439.69999998807907","","image-keyboard-response","490","1581073","0.0-6.0-0.90","","img/green.png","32","trial","32","true","1,0","3:go_c","",""
"null","","html-keyboard-response","491","1582080","0.0-6.0-1.90","","<img src=""img/green-r.png"" border=""10"">","null","trial","32","","1,0","3:go_c","1",""
"null","","html-keyboard-response","492","1583083","0.0-6.0-2.90","","<div style=""font-size:60px;"">+</div>","null","","","","","","",""
"1467.9900000337511","","image-keyboard-response","493","1584552","0.0-6.0-0.91","","img/purple.png","32","trial","null","false","0.2,0.8","2:nogo_b","",""
"null","","html-keyboard-response","494","1585555","0.0-6.0-1.91","","<img src=""img/purple-r.png"" border=""10"">","null","trial","null","","0.2,0.8","2:nogo_b","1",""
"null","","html-keyboard-response","495","1586559","0.0-6.0-2.91","","<div style=""font-size:60px;"">+</div>","null","","","","","","",""
"null","","image-keyboard-response","496","1588063","0.0-6.0-0.92","","img/purple.png","null","trial","null","true","0.2,0.8","2:nogo_b","",""
"null","","html-keyboard-response","497","1589067","0.0-6.0-1.92","","<img src=""img/purple-n.png"">","null","trial","null","","0.2,0.8","2:nogo_b","0",""
"null","","html-keyboard-response","498","1590071","0.0-6.0-2.92","","<div style=""font-size:60px;"">+</div>","null","","","","","","",""
"1408.4299999522045","","image-keyboard-response","499","1591480","0.0-6.0-0.93","","img/grey.png","32","trial","null","false","0,1","4:nogo_d","",""
"null","","html-keyboard-response","500","1592482","0.0-6.0-1.93","","<img src=""img/grey-n.png"" border=""10"">","null","trial","null","","0,1","4:nogo_d","0",""
"null","","html-keyboard-response","501","1593485","0.0-6.0-2.93","","<div style=""font-size:60px;"">+</div>","null","","","","","","",""
"null","","image-keyboard-response","502","1594989","0.0-6.0-0.94","","img/yellow.png","null","trial","32","false","0.8,0.2","1:go_a","",""
"null","","html-keyboard-response","503","1595992","0.0-6.0-1.94","","<img src=""img/yellow-n.png"">","null","trial","32","","0.8,0.2","1:go_a","0",""
"null","","html-keyboard-response","504","1596997","0.0-6.0-2.94","","<div style=""font-size:60px;"">+</div>","null","","","","","","",""
"532.1049999911338","","image-keyboard-response","505","1597530","0.0-6.0-0.95","","img/green.png","32","trial","32","true","1,0","3:go_c","",""
"null","","html-keyboard-response","506","1598536","0.0-6.0-1.95","","<img src=""img/green-r.png"" border=""10"">","null","trial","32","","1,0","3:go_c","1",""
"null","","html-keyboard-response","507","1599540","0.0-6.0-2.95","","<div style=""font-size:60px;"">+</div>","null","","","","","","",""
"null","","image-keyboard-response","508","1601043","0.0-6.0-0.96","","img/yellow.png","null","trial","32","false","0.8,0.2","1:go_a","",""
"null","","html-keyboard-response","509","1602047","0.0-6.0-1.96","","<img src=""img/yellow-r.png"">","null","trial","32","","0.8,0.2","1:go_a","1",""
"null","","html-keyboard-response","510","1603052","0.0-6.0-2.96","","<div style=""font-size:60px;"">+</div>","null","","","","","","",""
"1396.6500000096858","","image-keyboard-response","511","1604450","0.0-6.0-0.97","","img/purple.png","32","trial","null","false","0.2,0.8","2:nogo_b","",""
"null","","html-keyboard-response","512","1605452","0.0-6.0-1.97","","<img src=""img/purple-n.png"" border=""10"">","null","trial","null","","0.2,0.8","2:nogo_b","0",""
"null","","html-keyboard-response","513","1606454","0.0-6.0-2.97","","<div style=""font-size:60px;"">+</div>","null","","","","","","",""
"625.7200000109151","","image-keyboard-response","514","1607080","0.0-6.0-0.98","","img/green.png","32","trial","32","true","1,0","3:go_c","",""
"null","","html-keyboard-response","515","1608081","0.0-6.0-1.98","","<img src=""img/green-r.png"" border=""10"">","null","trial","32","","1,0","3:go_c","1",""
"null","","html-keyboard-response","516","1609083","0.0-6.0-2.98","","<div style=""font-size:60px;"">+</div>","null","","","","","","",""
"null","","image-keyboard-response","517","1610587","0.0-6.0-0.99","","img/grey.png","null","trial","null","true","0,1","4:nogo_d","",""
"null","","html-keyboard-response","518","1611591","0.0-6.0-1.99","","<img src=""img/grey-r.png"">","null","trial","null","","0,1","4:nogo_d","1",""
"null","","html-keyboard-response","519","1612596","0.0-6.0-2.99","","<div style=""font-size:60px;"">+</div>","null","","","","","","",""
"null","","image-keyboard-response","520","1614099","0.0-6.0-0.100","","img/yellow.png","null","trial","32","false","0.8,0.2","1:go_a","",""
"null","","html-keyboard-response","521","1615104","0.0-6.0-1.100","","<img src=""img/yellow-n.png"">","null","trial","32","","0.8,0.2","1:go_a","0",""
"null","","html-keyboard-response","522","1616107","0.0-6.0-2.100","","<div style=""font-size:60px;"">+</div>","null","","","","","","",""
"397.63000002130866","","image-keyboard-response","523","1616506","0.0-6.0-0.101","","img/green.png","32","trial","32","true","1,0","3:go_c","",""
"null","","html-keyboard-response","524","1617513","0.0-6.0-1.101","","<img src=""img/green-r.png"" border=""10"">","null","trial","32","","1,0","3:go_c","1",""
"null","","html-keyboard-response","525","1618517","0.0-6.0-2.101","","<div style=""font-size:60px;"">+</div>","null","","","","","","",""
"null","","image-keyboard-response","526","1620020","0.0-6.0-0.102","","img/grey.png","null","trial","null","true","0,1","4:nogo_d","",""
"null","","html-keyboard-response","527","1621025","0.0-6.0-1.102","","<img src=""img/grey-r.png"">","null","trial","null","","0,1","4:nogo_d","1",""
"null","","html-keyboard-response","528","1622029","0.0-6.0-2.102","","<div style=""font-size:60px;"">+</div>","null","","","","","","",""
"1155.239999992773","","image-keyboard-response","529","1623185","0.0-6.0-0.103","","img/purple.png","32","trial","null","false","0.2,0.8","2:nogo_b","",""
"null","","html-keyboard-response","530","1624189","0.0-6.0-1.103","","<img src=""img/purple-n.png"" border=""10"">","null","trial","null","","0.2,0.8","2:nogo_b","0",""
"null","","html-keyboard-response","531","1625193","0.0-6.0-2.103","","<div style=""font-size:60px;"">+</div>","null","","","","","","",""
"1431.9399999221787","","image-keyboard-response","532","1626625","0.0-6.0-0.104","","img/purple.png","32","trial","null","false","0.2,0.8","2:nogo_b","",""
"null","","html-keyboard-response","533","1627629","0.0-6.0-1.104","","<img src=""img/purple-n.png"" border=""10"">","null","trial","null","","0.2,0.8","2:nogo_b","0",""
"null","","html-keyboard-response","534","1628633","0.0-6.0-2.104","","<div style=""font-size:60px;"">+</div>","null","","","","","","",""
"null","","image-keyboard-response","535","1630136","0.0-6.0-0.105","","img/grey.png","null","trial","null","true","0,1","4:nogo_d","",""
"null","","html-keyboard-response","536","1631140","0.0-6.0-1.105","","<img src=""img/grey-r.png"">","null","trial","null","","0,1","4:nogo_d","1",""
"null","","html-keyboard-response","537","1632145","0.0-6.0-2.105","","<div style=""font-size:60px;"">+</div>","null","","","","","","",""
"null","","image-keyboard-response","538","1633650","0.0-6.0-0.106","","img/yellow.png","null","trial","32","false","0.8,0.2","1:go_a","",""
"null","","html-keyboard-response","539","1634656","0.0-6.0-1.106","","<img src=""img/yellow-n.png"">","null","trial","32","","0.8,0.2","1:go_a","0",""
"null","","html-keyboard-response","540","1635660","0.0-6.0-2.106","","<div style=""font-size:60px;"">+</div>","null","","","","","","",""
"538.8299999758601","","image-keyboard-response","541","1636199","0.0-6.0-0.107","","img/green.png","32","trial","32","true","1,0","3:go_c","",""
"null","","html-keyboard-response","542","1637204","0.0-6.0-1.107","","<img src=""img/green-r.png"" border=""10"">","null","trial","32","","1,0","3:go_c","1",""
"null","","html-keyboard-response","543","1638208","0.0-6.0-2.107","","<div style=""font-size:60px;"">+</div>","null","","","","","","",""
"null","","image-keyboard-response","544","1639711","0.0-6.0-0.108","","img/yellow.png","null","trial","32","false","0.8,0.2","1:go_a","",""
"null","","html-keyboard-response","545","1640719","0.0-6.0-1.108","","<img src=""img/yellow-n.png"">","null","trial","32","","0.8,0.2","1:go_a","0",""
"null","","html-keyboard-response","546","1641720","0.0-6.0-2.108","","<div style=""font-size:60px;"">+</div>","null","","","","","","",""
"1290.5799999134615","","image-keyboard-response","547","1643012","0.0-6.0-0.109","","img/purple.png","32","trial","null","false","0.2,0.8","2:nogo_b","",""
"null","","html-keyboard-response","548","1644013","0.0-6.0-1.109","","<img src=""img/purple-r.png"" border=""10"">","null","trial","null","","0.2,0.8","2:nogo_b","1",""
"null","","html-keyboard-response","549","1645017","0.0-6.0-2.109","","<div style=""font-size:60px;"">+</div>","null","","","","","","",""
"696.3599999435246","","image-keyboard-response","550","1645714","0.0-6.0-0.110","","img/green.png","32","trial","32","true","1,0","3:go_c","",""
"null","","html-keyboard-response","551","1646718","0.0-6.0-1.110","","<img src=""img/green-r.png"" border=""10"">","null","trial","32","","1,0","3:go_c","1",""
"null","","html-keyboard-response","552","1647723","0.0-6.0-2.110","","<div style=""font-size:60px;"">+</div>","null","","","","","","",""
"null","","image-keyboard-response","553","1649226","0.0-6.0-0.111","","img/grey.png","null","trial","null","true","0,1","4:nogo_d","",""
"null","","html-keyboard-response","554","1650231","0.0-6.0-1.111","","<img src=""img/grey-r.png"">","null","trial","null","","0,1","4:nogo_d","1",""
"null","","html-keyboard-response","555","1651234","0.0-6.0-2.111","","<div style=""font-size:60px;"">+</div>","null","","","","","","",""
"1413.8449999736622","","image-keyboard-response","556","1652649","0.0-6.0-0.112","","img/purple.png","32","trial","null","false","0.2,0.8","2:nogo_b","",""
"null","","html-keyboard-response","557","1653654","0.0-6.0-1.112","","<img src=""img/purple-n.png"" border=""10"">","null","trial","null","","0.2,0.8","2:nogo_b","0",""
"null","","html-keyboard-response","558","1654659","0.0-6.0-2.112","","<div style=""font-size:60px;"">+</div>","null","","","","","","",""
"1423.769999993965","","image-keyboard-response","559","1656083","0.0-6.0-0.113","","img/grey.png","32","trial","null","false","0,1","4:nogo_d","",""
"null","","html-keyboard-response","560","1657086","0.0-6.0-1.113","","<img src=""img/grey-n.png"" border=""10"">","null","trial","null","","0,1","4:nogo_d","0",""
"null","","html-keyboard-response","561","1658090","0.0-6.0-2.113","","<div style=""font-size:60px;"">+</div>","null","","","","","","",""
"null","","image-keyboard-response","562","1659594","0.0-6.0-0.114","","img/yellow.png","null","trial","32","false","0.8,0.2","1:go_a","",""
"null","","html-keyboard-response","563","1660599","0.0-6.0-1.114","","<img src=""img/yellow-n.png"">","null","trial","32","","0.8,0.2","1:go_a","0",""
"null","","html-keyboard-response","564","1661603","0.0-6.0-2.114","","<div style=""font-size:60px;"">+</div>","null","","","","","","",""
"606.984999962151","","image-keyboard-response","565","1662211","0.0-6.0-0.115","","img/green.png","32","trial","32","true","1,0","3:go_c","",""
"null","","html-keyboard-response","566","1663216","0.0-6.0-1.115","","<img src=""img/green-r.png"" border=""10"">","null","trial","32","","1,0","3:go_c","1",""
"null","","html-keyboard-response","567","1664221","0.0-6.0-2.115","","<div style=""font-size:60px;"">+</div>","null","","","","","","",""
"469.370000064373","","image-keyboard-response","568","1664691","0.0-6.0-0.116","","img/green.png","32","trial","32","true","1,0","3:go_c","",""
"null","","html-keyboard-response","569","1665696","0.0-6.0-1.116","","<img src=""img/green-r.png"" border=""10"">","null","trial","32","","1,0","3:go_c","1",""
"null","","html-keyboard-response","570","1666699","0.0-6.0-2.116","","<div style=""font-size:60px;"">+</div>","null","","","","","","",""
"1262.8000000258908","","image-keyboard-response","571","1667963","0.0-6.0-0.117","","img/purple.png","32","trial","null","false","0.2,0.8","2:nogo_b","",""
"null","","html-keyboard-response","572","1668964","0.0-6.0-1.117","","<img src=""img/purple-r.png"" border=""10"">","null","trial","null","","0.2,0.8","2:nogo_b","1",""
"null","","html-keyboard-response","573","1669968","0.0-6.0-2.117","","<div style=""font-size:60px;"">+</div>","null","","","","","","",""
"null","","image-keyboard-response","574","1671472","0.0-6.0-0.118","","img/yellow.png","null","trial","32","false","0.8,0.2","1:go_a","",""
"null","","html-keyboard-response","575","1672476","0.0-6.0-1.118","","<img src=""img/yellow-n.png"">","null","trial","32","","0.8,0.2","1:go_a","0",""
"null","","html-keyboard-response","576","1673480","0.0-6.0-2.118","","<div style=""font-size:60px;"">+</div>","null","","","","","","",""
"null","","image-keyboard-response","577","1674984","0.0-6.0-0.119","","img/grey.png","null","trial","null","true","0,1","4:nogo_d","",""
"null","","html-keyboard-response","578","1675988","0.0-6.0-1.119","","<img src=""img/grey-r.png"">","null","trial","null","","0,1","4:nogo_d","1",""
"null","","html-keyboard-response","579","1676993","0.0-6.0-2.119","","<div style=""font-size:60px;"">+</div>","null","","","","","","",""
"98851.26999998465","","instructions","580","1775847","0.0-7.0","[{""page_index"":0,""viewing_time"":98850.94499995466}]","","","","","","","","",""
"660.619999980554","","image-keyboard-response","581","1776510","0.0-8.0-0.0","","img/blue.png","32","trial","null","false","0.2,0.8","4:nogo_d","",""
"null","","html-keyboard-response","582","1777515","0.0-8.0-1.0","","<img src=""img/blue-n.png"" border=""10"">","null","trial","null","","0.2,0.8","4:nogo_d","0",""
"null","","html-keyboard-response","583","1778519","0.0-8.0-2.0","","<div style=""font-size:60px;"">+</div>","null","","","","","","",""
"534.1350000817329","","image-keyboard-response","584","1779054","0.0-8.0-0.1","","img/yellow.png","32","trial","32","true","0.8,0.2","1:go_a","",""
"null","","html-keyboard-response","585","1780057","0.0-8.0-1.1","","<img src=""img/yellow-r.png"" border=""10"">","null","trial","32","","0.8,0.2","1:go_a","1",""
"null","","html-keyboard-response","586","1781061","0.0-8.0-2.1","","<div style=""font-size:60px;"">+</div>","null","","","","","","",""
"848.8600000273436","","image-keyboard-response","587","1781910","0.0-8.0-0.2","","img/pink.png","32","trial","null","false","0.2,0.8","2:nogo_b","",""
"null","","html-keyboard-response","588","1782916","0.0-8.0-1.2","","<img src=""img/pink-r.png"" border=""10"">","null","trial","null","","0.2,0.8","2:nogo_b","1",""
"null","","html-keyboard-response","589","1783918","0.0-8.0-2.2","","<div style=""font-size:60px;"">+</div>","null","","","","","","",""
"735.1150000467896","","image-keyboard-response","590","1784654","0.0-8.0-0.3","","img/orange.png","32","trial","32","true","0.8,0.2","3:go_c","",""
"null","","html-keyboard-response","591","1785659","0.0-8.0-1.3","","<img src=""img/orange-r.png"" border=""10"">","null","trial","32","","0.8,0.2","3:go_c","1",""
"null","","html-keyboard-response","592","1786663","0.0-8.0-2.3","","<div style=""font-size:60px;"">+</div>","null","","","","","","",""
"544.2700000712648","","image-keyboard-response","593","1787208","0.0-8.0-0.4","","img/yellow.png","32","trial","32","true","0.8,0.2","1:go_a","",""
"null","","html-keyboard-response","594","1788215","0.0-8.0-1.4","","<img src=""img/yellow-n.png"" border=""10"">","null","trial","32","","0.8,0.2","1:go_a","0",""
"null","","html-keyboard-response","595","1789218","0.0-8.0-2.4","","<div style=""font-size:60px;"">+</div>","null","","","","","","",""
"null","","image-keyboard-response","596","1790722","0.0-8.0-0.5","","img/blue.png","null","trial","null","true","0.2,0.8","4:nogo_d","",""
"null","","html-keyboard-response","597","1791726","0.0-8.0-1.5","","<img src=""img/blue-r.png"">","null","trial","null","","0.2,0.8","4:nogo_d","1",""
"null","","html-keyboard-response","598","1792729","0.0-8.0-2.5","","<div style=""font-size:60px;"">+</div>","null","","","","","","",""
"1036.5750000346452","","image-keyboard-response","599","1793767","0.0-8.0-0.6","","img/orange.png","32","trial","32","true","0.8,0.2","3:go_c","",""
"null","","html-keyboard-response","600","1794769","0.0-8.0-1.6","","<img src=""img/orange-r.png"" border=""10"">","null","trial","32","","0.8,0.2","3:go_c","1",""
"null","","html-keyboard-response","601","1795772","0.0-8.0-2.6","","<div style=""font-size:60px;"">+</div>","null","","","","","","",""
"658.0299999332055","","image-keyboard-response","602","1796431","0.0-8.0-0.7","","img/pink.png","32","trial","null","false","0.2,0.8","2:nogo_b","",""
"null","","html-keyboard-response","603","1797432","0.0-8.0-1.7","","<img src=""img/pink-r.png"" border=""10"">","null","trial","null","","0.2,0.8","2:nogo_b","1",""
"null","","html-keyboard-response","604","1798437","0.0-8.0-2.7","","<div style=""font-size:60px;"">+</div>","null","","","","","","",""
"554.3799999868497","","image-keyboard-response","605","1798992","0.0-8.0-0.8","","img/pink.png","32","trial","null","false","0.2,0.8","2:nogo_b","",""
"null","","html-keyboard-response","606","1799998","0.0-8.0-1.8","","<img src=""img/pink-n.png"" border=""10"">","null","trial","null","","0.2,0.8","2:nogo_b","0",""
"null","","html-keyboard-response","607","1801002","0.0-8.0-2.8","","<div style=""font-size:60px;"">+</div>","null","","","","","","",""
"652.8199999593198","","image-keyboard-response","608","1801655","0.0-8.0-0.9","","img/yellow.png","32","trial","32","true","0.8,0.2","1:go_a","",""
"null","","html-keyboard-response","609","1802662","0.0-8.0-1.9","","<img src=""img/yellow-r.png"" border=""10"">","null","trial","32","","0.8,0.2","1:go_a","1",""
"null","","html-keyboard-response","610","1803667","0.0-8.0-2.9","","<div style=""font-size:60px;"">+</div>","null","","","","","","",""
"787.3900000704452","","image-keyboard-response","611","1804455","0.0-8.0-0.10","","img/orange.png","32","trial","32","true","0.8,0.2","3:go_c","",""
"null","","html-keyboard-response","612","1805460","0.0-8.0-1.10","","<img src=""img/orange-r.png"" border=""10"">","null","trial","32","","0.8,0.2","3:go_c","1",""
"null","","html-keyboard-response","613","1806465","0.0-8.0-2.10","","<div style=""font-size:60px;"">+</div>","null","","","","","","",""
"null","","image-keyboard-response","614","1807968","0.0-8.0-0.11","","img/blue.png","null","trial","null","true","0.2,0.8","4:nogo_d","",""
"null","","html-keyboard-response","615","1808973","0.0-8.0-1.11","","<img src=""img/blue-r.png"">","null","trial","null","","0.2,0.8","4:nogo_d","1",""
"null","","html-keyboard-response","616","1809976","0.0-8.0-2.11","","<div style=""font-size:60px;"">+</div>","null","","","","","","",""
"790.1249999413267","","image-keyboard-response","617","1810767","0.0-8.0-0.12","","img/pink.png","32","trial","null","false","0.2,0.8","2:nogo_b","",""
"null","","html-keyboard-response","618","1811771","0.0-8.0-1.12","","<img src=""img/pink-n.png"" border=""10"">","null","trial","null","","0.2,0.8","2:nogo_b","0",""
"null","","html-keyboard-response","619","1812775","0.0-8.0-2.12","","<div style=""font-size:60px;"">+</div>","null","","","","","","",""
"null","","image-keyboard-response","620","1814281","0.0-8.0-0.13","","img/blue.png","null","trial","null","true","0.2,0.8","4:nogo_d","",""
"null","","html-keyboard-response","621","1815287","0.0-8.0-1.13","","<img src=""img/blue-r.png"">","null","trial","null","","0.2,0.8","4:nogo_d","1",""
"null","","html-keyboard-response","622","1816287","0.0-8.0-2.13","","<div style=""font-size:60px;"">+</div>","null","","","","","","",""
"1263.9600000111386","","image-keyboard-response","623","1817552","0.0-8.0-0.14","","img/yellow.png","32","trial","32","true","0.8,0.2","1:go_a","",""
"null","","html-keyboard-response","624","1818556","0.0-8.0-1.14","","<img src=""img/yellow-r.png"" border=""10"">","null","trial","32","","0.8,0.2","1:go_a","1",""
"null","","html-keyboard-response","625","1819561","0.0-8.0-2.14","","<div style=""font-size:60px;"">+</div>","null","","","","","","",""
"645.6499999621883","","image-keyboard-response","626","1820208","0.0-8.0-0.15","","img/orange.png","32","trial","32","true","0.8,0.2","3:go_c","",""
"null","","html-keyboard-response","627","1821212","0.0-8.0-1.15","","<img src=""img/orange-r.png"" border=""10"">","null","trial","32","","0.8,0.2","3:go_c","1",""
"null","","html-keyboard-response","628","1822214","0.0-8.0-2.15","","<div style=""font-size:60px;"">+</div>","null","","","","","","",""
"657.9350000247359","","image-keyboard-response","629","1822873","0.0-8.0-0.16","","img/orange.png","32","trial","32","true","0.8,0.2","3:go_c","",""
"null","","html-keyboard-response","630","1823875","0.0-8.0-1.16","","<img src=""img/orange-r.png"" border=""10"">","null","trial","32","","0.8,0.2","3:go_c","1",""
"null","","html-keyboard-response","631","1824879","0.0-8.0-2.16","","<div style=""font-size:60px;"">+</div>","null","","","","","","",""
"519.8300000047311","","image-keyboard-response","632","1825399","0.0-8.0-0.17","","img/blue.png","32","trial","null","false","0.2,0.8","4:nogo_d","",""
"null","","html-keyboard-response","633","1826403","0.0-8.0-1.17","","<img src=""img/blue-n.png"" border=""10"">","null","trial","null","","0.2,0.8","4:nogo_d","0",""
"null","","html-keyboard-response","634","1827404","0.0-8.0-2.17","","<div style=""font-size:60px;"">+</div>","null","","","","","","",""
"730.1250000018626","","image-keyboard-response","635","1828135","0.0-8.0-0.18","","img/pink.png","32","trial","null","false","0.2,0.8","2:nogo_b","",""
"null","","html-keyboard-response","636","1829140","0.0-8.0-1.18","","<img src=""img/pink-r.png"" border=""10"">","null","trial","null","","0.2,0.8","2:nogo_b","1",""
"null","","html-keyboard-response","637","1830144","0.0-8.0-2.18","","<div style=""font-size:60px;"">+</div>","null","","","","","","",""
"null","","image-keyboard-response","638","1831648","0.0-8.0-0.19","","img/yellow.png","null","trial","32","false","0.8,0.2","1:go_a","",""
"null","","html-keyboard-response","639","1832652","0.0-8.0-1.19","","<img src=""img/yellow-n.png"">","null","trial","32","","0.8,0.2","1:go_a","0",""
"null","","html-keyboard-response","640","1833656","0.0-8.0-2.19","","<div style=""font-size:60px;"">+</div>","null","","","","","","",""
"null","","image-keyboard-response","641","1835160","0.0-8.0-0.20","","img/yellow.png","null","trial","32","false","0.8,0.2","1:go_a","",""
"null","","html-keyboard-response","642","1836164","0.0-8.0-1.20","","<img src=""img/yellow-r.png"">","null","trial","32","","0.8,0.2","1:go_a","1",""
"null","","html-keyboard-response","643","1837168","0.0-8.0-2.20","","<div style=""font-size:60px;"">+</div>","null","","","","","","",""
"622.0100000500679","","image-keyboard-response","644","1837792","0.0-8.0-0.21","","img/pink.png","32","trial","null","false","0.2,0.8","2:nogo_b","",""
"null","","html-keyboard-response","645","1838793","0.0-8.0-1.21","","<img src=""img/pink-n.png"" border=""10"">","null","trial","null","","0.2,0.8","2:nogo_b","0",""
"null","","html-keyboard-response","646","1839798","0.0-8.0-2.21","","<div style=""font-size:60px;"">+</div>","null","","","","","","",""
"641.2400000263005","","image-keyboard-response","647","1840440","0.0-8.0-0.22","","img/orange.png","32","trial","32","true","0.8,0.2","3:go_c","",""
"null","","html-keyboard-response","648","1841445","0.0-8.0-1.22","","<img src=""img/orange-n.png"" border=""10"">","null","trial","32","","0.8,0.2","3:go_c","0",""
"null","","html-keyboard-response","649","1842450","0.0-8.0-2.22","","<div style=""font-size:60px;"">+</div>","null","","","","","","",""
"933.4650000091642","","image-keyboard-response","650","1843384","0.0-8.0-0.23","","img/blue.png","32","trial","null","false","0.2,0.8","4:nogo_d","",""
"null","","html-keyboard-response","651","1844390","0.0-8.0-1.23","","<img src=""img/blue-n.png"" border=""10"">","null","trial","null","","0.2,0.8","4:nogo_d","0",""
"null","","html-keyboard-response","652","1845394","0.0-8.0-2.23","","<div style=""font-size:60px;"">+</div>","null","","","","","","",""
"1157.1100000292063","","image-keyboard-response","653","1846552","0.0-8.0-0.24","","img/yellow.png","32","trial","32","true","0.8,0.2","1:go_a","",""
"null","","html-keyboard-response","654","1847554","0.0-8.0-1.24","","<img src=""img/yellow-r.png"" border=""10"">","null","trial","32","","0.8,0.2","1:go_a","1",""
"null","","html-keyboard-response","655","1848558","0.0-8.0-2.24","","<div style=""font-size:60px;"">+</div>","null","","","","","","",""
"null","","image-keyboard-response","656","1850062","0.0-8.0-0.25","","img/orange.png","null","trial","32","false","0.8,0.2","3:go_c","",""
"null","","html-keyboard-response","657","1851066","0.0-8.0-1.25","","<img src=""img/orange-n.png"">","null","trial","32","","0.8,0.2","3:go_c","0",""
"null","","html-keyboard-response","658","1852070","0.0-8.0-2.25","","<div style=""font-size:60px;"">+</div>","null","","","","","","",""
"793.9800000749528","","image-keyboard-response","659","1852864","0.0-8.0-0.26","","img/blue.png","32","trial","null","false","0.2,0.8","4:nogo_d","",""
"null","","html-keyboard-response","660","1853870","0.0-8.0-1.26","","<img src=""img/blue-n.png"" border=""10"">","null","trial","null","","0.2,0.8","4:nogo_d","0",""
"null","","html-keyboard-response","661","1854874","0.0-8.0-2.26","","<div style=""font-size:60px;"">+</div>","null","","","","","","",""
"1244.8800000129268","","image-keyboard-response","662","1856120","0.0-8.0-0.27","","img/pink.png","32","trial","null","false","0.2,0.8","2:nogo_b","",""
"null","","html-keyboard-response","663","1857121","0.0-8.0-1.27","","<img src=""img/pink-n.png"" border=""10"">","null","trial","null","","0.2,0.8","2:nogo_b","0",""
"null","","html-keyboard-response","664","1858125","0.0-8.0-2.27","","<div style=""font-size:60px;"">+</div>","null","","","","","","",""
"1042.8250000113621","","image-keyboard-response","665","1859169","0.0-8.0-0.28","","img/yellow.png","32","trial","32","true","0.8,0.2","1:go_a","",""
"null","","html-keyboard-response","666","1860174","0.0-8.0-1.28","","<img src=""img/yellow-n.png"" border=""10"">","null","trial","32","","0.8,0.2","1:go_a","0",""
"null","","html-keyboard-response","667","1861178","0.0-8.0-2.28","","<div style=""font-size:60px;"">+</div>","null","","","","","","",""
"1029.8100000945851","","image-keyboard-response","668","1862208","0.0-8.0-0.29","","img/orange.png","32","trial","32","true","0.8,0.2","3:go_c","",""
"null","","html-keyboard-response","669","1863210","0.0-8.0-1.29","","<img src=""img/orange-r.png"" border=""10"">","null","trial","32","","0.8,0.2","3:go_c","1",""
"null","","html-keyboard-response","670","1864215","0.0-8.0-2.29","","<div style=""font-size:60px;"">+</div>","null","","","","","","",""
"969.9050000635907","","image-keyboard-response","671","1865186","0.0-8.0-0.30","","img/pink.png","32","trial","null","false","0.2,0.8","2:nogo_b","",""
"null","","html-keyboard-response","672","1866188","0.0-8.0-1.30","","<img src=""img/pink-n.png"" border=""10"">","null","trial","null","","0.2,0.8","2:nogo_b","0",""
"null","","html-keyboard-response","673","1867193","0.0-8.0-2.30","","<div style=""font-size:60px;"">+</div>","null","","","","","","",""
"920.6149999517947","","image-keyboard-response","674","1868114","0.0-8.0-0.31","","img/blue.png","32","trial","null","false","0.2,0.8","4:nogo_d","",""
"null","","html-keyboard-response","675","1869119","0.0-8.0-1.31","","<img src=""img/blue-n.png"" border=""10"">","null","trial","null","","0.2,0.8","4:nogo_d","0",""
"null","","html-keyboard-response","676","1870125","0.0-8.0-2.31","","<div style=""font-size:60px;"">+</div>","null","","","","","","",""
"null","","image-keyboard-response","677","1871628","0.0-8.0-0.32","","img/pink.png","null","trial","null","true","0.2,0.8","2:nogo_b","",""
