"rt","url","trial_type","trial_index","time_elapsed","internal_node_id","view_history","stimulus","key_press","test_part","correct_response","correct","use_rew","which_stim","reward","responses"
"10291.375000000698","consent.html","external-html","0","10491","0.0-0.0","","","","","","","","","",""
"324089.6300000022","","instructions","1","334583","0.0-1.0","[{""page_index"":0,""viewing_time"":5270.815000025323},{""page_index"":1,""viewing_time"":241795.5249999941},{""page_index"":2,""viewing_time"":11660.919999994803},{""page_index"":3,""viewing_time"":35663.76999998465},{""page_index"":4,""viewing_time"":11474.195000017062},{""page_index"":5,""viewing_time"":4462.469999998575},{""page_index"":6,""viewing_time"":13758.780000003753}]","","","","","","","","",""
"485.0049999949988","","image-keyboard-response","2","335071","0.0-2.0-0.0","","img/test1.PNG","32","practice","32","true","","","",""
"null","","html-keyboard-response","3","336083","0.0-2.0-1.0","","<img src=""img/test1-reward.PNG"" border=""10px; grey"">","null","","","","","","",""
"null","","html-keyboard-response","4","337100","0.0-2.0-2.0","","<div style=""font-size:60px;"">+</div>","null","","","","","","",""
"null","","image-keyboard-response","5","338610","0.0-2.0-0.1","","img/test3.PNG","null","practice","null","true","","","",""
"null","","html-keyboard-response","6","339635","0.0-2.0-1.1","","<img src=""img/test3-reward.PNG"">","null","","","","","","",""
"null","","html-keyboard-response","7","340640","0.0-2.0-2.1","","<div style=""font-size:60px;"">+</div>","null","","","","","","",""
"null","","image-keyboard-response","8","342156","0.0-2.0-0.2","","img/test2.PNG","null","practice","null","true","","","",""
"null","","html-keyboard-response","9","343173","0.0-2.0-1.2","","<img src=""img/test2-reward.PNG"">","null","","","","","","",""
"null","","html-keyboard-response","10","344188","0.0-2.0-2.2","","<div style=""font-size:60px;"">+</div>","null","","","","","","",""
"null","","image-keyboard-response","11","345699","0.0-2.0-0.3","","img/test3.PNG","null","practice","null","true","","","",""
"null","","html-keyboard-response","12","346712","0.0-2.0-1.3","","<img src=""img/test3-reward.PNG"">","null","","","","","","",""
"null","","html-keyboard-response","13","347718","0.0-2.0-2.3","","<div style=""font-size:60px;"">+</div>","null","","","","","","",""
"null","","image-keyboard-response","14","349234","0.0-2.0-0.4","","img/test2.PNG","null","practice","null","true","","","",""
"null","","html-keyboard-response","15","350252","0.0-2.0-1.4","","<img src=""img/test2-reward.PNG"">","null","","","","","","",""
"null","","html-keyboard-response","16","351257","0.0-2.0-2.4","","<div style=""font-size:60px;"">+</div>","null","","","","","","",""
"442.67499999841675","","image-keyboard-response","17","351705","0.0-2.0-0.5","","img/test1.PNG","32","practice","32","true","","","",""
"null","","html-keyboard-response","18","352709","0.0-2.0-1.5","","<img src=""img/test1-reward.PNG"" border=""10px; grey"">","null","","","","","","",""
"null","","html-keyboard-response","19","353722","0.0-2.0-2.5","","<div style=""font-size:60px;"">+</div>","null","","","","","","",""
"530.8549999899697","","image-keyboard-response","20","354254","0.0-2.0-0.6","","img/test1.PNG","32","practice","32","true","","","",""
"null","","html-keyboard-response","21","355276","0.0-2.0-1.6","","<img src=""img/test1-reward.PNG"" border=""10px; grey"">","null","","","","","","",""
"null","","html-keyboard-response","22","356282","0.0-2.0-2.6","","<div style=""font-size:60px;"">+</div>","null","","","","","","",""
"null","","image-keyboard-response","23","357791","0.0-2.0-0.7","","img/test3.PNG","null","practice","null","true","","","",""
"null","","html-keyboard-response","24","358805","0.0-2.0-1.7","","<img src=""img/test3-reward.PNG"">","null","","","","","","",""
"null","","html-keyboard-response","25","359820","0.0-2.0-2.7","","<div style=""font-size:60px;"">+</div>","null","","","","","","",""
"null","","image-keyboard-response","26","361333","0.0-2.0-0.8","","img/test2.PNG","null","practice","null","true","","","",""
"null","","html-keyboard-response","27","362335","0.0-2.0-1.8","","<img src=""img/test2-reward.PNG"">","null","","","","","","",""
"null","","html-keyboard-response","28","363348","0.0-2.0-2.8","","<div style=""font-size:60px;"">+</div>","null","","","","","","",""
"414.1799999924842","","image-keyboard-response","29","363764","0.0-2.0-0.9","","img/test1.PNG","32","practice","32","true","","","",""
"null","","html-keyboard-response","30","364770","0.0-2.0-1.9","","<img src=""img/test1-reward.PNG"" border=""10px; grey"">","null","","","","","","",""
"null","","html-keyboard-response","31","365776","0.0-2.0-2.9","","<div style=""font-size:60px;"">+</div>","null","","","","","","",""
"null","","image-keyboard-response","32","367288","0.0-2.0-0.10","","img/test3.PNG","null","practice","null","true","","","",""
"null","","html-keyboard-response","33","368302","0.0-2.0-1.10","","<img src=""img/test3-reward.PNG"">","null","","","","","","",""
"null","","html-keyboard-response","34","369305","0.0-2.0-2.10","","<div style=""font-size:60px;"">+</div>","null","","","","","","",""
"null","","image-keyboard-response","35","370818","0.0-2.0-0.11","","img/test2.PNG","null","practice","null","true","","","",""
"null","","html-keyboard-response","36","371834","0.0-2.0-1.11","","<img src=""img/test2-reward.PNG"">","null","","","","","","",""
"null","","html-keyboard-response","37","372848","0.0-2.0-2.11","","<div style=""font-size:60px;"">+</div>","null","","","","","","",""
"3401.4099999913014","","instructions","38","376250","0.0-3.0","[{""page_index"":0,""viewing_time"":3400.7149999961257}]","","","","","","","","",""
"756.3899999950081","","image-keyboard-response","39","377009","0.0-4.0-0.0","","img/blue.png","32","trial","32","true","0.8,0.2","1:go_a","",""
"null","","html-keyboard-response","40","378028","0.0-4.0-1.0","","<img src=""img/blue-n.png"" border=""10"">","null","trial","32","","0.8,0.2","1:go_a","0",""
"null","","html-keyboard-response","41","379043","0.0-4.0-2.0","","<div style=""font-size:60px;"">+</div>","null","","","","","","",""
"765.2100000123028","","image-keyboard-response","42","379810","0.0-4.0-0.1","","img/orange.png","32","trial","null","false","0.2,0.8","2:nogo_b","",""
"null","","html-keyboard-response","43","380825","0.0-4.0-1.1","","<img src=""img/orange-r.png"" border=""10"">","null","trial","null","","0.2,0.8","2:nogo_b","1",""
"null","","html-keyboard-response","44","381837","0.0-4.0-2.1","","<div style=""font-size:60px;"">+</div>","null","","","","","","",""
"null","","image-keyboard-response","45","383353","0.0-4.0-0.2","","img/blue.png","null","trial","32","false","0.8,0.2","1:go_a","",""
"null","","html-keyboard-response","46","384366","0.0-4.0-1.2","","<img src=""img/blue-n.png"">","null","trial","32","","0.8,0.2","1:go_a","0",""
"null","","html-keyboard-response","47","385381","0.0-4.0-2.2","","<div style=""font-size:60px;"">+</div>","null","","","","","","",""
"732.6100000063889","","image-keyboard-response","48","386116","0.0-4.0-0.3","","img/orange.png","32","trial","null","false","0.2,0.8","2:nogo_b","",""
"null","","html-keyboard-response","49","387126","0.0-4.0-1.3","","<img src=""img/orange-n.png"" border=""10"">","null","trial","null","","0.2,0.8","2:nogo_b","0",""
"null","","html-keyboard-response","50","388132","0.0-4.0-2.3","","<div style=""font-size:60px;"">+</div>","null","","","","","","",""
"911.9700000155717","","image-keyboard-response","51","389046","0.0-4.0-0.4","","img/orange.png","32","trial","null","false","0.2,0.8","2:nogo_b","",""
"null","","html-keyboard-response","52","390049","0.0-4.0-1.4","","<img src=""img/orange-r.png"" border=""10"">","null","trial","null","","0.2,0.8","2:nogo_b","1",""
"null","","html-keyboard-response","53","391055","0.0-4.0-2.4","","<div style=""font-size:60px;"">+</div>","null","","","","","","",""
"null","","image-keyboard-response","54","392566","0.0-4.0-0.5","","img/blue.png","null","trial","32","false","0.8,0.2","1:go_a","",""
"null","","html-keyboard-response","55","393578","0.0-4.0-1.5","","<img src=""img/blue-r.png"">","null","trial","32","","0.8,0.2","1:go_a","1",""
"null","","html-keyboard-response","56","394632","0.0-4.0-2.5","","<div style=""font-size:60px;"">+</div>","null","","","","","","",""
"791.479999985313","","image-keyboard-response","57","395425","0.0-4.0-0.6","","img/blue.png","32","trial","32","true","0.8,0.2","1:go_a","",""
"null","","html-keyboard-response","58","396445","0.0-4.0-1.6","","<img src=""img/blue-r.png"" border=""10"">","null","trial","32","","0.8,0.2","1:go_a","1",""
"null","","html-keyboard-response","59","397448","0.0-4.0-2.6","","<div style=""font-size:60px;"">+</div>","null","","","","","","",""
"955.9550000121817","","image-keyboard-response","60","398407","0.0-4.0-0.7","","img/orange.png","32","trial","null","false","0.2,0.8","2:nogo_b","",""
"null","","html-keyboard-response","61","399436","0.0-4.0-1.7","","<img src=""img/orange-n.png"" border=""10"">","null","trial","null","","0.2,0.8","2:nogo_b","0",""
"null","","html-keyboard-response","62","400473","0.0-4.0-2.7","","<div style=""font-size:60px;"">+</div>","null","","","","","","",""
"null","","image-keyboard-response","63","401974","0.0-4.0-0.8","","img/blue.png","null","trial","32","false","0.8,0.2","1:go_a","",""
"null","","html-keyboard-response","64","402981","0.0-4.0-1.8","","<img src=""img/blue-n.png"">","null","trial","32","","0.8,0.2","1:go_a","0",""
"null","","html-keyboard-response","65","403994","0.0-4.0-2.8","","<div style=""font-size:60px;"">+</div>","null","","","","","","",""
"1342.9049999976996","","image-keyboard-response","66","405339","0.0-4.0-0.9","","img/orange.png","32","trial","null","false","0.2,0.8","2:nogo_b","",""
"null","","html-keyboard-response","67","406356","0.0-4.0-1.9","","<img src=""img/orange-n.png"" border=""10"">","null","trial","null","","0.2,0.8","2:nogo_b","0",""
"null","","html-keyboard-response","68","407368","0.0-4.0-2.9","","<div style=""font-size:60px;"">+</div>","null","","","","","","",""
"1430.3749999962747","","image-keyboard-response","69","408800","0.0-4.0-0.10","","img/blue.png","32","trial","32","true","0.8,0.2","1:go_a","",""
"null","","html-keyboard-response","70","409815","0.0-4.0-1.10","","<img src=""img/blue-r.png"" border=""10"">","null","trial","32","","0.8,0.2","1:go_a","1",""
"null","","html-keyboard-response","71","410832","0.0-4.0-2.10","","<div style=""font-size:60px;"">+</div>","null","","","","","","",""
"773.6750000040047","","image-keyboard-response","72","411609","0.0-4.0-0.11","","img/orange.png","32","trial","null","false","0.2,0.8","2:nogo_b","",""
"null","","html-keyboard-response","73","412623","0.0-4.0-1.11","","<img src=""img/orange-r.png"" border=""10"">","null","trial","null","","0.2,0.8","2:nogo_b","1",""
"null","","html-keyboard-response","74","413632","0.0-4.0-2.11","","<div style=""font-size:60px;"">+</div>","null","","","","","","",""
"null","","image-keyboard-response","75","415157","0.0-4.0-0.12","","img/orange.png","null","trial","null","true","0.2,0.8","2:nogo_b","",""
"null","","html-keyboard-response","76","416177","0.0-4.0-1.12","","<img src=""img/orange-r.png"">","null","trial","null","","0.2,0.8","2:nogo_b","1",""
"null","","html-keyboard-response","77","417193","0.0-4.0-2.12","","<div style=""font-size:60px;"">+</div>","null","","","","","","",""
"null","","image-keyboard-response","78","418740","0.0-4.0-0.13","","img/blue.png","null","trial","32","false","0.8,0.2","1:go_a","",""
"null","","html-keyboard-response","79","419755","0.0-4.0-1.13","","<img src=""img/blue-n.png"">","null","trial","32","","0.8,0.2","1:go_a","0",""
"null","","html-keyboard-response","80","420768","0.0-4.0-2.13","","<div style=""font-size:60px;"">+</div>","null","","","","","","",""
"572.5849999871571","","image-keyboard-response","81","421343","0.0-4.0-0.14","","img/blue.png","32","trial","32","true","0.8,0.2","1:go_a","",""
"null","","html-keyboard-response","82","422353","0.0-4.0-1.14","","<img src=""img/blue-n.png"" border=""10"">","null","trial","32","","0.8,0.2","1:go_a","0",""
"null","","html-keyboard-response","83","423355","0.0-4.0-2.14","","<div style=""font-size:60px;"">+</div>","null","","","","","","",""
"794.2800000018906","","image-keyboard-response","84","424150","0.0-4.0-0.15","","img/orange.png","32","trial","null","false","0.2,0.8","2:nogo_b","",""
"null","","html-keyboard-response","85","425162","0.0-4.0-1.15","","<img src=""img/orange-n.png"" border=""10"">","null","trial","null","","0.2,0.8","2:nogo_b","0",""
"null","","html-keyboard-response","86","426174","0.0-4.0-2.15","","<div style=""font-size:60px;"">+</div>","null","","","","","","",""
"1021.2300000130199","","image-keyboard-response","87","427198","0.0-4.0-0.16","","img/blue.png","32","trial","32","true","0.8,0.2","1:go_a","",""
"null","","html-keyboard-response","88","428201","0.0-4.0-1.16","","<img src=""img/blue-r.png"" border=""10"">","null","trial","32","","0.8,0.2","1:go_a","1",""
"null","","html-keyboard-response","89","429217","0.0-4.0-2.16","","<div style=""font-size:60px;"">+</div>","null","","","","","","",""
"1090.7749999896623","","image-keyboard-response","90","430309","0.0-4.0-0.17","","img/orange.png","32","trial","null","false","0.2,0.8","2:nogo_b","",""
"null","","html-keyboard-response","91","431315","0.0-4.0-1.17","","<img src=""img/orange-r.png"" border=""10"">","null","trial","null","","0.2,0.8","2:nogo_b","1",""
"null","","html-keyboard-response","92","432335","0.0-4.0-2.17","","<div style=""font-size:60px;"">+</div>","null","","","","","","",""
"null","","image-keyboard-response","93","433840","0.0-4.0-0.18","","img/orange.png","null","trial","null","true","0.2,0.8","2:nogo_b","",""
"null","","html-keyboard-response","94","434864","0.0-4.0-1.18","","<img src=""img/orange-n.png"">","null","trial","null","","0.2,0.8","2:nogo_b","0",""
"null","","html-keyboard-response","95","435878","0.0-4.0-2.18","","<div style=""font-size:60px;"">+</div>","null","","","","","","",""
"null","","image-keyboard-response","96","437387","0.0-4.0-0.19","","img/blue.png","null","trial","32","false","0.8,0.2","1:go_a","",""
"null","","html-keyboard-response","97","438403","0.0-4.0-1.19","","<img src=""img/blue-n.png"">","null","trial","32","","0.8,0.2","1:go_a","0",""
"null","","html-keyboard-response","98","439407","0.0-4.0-2.19","","<div style=""font-size:60px;"">+</div>","null","","","","","","",""
"733.5850000090431","","image-keyboard-response","99","440144","0.0-4.0-0.20","","img/orange.png","32","trial","null","false","0.2,0.8","2:nogo_b","",""
"null","","html-keyboard-response","100","441162","0.0-4.0-1.20","","<img src=""img/orange-n.png"" border=""10"">","null","trial","null","","0.2,0.8","2:nogo_b","0",""
"null","","html-keyboard-response","101","442179","0.0-4.0-2.20","","<div style=""font-size:60px;"">+</div>","null","","","","","","",""
"723.6750000156462","","image-keyboard-response","102","442905","0.0-4.0-0.21","","img/blue.png","32","trial","32","true","0.8,0.2","1:go_a","",""
"null","","html-keyboard-response","103","443911","0.0-4.0-1.21","","<img src=""img/blue-n.png"" border=""10"">","null","trial","32","","0.8,0.2","1:go_a","0",""
"null","","html-keyboard-response","104","444925","0.0-4.0-2.21","","<div style=""font-size:60px;"">+</div>","null","","","","","","",""
"597.3949999897741","","image-keyboard-response","105","445523","0.0-4.0-0.22","","img/orange.png","32","trial","null","false","0.2,0.8","2:nogo_b","",""
"null","","html-keyboard-response","106","446534","0.0-4.0-1.22","","<img src=""img/orange-r.png"" border=""10"">","null","trial","null","","0.2,0.8","2:nogo_b","1",""
"null","","html-keyboard-response","107","447546","0.0-4.0-2.22","","<div style=""font-size:60px;"">+</div>","null","","","","","","",""
"null","","image-keyboard-response","108","449070","0.0-4.0-0.23","","img/blue.png","null","trial","32","false","0.8,0.2","1:go_a","",""
"null","","html-keyboard-response","109","450092","0.0-4.0-1.23","","<img src=""img/blue-r.png"">","null","trial","32","","0.8,0.2","1:go_a","1",""
"null","","html-keyboard-response","110","451095","0.0-4.0-2.23","","<div style=""font-size:60px;"">+</div>","null","","","","","","",""
"null","","image-keyboard-response","111","452611","0.0-4.0-0.24","","img/orange.png","null","trial","null","true","0.2,0.8","2:nogo_b","",""
"null","","html-keyboard-response","112","453615","0.0-4.0-1.24","","<img src=""img/orange-n.png"">","null","trial","null","","0.2,0.8","2:nogo_b","0",""
"null","","html-keyboard-response","113","454627","0.0-4.0-2.24","","<div style=""font-size:60px;"">+</div>","null","","","","","","",""
"813.6449999874458","","image-keyboard-response","114","455442","0.0-4.0-0.25","","img/blue.png","32","trial","32","true","0.8,0.2","1:go_a","",""
"null","","html-keyboard-response","115","456460","0.0-4.0-1.25","","<img src=""img/blue-r.png"" border=""10"">","null","trial","32","","0.8,0.2","1:go_a","1",""
"null","","html-keyboard-response","116","457476","0.0-4.0-2.25","","<div style=""font-size:60px;"">+</div>","null","","","","","","",""
"null","","image-keyboard-response","117","458990","0.0-4.0-0.26","","img/orange.png","null","trial","null","true","0.2,0.8","2:nogo_b","",""
"null","","html-keyboard-response","118","460003","0.0-4.0-1.26","","<img src=""img/orange-r.png"">","null","trial","null","","0.2,0.8","2:nogo_b","1",""
"null","","html-keyboard-response","119","461012","0.0-4.0-2.26","","<div style=""font-size:60px;"">+</div>","null","","","","","","",""
"null","","image-keyboard-response","120","462523","0.0-4.0-0.27","","img/blue.png","null","trial","32","false","0.8,0.2","1:go_a","",""
"null","","html-keyboard-response","121","463540","0.0-4.0-1.27","","<img src=""img/blue-n.png"">","null","trial","32","","0.8,0.2","1:go_a","0",""
"null","","html-keyboard-response","122","464557","0.0-4.0-2.27","","<div style=""font-size:60px;"">+</div>","null","","","","","","",""
"652.7599999972153","","image-keyboard-response","123","465211","0.0-4.0-0.28","","img/blue.png","32","trial","32","true","0.8,0.2","1:go_a","",""
"null","","html-keyboard-response","124","466231","0.0-4.0-1.28","","<img src=""img/blue-r.png"" border=""10"">","null","trial","32","","0.8,0.2","1:go_a","1",""
"null","","html-keyboard-response","125","467241","0.0-4.0-2.28","","<div style=""font-size:60px;"">+</div>","null","","","","","","",""
"null","","image-keyboard-response","126","468758","0.0-4.0-0.29","","img/orange.png","null","trial","null","true","0.2,0.8","2:nogo_b","",""
"null","","html-keyboard-response","127","469774","0.0-4.0-1.29","","<img src=""img/orange-r.png"">","null","trial","null","","0.2,0.8","2:nogo_b","1",""
"null","","html-keyboard-response","128","470787","0.0-4.0-2.29","","<div style=""font-size:60px;"">+</div>","null","","","","","","",""
"null","","image-keyboard-response","129","472301","0.0-4.0-0.30","","img/orange.png","null","trial","null","true","0.2,0.8","2:nogo_b","",""
"null","","html-keyboard-response","130","473351","0.0-4.0-1.30","","<img src=""img/orange-r.png"">","null","trial","null","","0.2,0.8","2:nogo_b","1",""
"null","","html-keyboard-response","131","474361","0.0-4.0-2.30","","<div style=""font-size:60px;"">+</div>","null","","","","","","",""
"null","","image-keyboard-response","132","475921","0.0-4.0-0.31","","img/blue.png","null","trial","32","false","0.8,0.2","1:go_a","",""
"null","","html-keyboard-response","133","476929","0.0-4.0-1.31","","<img src=""img/blue-r.png"">","null","trial","32","","0.8,0.2","1:go_a","1",""
"null","","html-keyboard-response","134","477940","0.0-4.0-2.31","","<div style=""font-size:60px;"">+</div>","null","","","","","","",""
"null","","image-keyboard-response","135","479455","0.0-4.0-0.32","","img/blue.png","null","trial","32","false","0.8,0.2","1:go_a","",""
"null","","html-keyboard-response","136","480484","0.0-4.0-1.32","","<img src=""img/blue-r.png"">","null","trial","32","","0.8,0.2","1:go_a","1",""
"null","","html-keyboard-response","137","481490","0.0-4.0-2.32","","<div style=""font-size:60px;"">+</div>","null","","","","","","",""
"649.4200000015553","","image-keyboard-response","138","482142","0.0-4.0-0.33","","img/orange.png","32","trial","null","false","0.2,0.8","2:nogo_b","",""
"null","","html-keyboard-response","139","483149","0.0-4.0-1.33","","<img src=""img/orange-r.png"" border=""10"">","null","trial","null","","0.2,0.8","2:nogo_b","1",""
"null","","html-keyboard-response","140","484154","0.0-4.0-2.33","","<div style=""font-size:60px;"">+</div>","null","","","","","","",""
"554.3300000135787","","image-keyboard-response","141","484710","0.0-4.0-0.34","","img/blue.png","32","trial","32","true","0.8,0.2","1:go_a","",""
"null","","html-keyboard-response","142","485729","0.0-4.0-1.34","","<img src=""img/blue-r.png"" border=""10"">","null","trial","32","","0.8,0.2","1:go_a","1",""
"null","","html-keyboard-response","143","486743","0.0-4.0-2.34","","<div style=""font-size:60px;"">+</div>","null","","","","","","",""
"null","","image-keyboard-response","144","488254","0.0-4.0-0.35","","img/orange.png","null","trial","null","true","0.2,0.8","2:nogo_b","",""
"null","","html-keyboard-response","145","489267","0.0-4.0-1.35","","<img src=""img/orange-r.png"">","null","trial","null","","0.2,0.8","2:nogo_b","1",""
"null","","html-keyboard-response","146","490276","0.0-4.0-2.35","","<div style=""font-size:60px;"">+</div>","null","","","","","","",""
"705.3250000171829","","image-keyboard-response","147","490983","0.0-4.0-0.36","","img/blue.png","32","trial","32","true","0.8,0.2","1:go_a","",""
"null","","html-keyboard-response","148","492000","0.0-4.0-1.36","","<img src=""img/blue-r.png"" border=""10"">","null","trial","32","","0.8,0.2","1:go_a","1",""
"null","","html-keyboard-response","149","493015","0.0-4.0-2.36","","<div style=""font-size:60px;"">+</div>","null","","","","","","",""
"623.4000000113156","","image-keyboard-response","150","493640","0.0-4.0-0.37","","img/orange.png","32","trial","null","false","0.2,0.8","2:nogo_b","",""
"null","","html-keyboard-response","151","494648","0.0-4.0-1.37","","<img src=""img/orange-r.png"" border=""10"">","null","trial","null","","0.2,0.8","2:nogo_b","1",""
"null","","html-keyboard-response","152","495665","0.0-4.0-2.37","","<div style=""font-size:60px;"">+</div>","null","","","","","","",""
"null","","image-keyboard-response","153","497180","0.0-4.0-0.38","","img/orange.png","null","trial","null","true","0.2,0.8","2:nogo_b","",""
"null","","html-keyboard-response","154","498196","0.0-4.0-1.38","","<img src=""img/orange-r.png"">","null","trial","null","","0.2,0.8","2:nogo_b","1",""
"null","","html-keyboard-response","155","499214","0.0-4.0-2.38","","<div style=""font-size:60px;"">+</div>","null","","","","","","",""
"624.4400000141468","","image-keyboard-response","156","499839","0.0-4.0-0.39","","img/blue.png","32","trial","32","true","0.8,0.2","1:go_a","",""
"null","","html-keyboard-response","157","500857","0.0-4.0-1.39","","<img src=""img/blue-r.png"" border=""10"">","null","trial","32","","0.8,0.2","1:go_a","1",""
"null","","html-keyboard-response","158","501890","0.0-4.0-2.39","","<div style=""font-size:60px;"">+</div>","null","","","","","","",""
"null","","image-keyboard-response","159","503409","0.0-4.0-0.40","","img/blue.png","null","trial","32","false","0.8,0.2","1:go_a","",""
"null","","html-keyboard-response","160","504420","0.0-4.0-1.40","","<img src=""img/blue-n.png"">","null","trial","32","","0.8,0.2","1:go_a","0",""
"null","","html-keyboard-response","161","505444","0.0-4.0-2.40","","<div style=""font-size:60px;"">+</div>","null","","","","","","",""
"582.2950000001583","","image-keyboard-response","162","506028","0.0-4.0-0.41","","img/orange.png","32","trial","null","false","0.2,0.8","2:nogo_b","",""
"null","","html-keyboard-response","163","507044","0.0-4.0-1.41","","<img src=""img/orange-n.png"" border=""10"">","null","trial","null","","0.2,0.8","2:nogo_b","0",""
"null","","html-keyboard-response","164","508049","0.0-4.0-2.41","","<div style=""font-size:60px;"">+</div>","null","","","","","","",""
"750.1599999959581","","image-keyboard-response","165","508800","0.0-4.0-0.42","","img/blue.png","32","trial","32","true","0.8,0.2","1:go_a","",""
"null","","html-keyboard-response","166","509822","0.0-4.0-1.42","","<img src=""img/blue-r.png"" border=""10"">","null","trial","32","","0.8,0.2","1:go_a","1",""
"null","","html-keyboard-response","167","510863","0.0-4.0-2.42","","<div style=""font-size:60px;"">+</div>","null","","","","","","",""
"799.3199999909848","","image-keyboard-response","168","511664","0.0-4.0-0.43","","img/orange.png","32","trial","null","false","0.2,0.8","2:nogo_b","",""
"null","","html-keyboard-response","169","512678","0.0-4.0-1.43","","<img src=""img/orange-n.png"" border=""10"">","null","trial","null","","0.2,0.8","2:nogo_b","0",""
"null","","html-keyboard-response","170","513694","0.0-4.0-2.43","","<div style=""font-size:60px;"">+</div>","null","","","","","","",""
"711.8900000059512","","image-keyboard-response","171","514408","0.0-4.0-0.44","","img/blue.png","32","trial","32","true","0.8,0.2","1:go_a","",""
"null","","html-keyboard-response","172","515428","0.0-4.0-1.44","","<img src=""img/blue-r.png"" border=""10"">","null","trial","32","","0.8,0.2","1:go_a","1",""
"null","","html-keyboard-response","173","516443","0.0-4.0-2.44","","<div style=""font-size:60px;"">+</div>","null","","","","","","",""
"582.7149999968242","","image-keyboard-response","174","517027","0.0-4.0-0.45","","img/orange.png","32","trial","null","false","0.2,0.8","2:nogo_b","",""
"null","","html-keyboard-response","175","518033","0.0-4.0-1.45","","<img src=""img/orange-n.png"" border=""10"">","null","trial","null","","0.2,0.8","2:nogo_b","0",""
"null","","html-keyboard-response","176","519039","0.0-4.0-2.45","","<div style=""font-size:60px;"">+</div>","null","","","","","","",""
"511.35499999509193","","image-keyboard-response","177","519552","0.0-4.0-0.46","","img/orange.png","32","trial","null","false","0.2,0.8","2:nogo_b","",""
"null","","html-keyboard-response","178","520565","0.0-4.0-1.46","","<img src=""img/orange-n.png"" border=""10"">","null","trial","null","","0.2,0.8","2:nogo_b","0",""
"null","","html-keyboard-response","179","521579","0.0-4.0-2.46","","<div style=""font-size:60px;"">+</div>","null","","","","","","",""
"null","","image-keyboard-response","180","523082","0.0-4.0-0.47","","img/blue.png","null","trial","32","false","0.8,0.2","1:go_a","",""
"null","","html-keyboard-response","181","524087","0.0-4.0-1.47","","<img src=""img/blue-n.png"">","null","trial","32","","0.8,0.2","1:go_a","0",""
"null","","html-keyboard-response","182","525104","0.0-4.0-2.47","","<div style=""font-size:60px;"">+</div>","null","","","","","","",""
"563.914999976987","","image-keyboard-response","183","525669","0.0-4.0-0.48","","img/blue.png","32","trial","32","true","0.8,0.2","1:go_a","",""
"null","","html-keyboard-response","184","526682","0.0-4.0-1.48","","<img src=""img/blue-r.png"" border=""10"">","null","trial","32","","0.8,0.2","1:go_a","1",""
"null","","html-keyboard-response","185","527695","0.0-4.0-2.48","","<div style=""font-size:60px;"">+</div>","null","","","","","","",""
"734.3300000065938","","image-keyboard-response","186","528431","0.0-4.0-0.49","","img/orange.png","32","trial","null","false","0.2,0.8","2:nogo_b","",""
"null","","html-keyboard-response","187","529434","0.0-4.0-1.49","","<img src=""img/orange-n.png"" border=""10"">","null","trial","null","","0.2,0.8","2:nogo_b","0",""
"null","","html-keyboard-response","188","530451","0.0-4.0-2.49","","<div style=""font-size:60px;"">+</div>","null","","","","","","",""
"646.3199999998324","","image-keyboard-response","189","531099","0.0-4.0-0.50","","img/orange.png","32","trial","null","false","0.2,0.8","2:nogo_b","",""
"null","","html-keyboard-response","190","532107","0.0-4.0-1.50","","<img src=""img/orange-n.png"" border=""10"">","null","trial","null","","0.2,0.8","2:nogo_b","0",""
"null","","html-keyboard-response","191","533109","0.0-4.0-2.50","","<div style=""font-size:60px;"">+</div>","null","","","","","","",""
"913.8700000185054","","image-keyboard-response","192","534024","0.0-4.0-0.51","","img/blue.png","32","trial","32","true","0.8,0.2","1:go_a","",""
"null","","html-keyboard-response","193","535032","0.0-4.0-1.51","","<img src=""img/blue-r.png"" border=""10"">","null","trial","32","","0.8,0.2","1:go_a","1",""
"null","","html-keyboard-response","194","536049","0.0-4.0-2.51","","<div style=""font-size:60px;"">+</div>","null","","","","","","",""
"null","","image-keyboard-response","195","537552","0.0-4.0-0.52","","img/blue.png","null","trial","32","false","0.8,0.2","1:go_a","",""
"null","","html-keyboard-response","196","538554","0.0-4.0-1.52","","<img src=""img/blue-r.png"">","null","trial","32","","0.8,0.2","1:go_a","1",""
"null","","html-keyboard-response","197","539577","0.0-4.0-2.52","","<div style=""font-size:60px;"">+</div>","null","","","","","","",""
"777.0850000088103","","image-keyboard-response","198","540356","0.0-4.0-0.53","","img/orange.png","32","trial","null","false","0.2,0.8","2:nogo_b","",""
"null","","html-keyboard-response","199","541361","0.0-4.0-1.53","","<img src=""img/orange-n.png"" border=""10"">","null","trial","null","","0.2,0.8","2:nogo_b","0",""
"null","","html-keyboard-response","200","542369","0.0-4.0-2.53","","<div style=""font-size:60px;"">+</div>","null","","","","","","",""
"null","","image-keyboard-response","201","543873","0.0-4.0-0.54","","img/orange.png","null","trial","null","true","0.2,0.8","2:nogo_b","",""
"null","","html-keyboard-response","202","544877","0.0-4.0-1.54","","<img src=""img/orange-n.png"">","null","trial","null","","0.2,0.8","2:nogo_b","0",""
"null","","html-keyboard-response","203","545887","0.0-4.0-2.54","","<div style=""font-size:60px;"">+</div>","null","","","","","","",""
"779.0399999939837","","image-keyboard-response","204","546669","0.0-4.0-0.55","","img/blue.png","32","trial","32","true","0.8,0.2","1:go_a","",""
"null","","html-keyboard-response","205","547686","0.0-4.0-1.55","","<img src=""img/blue-n.png"" border=""10"">","null","trial","32","","0.8,0.2","1:go_a","0",""
"null","","html-keyboard-response","206","548690","0.0-4.0-2.55","","<div style=""font-size:60px;"">+</div>","null","","","","","","",""
"466.3550000113901","","image-keyboard-response","207","549157","0.0-4.0-0.56","","img/blue.png","32","trial","32","true","0.8,0.2","1:go_a","",""
"null","","html-keyboard-response","208","550171","0.0-4.0-1.56","","<img src=""img/blue-r.png"" border=""10"">","null","trial","32","","0.8,0.2","1:go_a","1",""
"null","","html-keyboard-response","209","551188","0.0-4.0-2.56","","<div style=""font-size:60px;"">+</div>","null","","","","","","",""
"1154.1350000188686","","image-keyboard-response","210","552344","0.0-4.0-0.57","","img/orange.png","32","trial","null","false","0.2,0.8","2:nogo_b","",""
"null","","html-keyboard-response","211","553358","0.0-4.0-1.57","","<img src=""img/orange-n.png"" border=""10"">","null","trial","null","","0.2,0.8","2:nogo_b","0",""
"null","","html-keyboard-response","212","554367","0.0-4.0-2.57","","<div style=""font-size:60px;"">+</div>","null","","","","","","",""
"974.2399999813642","","image-keyboard-response","213","555343","0.0-4.0-0.58","","img/orange.png","32","trial","null","false","0.2,0.8","2:nogo_b","",""
"null","","html-keyboard-response","214","556383","0.0-4.0-1.58","","<img src=""img/orange-n.png"" border=""10"">","null","trial","null","","0.2,0.8","2:nogo_b","0",""
"null","","html-keyboard-response","215","557387","0.0-4.0-2.58","","<div style=""font-size:60px;"">+</div>","null","","","","","","",""
"978.4949999884702","","image-keyboard-response","216","558367","0.0-4.0-0.59","","img/blue.png","32","trial","32","true","0.8,0.2","1:go_a","",""
"null","","html-keyboard-response","217","559373","0.0-4.0-1.59","","<img src=""img/blue-r.png"" border=""10"">","null","trial","32","","0.8,0.2","1:go_a","1",""
"null","","html-keyboard-response","218","560380","0.0-4.0-2.59","","<div style=""font-size:60px;"">+</div>","null","","","","","","",""
"3342.3100000072736","","instructions","219","563723","0.0-5.0","[{""page_index"":0,""viewing_time"":3341.745000012452}]","","","","","","","","",""
"null","","image-keyboard-response","220","565242","0.0-6.0-0.0","","img/orange.png","null","trial","32","false","0.6,0.4","3:go_c","",""
"null","","html-keyboard-response","221","566257","0.0-6.0-1.0","","<img src=""img/orange-n.png"">","null","trial","32","","0.6,0.4","3:go_c","0",""
"null","","html-keyboard-response","222","567273","0.0-6.0-2.0","","<div style=""font-size:60px;"">+</div>","null","","","","","","",""
"879.3799999984913","","image-keyboard-response","223","568153","0.0-6.0-0.1","","img/red.png","32","trial","null","false","0.4,0.6","4:nogo_d","",""
"null","","html-keyboard-response","224","569158","0.0-6.0-1.1","","<img src=""img/red-n.png"" border=""10"">","null","trial","null","","0.4,0.6","4:nogo_d","0",""
"null","","html-keyboard-response","225","570172","0.0-6.0-2.1","","<div style=""font-size:60px;"">+</div>","null","","","","","","",""
"866.8199999956414","","image-keyboard-response","226","571041","0.0-6.0-0.2","","img/purple.png","32","trial","null","false","0.4,0.6","2:nogo_b","",""
"null","","html-keyboard-response","227","572046","0.0-6.0-1.2","","<img src=""img/purple-n.png"" border=""10"">","null","trial","null","","0.4,0.6","2:nogo_b","0",""
"null","","html-keyboard-response","228","573053","0.0-6.0-2.2","","<div style=""font-size:60px;"">+</div>","null","","","","","","",""
"827.7349999989383","","image-keyboard-response","229","573882","0.0-6.0-0.3","","img/pink.png","32","trial","32","true","0.6,0.4","1:go_a","",""
"null","","html-keyboard-response","230","574887","0.0-6.0-1.3","","<img src=""img/pink-r.png"" border=""10"">","null","trial","32","","0.6,0.4","1:go_a","1",""
"null","","html-keyboard-response","231","575890","0.0-6.0-2.3","","<div style=""font-size:60px;"">+</div>","null","","","","","","",""
"564.2900000093505","","image-keyboard-response","232","576456","0.0-6.0-0.4","","img/pink.png","32","trial","32","true","0.6,0.4","1:go_a","",""
"null","","html-keyboard-response","233","577460","0.0-6.0-1.4","","<img src=""img/pink-n.png"" border=""10"">","null","trial","32","","0.6,0.4","1:go_a","0",""
"null","","html-keyboard-response","234","578468","0.0-6.0-2.4","","<div style=""font-size:60px;"">+</div>","null","","","","","","",""
"847.4050000077114","","image-keyboard-response","235","579317","0.0-6.0-0.5","","img/red.png","32","trial","null","false","0.4,0.6","4:nogo_d","",""
"null","","html-keyboard-response","236","580329","0.0-6.0-1.5","","<img src=""img/red-r.png"" border=""10"">","null","trial","null","","0.4,0.6","4:nogo_d","1",""
"null","","html-keyboard-response","237","581343","0.0-6.0-2.5","","<div style=""font-size:60px;"">+</div>","null","","","","","","",""
"837.2100000269711","","image-keyboard-response","238","582182","0.0-6.0-0.6","","img/orange.png","32","trial","32","true","0.6,0.4","3:go_c","",""
"null","","html-keyboard-response","239","583197","0.0-6.0-1.6","","<img src=""img/orange-r.png"" border=""10"">","null","trial","32","","0.6,0.4","3:go_c","1",""
"null","","html-keyboard-response","240","584215","0.0-6.0-2.6","","<div style=""font-size:60px;"">+</div>","null","","","","","","",""
"965.3199999884237","","image-keyboard-response","241","585182","0.0-6.0-0.7","","img/purple.png","32","trial","null","false","0.4,0.6","2:nogo_b","",""
"null","","html-keyboard-response","242","586193","0.0-6.0-1.7","","<img src=""img/purple-n.png"" border=""10"">","null","trial","null","","0.4,0.6","2:nogo_b","0",""
"null","","html-keyboard-response","243","587209","0.0-6.0-2.7","","<div style=""font-size:60px;"">+</div>","null","","","","","","",""
"723.4600000083447","","image-keyboard-response","244","587935","0.0-6.0-0.8","","img/pink.png","32","trial","32","true","0.6,0.4","1:go_a","",""
"null","","html-keyboard-response","245","588957","0.0-6.0-1.8","","<img src=""img/pink-r.png"" border=""10"">","null","trial","32","","0.6,0.4","1:go_a","1",""
"null","","html-keyboard-response","246","589961","0.0-6.0-2.8","","<div style=""font-size:60px;"">+</div>","null","","","","","","",""
"785.4200000001583","","image-keyboard-response","247","590748","0.0-6.0-0.9","","img/red.png","32","trial","null","false","0.4,0.6","4:nogo_d","",""
"null","","html-keyboard-response","248","591758","0.0-6.0-1.9","","<img src=""img/red-n.png"" border=""10"">","null","trial","null","","0.4,0.6","4:nogo_d","0",""
"null","","html-keyboard-response","249","592774","0.0-6.0-2.9","","<div style=""font-size:60px;"">+</div>","null","","","","","","",""
"936.2050000054296","","image-keyboard-response","250","593713","0.0-6.0-0.10","","img/purple.png","32","trial","null","false","0.4,0.6","2:nogo_b","",""
"null","","html-keyboard-response","251","594739","0.0-6.0-1.10","","<img src=""img/purple-r.png"" border=""10"">","null","trial","null","","0.4,0.6","2:nogo_b","1",""
"null","","html-keyboard-response","252","595742","0.0-6.0-2.10","","<div style=""font-size:60px;"">+</div>","null","","","","","","",""
"1328.0200000153854","","image-keyboard-response","253","597071","0.0-6.0-0.11","","img/orange.png","32","trial","32","true","0.6,0.4","3:go_c","",""
"null","","html-keyboard-response","254","598092","0.0-6.0-1.11","","<img src=""img/orange-n.png"" border=""10"">","null","trial","32","","0.6,0.4","3:go_c","0",""
"null","","html-keyboard-response","255","599109","0.0-6.0-2.11","","<div style=""font-size:60px;"">+</div>","null","","","","","","",""
"779.4949999952223","","image-keyboard-response","256","599890","0.0-6.0-0.12","","img/red.png","32","trial","null","false","0.4,0.6","4:nogo_d","",""
"null","","html-keyboard-response","257","600905","0.0-6.0-1.12","","<img src=""img/red-r.png"" border=""10"">","null","trial","null","","0.4,0.6","4:nogo_d","1",""
"null","","html-keyboard-response","258","601920","0.0-6.0-2.12","","<div style=""font-size:60px;"">+</div>","null","","","","","","",""
"989.369999995688","","image-keyboard-response","259","602912","0.0-6.0-0.13","","img/purple.png","32","trial","null","false","0.4,0.6","2:nogo_b","",""
"null","","html-keyboard-response","260","603926","0.0-6.0-1.13","","<img src=""img/purple-r.png"" border=""10"">","null","trial","null","","0.4,0.6","2:nogo_b","1",""
"null","","html-keyboard-response","261","604931","0.0-6.0-2.13","","<div style=""font-size:60px;"">+</div>","null","","","","","","",""
"null","","image-keyboard-response","262","606456","0.0-6.0-0.14","","img/orange.png","null","trial","32","false","0.6,0.4","3:go_c","",""
"null","","html-keyboard-response","263","607465","0.0-6.0-1.14","","<img src=""img/orange-n.png"">","null","trial","32","","0.6,0.4","3:go_c","0",""
"null","","html-keyboard-response","264","608472","0.0-6.0-2.14","","<div style=""font-size:60px;"">+</div>","null","","","","","","",""
"743.9899999881163","","image-keyboard-response","265","609222","0.0-6.0-0.15","","img/pink.png","32","trial","32","true","0.6,0.4","1:go_a","",""
"null","","html-keyboard-response","266","610226","0.0-6.0-1.15","","<img src=""img/pink-r.png"" border=""10"">","null","trial","32","","0.6,0.4","1:go_a","1",""
"null","","html-keyboard-response","267","611236","0.0-6.0-2.15","","<div style=""font-size:60px;"">+</div>","null","","","","","","",""
"946.509999979753","","image-keyboard-response","268","612184","0.0-6.0-0.16","","img/purple.png","32","trial","null","false","0.4,0.6","2:nogo_b","",""
"null","","html-keyboard-response","269","613196","0.0-6.0-1.16","","<img src=""img/purple-r.png"" border=""10"">","null","trial","null","","0.4,0.6","2:nogo_b","1",""
"null","","html-keyboard-response","270","614225","0.0-6.0-2.16","","<div style=""font-size:60px;"">+</div>","null","","","","","","",""
"857.3949999990873","","image-keyboard-response","271","615085","0.0-6.0-0.17","","img/pink.png","32","trial","32","true","0.6,0.4","1:go_a","",""
"null","","html-keyboard-response","272","616096","0.0-6.0-1.17","","<img src=""img/pink-r.png"" border=""10"">","null","trial","32","","0.6,0.4","1:go_a","1",""
"null","","html-keyboard-response","273","617131","0.0-6.0-2.17","","<div style=""font-size:60px;"">+</div>","null","","","","","","",""
"779.8250000050757","","image-keyboard-response","274","617912","0.0-6.0-0.18","","img/red.png","32","trial","null","false","0.4,0.6","4:nogo_d","",""
"null","","html-keyboard-response","275","618941","0.0-6.0-1.18","","<img src=""img/red-n.png"" border=""10"">","null","trial","null","","0.4,0.6","4:nogo_d","0",""
"null","","html-keyboard-response","276","619949","0.0-6.0-2.18","","<div style=""font-size:60px;"">+</div>","null","","","","","","",""
"627.4449999909848","","image-keyboard-response","277","620578","0.0-6.0-0.19","","img/orange.png","32","trial","32","true","0.6,0.4","3:go_c","",""
"null","","html-keyboard-response","278","621588","0.0-6.0-1.19","","<img src=""img/orange-r.png"" border=""10"">","null","trial","32","","0.6,0.4","3:go_c","1",""
"null","","html-keyboard-response","279","622591","0.0-6.0-2.19","","<div style=""font-size:60px;"">+</div>","null","","","","","","",""
"715.1000000012573","","image-keyboard-response","280","623308","0.0-6.0-0.20","","img/pink.png","32","trial","32","true","0.6,0.4","1:go_a","",""
"null","","html-keyboard-response","281","624323","0.0-6.0-1.20","","<img src=""img/pink-n.png"" border=""10"">","null","trial","32","","0.6,0.4","1:go_a","0",""
"null","","html-keyboard-response","282","625338","0.0-6.0-2.20","","<div style=""font-size:60px;"">+</div>","null","","","","","","",""
"666.7449999949895","","image-keyboard-response","283","626006","0.0-6.0-0.21","","img/purple.png","32","trial","null","false","0.4,0.6","2:nogo_b","",""
"null","","html-keyboard-response","284","627012","0.0-6.0-1.21","","<img src=""img/purple-r.png"" border=""10"">","null","trial","null","","0.4,0.6","2:nogo_b","1",""
"null","","html-keyboard-response","285","628028","0.0-6.0-2.21","","<div style=""font-size:60px;"">+</div>","null","","","","","","",""
"958.6999999883119","","image-keyboard-response","286","628989","0.0-6.0-0.22","","img/red.png","32","trial","null","false","0.4,0.6","4:nogo_d","",""
"null","","html-keyboard-response","287","630002","0.0-6.0-1.22","","<img src=""img/red-n.png"" border=""10"">","null","trial","null","","0.4,0.6","4:nogo_d","0",""
"null","","html-keyboard-response","288","631017","0.0-6.0-2.22","","<div style=""font-size:60px;"">+</div>","null","","","","","","",""
"752.329999988433","","image-keyboard-response","289","631772","0.0-6.0-0.23","","img/orange.png","32","trial","32","true","0.6,0.4","3:go_c","",""
"null","","html-keyboard-response","290","632782","0.0-6.0-1.23","","<img src=""img/orange-n.png"" border=""10"">","null","trial","32","","0.6,0.4","3:go_c","0",""
"null","","html-keyboard-response","291","633801","0.0-6.0-2.23","","<div style=""font-size:60px;"">+</div>","null","","","","","","",""
"786.4949999784585","","image-keyboard-response","292","634589","0.0-6.0-0.24","","img/purple.png","32","trial","null","false","0.4,0.6","2:nogo_b","",""
"null","","html-keyboard-response","293","635602","0.0-6.0-1.24","","<img src=""img/purple-n.png"" border=""10"">","null","trial","null","","0.4,0.6","2:nogo_b","0",""
"null","","html-keyboard-response","294","636612","0.0-6.0-2.24","","<div style=""font-size:60px;"">+</div>","null","","","","","","",""
"null","","image-keyboard-response","295","638127","0.0-6.0-0.25","","img/pink.png","null","trial","32","false","0.6,0.4","1:go_a","",""
"null","","html-keyboard-response","296","639141","0.0-6.0-1.25","","<img src=""img/pink-n.png"">","null","trial","32","","0.6,0.4","1:go_a","0",""
"null","","html-keyboard-response","297","640161","0.0-6.0-2.25","","<div style=""font-size:60px;"">+</div>","null","","","","","","",""
"663.8650000095367","","image-keyboard-response","298","640827","0.0-6.0-0.26","","img/orange.png","32","trial","32","true","0.6,0.4","3:go_c","",""
"null","","html-keyboard-response","299","641834","0.0-6.0-1.26","","<img src=""img/orange-n.png"" border=""10"">","null","trial","32","","0.6,0.4","3:go_c","0",""
"null","","html-keyboard-response","300","642852","0.0-6.0-2.26","","<div style=""font-size:60px;"">+</div>","null","","","","","","",""
"612.9150000051595","","image-keyboard-response","301","643467","0.0-6.0-0.27","","img/red.png","32","trial","null","false","0.4,0.6","4:nogo_d","",""
"null","","html-keyboard-response","302","644476","0.0-6.0-1.27","","<img src=""img/red-n.png"" border=""10"">","null","trial","null","","0.4,0.6","4:nogo_d","0",""
"null","","html-keyboard-response","303","645488","0.0-6.0-2.27","","<div style=""font-size:60px;"">+</div>","null","","","","","","",""
"619.9650000198744","","image-keyboard-response","304","646110","0.0-6.0-0.28","","img/pink.png","32","trial","32","true","0.6,0.4","1:go_a","",""
"null","","html-keyboard-response","305","647124","0.0-6.0-1.28","","<img src=""img/pink-n.png"" border=""10"">","null","trial","32","","0.6,0.4","1:go_a","0",""
"null","","html-keyboard-response","306","648140","0.0-6.0-2.28","","<div style=""font-size:60px;"">+</div>","null","","","","","","",""
"937.1199999877717","","image-keyboard-response","307","649079","0.0-6.0-0.29","","img/red.png","32","trial","null","false","0.4,0.6","4:nogo_d","",""
"null","","html-keyboard-response","308","650095","0.0-6.0-1.29","","<img src=""img/red-n.png"" border=""10"">","null","trial","null","","0.4,0.6","4:nogo_d","0",""
"null","","html-keyboard-response","309","651108","0.0-6.0-2.29","","<div style=""font-size:60px;"">+</div>","null","","","","","","",""
"null","","image-keyboard-response","310","652621","0.0-6.0-0.30","","img/orange.png","null","trial","32","false","0.6,0.4","3:go_c","",""
"null","","html-keyboard-response","311","653623","0.0-6.0-1.30","","<img src=""img/orange-r.png"">","null","trial","32","","0.6,0.4","3:go_c","1",""
"null","","html-keyboard-response","312","654628","0.0-6.0-2.30","","<div style=""font-size:60px;"">+</div>","null","","","","","","",""
"696.4049999951385","","image-keyboard-response","313","655326","0.0-6.0-0.31","","img/purple.png","32","trial","null","false","0.4,0.6","2:nogo_b","",""
"null","","html-keyboard-response","314","656337","0.0-6.0-1.31","","<img src=""img/purple-r.png"" border=""10"">","null","trial","null","","0.4,0.6","2:nogo_b","1",""
"null","","html-keyboard-response","315","657352","0.0-6.0-2.31","","<div style=""font-size:60px;"">+</div>","null","","","","","","",""
"679.7500000102445","","image-keyboard-response","316","658033","0.0-6.0-0.32","","img/pink.png","32","trial","32","true","0.6,0.4","1:go_a","",""
"null","","html-keyboard-response","317","659039","0.0-6.0-1.32","","<img src=""img/pink-n.png"" border=""10"">","null","trial","32","","0.6,0.4","1:go_a","0",""
"null","","html-keyboard-response","318","660052","0.0-6.0-2.32","","<div style=""font-size:60px;"">+</div>","null","","","","","","",""
"null","","image-keyboard-response","319","661556","0.0-6.0-0.33","","img/orange.png","null","trial","32","false","0.6,0.4","3:go_c","",""
"null","","html-keyboard-response","320","662574","0.0-6.0-1.33","","<img src=""img/orange-r.png"">","null","trial","32","","0.6,0.4","3:go_c","1",""
"null","","html-keyboard-response","321","663576","0.0-6.0-2.33","","<div style=""font-size:60px;"">+</div>","null","","","","","","",""
"null","","image-keyboard-response","322","665084","0.0-6.0-0.34","","img/red.png","null","trial","null","true","0.4,0.6","4:nogo_d","",""
"null","","html-keyboard-response","323","666099","0.0-6.0-1.34","","<img src=""img/red-r.png"">","null","trial","null","","0.4,0.6","4:nogo_d","1",""
"null","","html-keyboard-response","324","667111","0.0-6.0-2.34","","<div style=""font-size:60px;"">+</div>","null","","","","","","",""
"801.2600000074599","","image-keyboard-response","325","667914","0.0-6.0-0.35","","img/purple.png","32","trial","null","false","0.4,0.6","2:nogo_b","",""
"null","","html-keyboard-response","326","668923","0.0-6.0-1.35","","<img src=""img/purple-r.png"" border=""10"">","null","trial","null","","0.4,0.6","2:nogo_b","1",""
"null","","html-keyboard-response","327","669936","0.0-6.0-2.35","","<div style=""font-size:60px;"">+</div>","null","","","","","","",""
"null","","image-keyboard-response","328","671443","0.0-6.0-0.36","","img/purple.png","null","trial","null","true","0.4,0.6","2:nogo_b","",""
"null","","html-keyboard-response","329","672465","0.0-6.0-1.36","","<img src=""img/purple-r.png"">","null","trial","null","","0.4,0.6","2:nogo_b","1",""
"null","","html-keyboard-response","330","673474","0.0-6.0-2.36","","<div style=""font-size:60px;"">+</div>","null","","","","","","",""
"null","","image-keyboard-response","331","674988","0.0-6.0-0.37","","img/red.png","null","trial","null","true","0.4,0.6","4:nogo_d","",""
"null","","html-keyboard-response","332","675992","0.0-6.0-1.37","","<img src=""img/red-r.png"">","null","trial","null","","0.4,0.6","4:nogo_d","1",""
"null","","html-keyboard-response","333","677010","0.0-6.0-2.37","","<div style=""font-size:60px;"">+</div>","null","","","","","","",""
"643.9550000068266","","image-keyboard-response","334","677655","0.0-6.0-0.38","","img/orange.png","32","trial","32","true","0.6,0.4","3:go_c","",""
"null","","html-keyboard-response","335","678662","0.0-6.0-1.38","","<img src=""img/orange-n.png"" border=""10"">","null","trial","32","","0.6,0.4","3:go_c","0",""
"null","","html-keyboard-response","336","679665","0.0-6.0-2.38","","<div style=""font-size:60px;"">+</div>","null","","","","","","",""
"660.8600000035949","","image-keyboard-response","337","680328","0.0-6.0-0.39","","img/pink.png","32","trial","32","true","0.6,0.4","1:go_a","",""
"null","","html-keyboard-response","338","681336","0.0-6.0-1.39","","<img src=""img/pink-n.png"" border=""10"">","null","trial","32","","0.6,0.4","1:go_a","0",""
"null","","html-keyboard-response","339","682346","0.0-6.0-2.39","","<div style=""font-size:60px;"">+</div>","null","","","","","","",""
"720.2799999795388","","image-keyboard-response","340","683068","0.0-6.0-0.40","","img/red.png","32","trial","null","false","0.4,0.6","4:nogo_d","",""
"null","","html-keyboard-response","341","684084","0.0-6.0-1.40","","<img src=""img/red-n.png"" border=""10"">","null","trial","null","","0.4,0.6","4:nogo_d","0",""
"null","","html-keyboard-response","342","685108","0.0-6.0-2.40","","<div style=""font-size:60px;"">+</div>","null","","","","","","",""
"null","","image-keyboard-response","343","686620","0.0-6.0-0.41","","img/orange.png","null","trial","32","false","0.6,0.4","3:go_c","",""
"null","","html-keyboard-response","344","687700","0.0-6.0-1.41","","<img src=""img/orange-n.png"">","null","trial","32","","0.6,0.4","3:go_c","0",""
"null","","html-keyboard-response","345","688713","0.0-6.0-2.41","","<div style=""font-size:60px;"">+</div>","null","","","","","","",""
"636.3649999839254","","image-keyboard-response","346","689351","0.0-6.0-0.42","","img/purple.png","32","trial","null","false","0.4,0.6","2:nogo_b","",""
"null","","html-keyboard-response","347","690357","0.0-6.0-1.42","","<img src=""img/purple-r.png"" border=""10"">","null","trial","null","","0.4,0.6","2:nogo_b","1",""
"null","","html-keyboard-response","348","691379","0.0-6.0-2.42","","<div style=""font-size:60px;"">+</div>","null","","","","","","",""
"595.9949999814853","","image-keyboard-response","349","691977","0.0-6.0-0.43","","img/pink.png","32","trial","32","true","0.6,0.4","1:go_a","",""
"null","","html-keyboard-response","350","692987","0.0-6.0-1.43","","<img src=""img/pink-n.png"" border=""10"">","null","trial","32","","0.6,0.4","1:go_a","0",""
"null","","html-keyboard-response","351","693998","0.0-6.0-2.43","","<div style=""font-size:60px;"">+</div>","null","","","","","","",""
"613.6149999802001","","image-keyboard-response","352","694613","0.0-6.0-0.44","","img/purple.png","32","trial","null","false","0.4,0.6","2:nogo_b","",""
"null","","html-keyboard-response","353","695652","0.0-6.0-1.44","","<img src=""img/purple-n.png"" border=""10"">","null","trial","null","","0.4,0.6","2:nogo_b","0",""
"null","","html-keyboard-response","354","696665","0.0-6.0-2.44","","<div style=""font-size:60px;"">+</div>","null","","","","","","",""
"753.5250000073574","","image-keyboard-response","355","697420","0.0-6.0-0.45","","img/red.png","32","trial","null","false","0.4,0.6","4:nogo_d","",""
"null","","html-keyboard-response","356","698437","0.0-6.0-1.45","","<img src=""img/red-r.png"" border=""10"">","null","trial","null","","0.4,0.6","4:nogo_d","1",""
"null","","html-keyboard-response","357","699490","0.0-6.0-2.45","","<div style=""font-size:60px;"">+</div>","null","","","","","","",""
"907.0449999999255","","image-keyboard-response","358","700398","0.0-6.0-0.46","","img/pink.png","32","trial","32","true","0.6,0.4","1:go_a","",""
"null","","html-keyboard-response","359","701428","0.0-6.0-1.46","","<img src=""img/pink-r.png"" border=""10"">","null","trial","32","","0.6,0.4","1:go_a","1",""
"null","","html-keyboard-response","360","702454","0.0-6.0-2.46","","<div style=""font-size:60px;"">+</div>","null","","","","","","",""
"null","","image-keyboard-response","361","703964","0.0-6.0-0.47","","img/orange.png","null","trial","32","false","0.6,0.4","3:go_c","",""
"null","","html-keyboard-response","362","704978","0.0-6.0-1.47","","<img src=""img/orange-r.png"">","null","trial","32","","0.6,0.4","3:go_c","1",""
"null","","html-keyboard-response","363","705982","0.0-6.0-2.47","","<div style=""font-size:60px;"">+</div>","null","","","","","","",""
"null","","image-keyboard-response","364","707495","0.0-6.0-0.48","","img/orange.png","null","trial","32","false","0.6,0.4","3:go_c","",""
"null","","html-keyboard-response","365","708510","0.0-6.0-1.48","","<img src=""img/orange-n.png"">","null","trial","32","","0.6,0.4","3:go_c","0",""
"null","","html-keyboard-response","366","709527","0.0-6.0-2.48","","<div style=""font-size:60px;"">+</div>","null","","","","","","",""
"709.7000000067055","","image-keyboard-response","367","710239","0.0-6.0-0.49","","img/red.png","32","trial","null","false","0.4,0.6","4:nogo_d","",""
"null","","html-keyboard-response","368","711257","0.0-6.0-1.49","","<img src=""img/red-n.png"" border=""10"">","null","trial","null","","0.4,0.6","4:nogo_d","0",""
"null","","html-keyboard-response","369","712265","0.0-6.0-2.49","","<div style=""font-size:60px;"">+</div>","null","","","","","","",""
"1433.4949999756645","","image-keyboard-response","370","713701","0.0-6.0-0.50","","img/pink.png","32","trial","32","true","0.6,0.4","1:go_a","",""
"null","","html-keyboard-response","371","714718","0.0-6.0-1.50","","<img src=""img/pink-r.png"" border=""10"">","null","trial","32","","0.6,0.4","1:go_a","1",""
"null","","html-keyboard-response","372","715739","0.0-6.0-2.50","","<div style=""font-size:60px;"">+</div>","null","","","","","","",""
"668.424999981653","","image-keyboard-response","373","716410","0.0-6.0-0.51","","img/purple.png","32","trial","null","false","0.4,0.6","2:nogo_b","",""
"null","","html-keyboard-response","374","717428","0.0-6.0-1.51","","<img src=""img/purple-n.png"" border=""10"">","null","trial","null","","0.4,0.6","2:nogo_b","0",""
"null","","html-keyboard-response","375","718432","0.0-6.0-2.51","","<div style=""font-size:60px;"">+</div>","null","","","","","","",""
"null","","image-keyboard-response","376","719936","0.0-6.0-0.52","","img/orange.png","null","trial","32","false","0.6,0.4","3:go_c","",""
"null","","html-keyboard-response","377","720953","0.0-6.0-1.52","","<img src=""img/orange-n.png"">","null","trial","32","","0.6,0.4","3:go_c","0",""
"null","","html-keyboard-response","378","721957","0.0-6.0-2.52","","<div style=""font-size:60px;"">+</div>","null","","","","","","",""
"683.5049999936018","","image-keyboard-response","379","722643","0.0-6.0-0.53","","img/red.png","32","trial","null","false","0.4,0.6","4:nogo_d","",""
"null","","html-keyboard-response","380","723652","0.0-6.0-1.53","","<img src=""img/red-r.png"" border=""10"">","null","trial","null","","0.4,0.6","4:nogo_d","1",""
"null","","html-keyboard-response","381","724669","0.0-6.0-2.53","","<div style=""font-size:60px;"">+</div>","null","","","","","","",""
"827.6849999965634","","image-keyboard-response","382","725500","0.0-6.0-0.54","","img/pink.png","32","trial","32","true","0.6,0.4","1:go_a","",""
"null","","html-keyboard-response","383","726510","0.0-6.0-1.54","","<img src=""img/pink-r.png"" border=""10"">","null","trial","32","","0.6,0.4","1:go_a","1",""
"null","","html-keyboard-response","384","727524","0.0-6.0-2.54","","<div style=""font-size:60px;"">+</div>","null","","","","","","",""
"null","","image-keyboard-response","385","729026","0.0-6.0-0.55","","img/purple.png","null","trial","null","true","0.4,0.6","2:nogo_b","",""
"null","","html-keyboard-response","386","730039","0.0-6.0-1.55","","<img src=""img/purple-n.png"">","null","trial","null","","0.4,0.6","2:nogo_b","0",""
"null","","html-keyboard-response","387","731054","0.0-6.0-2.55","","<div style=""font-size:60px;"">+</div>","null","","","","","","",""
"572.34499999322","","image-keyboard-response","388","731628","0.0-6.0-0.56","","img/purple.png","32","trial","null","false","0.4,0.6","2:nogo_b","",""
"null","","html-keyboard-response","389","732635","0.0-6.0-1.56","","<img src=""img/purple-n.png"" border=""10"">","null","trial","null","","0.4,0.6","2:nogo_b","0",""
"null","","html-keyboard-response","390","733646","0.0-6.0-2.56","","<div style=""font-size:60px;"">+</div>","null","","","","","","",""
"731.3300000096206","","image-keyboard-response","391","734379","0.0-6.0-0.57","","img/pink.png","32","trial","32","true","0.6,0.4","1:go_a","",""
"null","","html-keyboard-response","392","735387","0.0-6.0-1.57","","<img src=""img/pink-r.png"" border=""10"">","null","trial","32","","0.6,0.4","1:go_a","1",""
"null","","html-keyboard-response","393","736405","0.0-6.0-2.57","","<div style=""font-size:60px;"">+</div>","null","","","","","","",""
"null","","image-keyboard-response","394","737921","0.0-6.0-0.58","","img/red.png","null","trial","null","true","0.4,0.6","4:nogo_d","",""
"null","","html-keyboard-response","395","738938","0.0-6.0-1.58","","<img src=""img/red-n.png"">","null","trial","null","","0.4,0.6","4:nogo_d","0",""
"null","","html-keyboard-response","396","739945","0.0-6.0-2.58","","<div style=""font-size:60px;"">+</div>","null","","","","","","",""
"608.1649999832734","","image-keyboard-response","397","740555","0.0-6.0-0.59","","img/orange.png","32","trial","32","true","0.6,0.4","3:go_c","",""
"null","","html-keyboard-response","398","741567","0.0-6.0-1.59","","<img src=""img/orange-r.png"" border=""10"">","null","trial","32","","0.6,0.4","3:go_c","1",""
"null","","html-keyboard-response","399","742585","0.0-6.0-2.59","","<div style=""font-size:60px;"">+</div>","null","","","","","","",""
"622.994999983348","","image-keyboard-response","400","743211","0.0-6.0-0.60","","img/purple.png","32","trial","null","false","0.4,0.6","2:nogo_b","",""
"null","","html-keyboard-response","401","744219","0.0-6.0-1.60","","<img src=""img/purple-n.png"" border=""10"">","null","trial","null","","0.4,0.6","2:nogo_b","0",""
"null","","html-keyboard-response","402","745229","0.0-6.0-2.60","","<div style=""font-size:60px;"">+</div>","null","","","","","","",""
"743.7400000053458","","image-keyboard-response","403","745973","0.0-6.0-0.61","","img/red.png","32","trial","null","false","0.4,0.6","4:nogo_d","",""
"null","","html-keyboard-response","404","746979","0.0-6.0-1.61","","<img src=""img/red-n.png"" border=""10"">","null","trial","null","","0.4,0.6","4:nogo_d","0",""
"null","","html-keyboard-response","405","747983","0.0-6.0-2.61","","<div style=""font-size:60px;"">+</div>","null","","","","","","",""
"715.9299999766517","","image-keyboard-response","406","748700","0.0-6.0-0.62","","img/pink.png","32","trial","32","true","0.6,0.4","1:go_a","",""
"null","","html-keyboard-response","407","749708","0.0-6.0-1.62","","<img src=""img/pink-n.png"" border=""10"">","null","trial","32","","0.6,0.4","1:go_a","0",""
"null","","html-keyboard-response","408","750714","0.0-6.0-2.62","","<div style=""font-size:60px;"">+</div>","null","","","","","","",""
"null","","image-keyboard-response","409","752228","0.0-6.0-0.63","","img/orange.png","null","trial","32","false","0.6,0.4","3:go_c","",""
"null","","html-keyboard-response","410","753244","0.0-6.0-1.63","","<img src=""img/orange-r.png"">","null","trial","32","","0.6,0.4","3:go_c","1",""
"null","","html-keyboard-response","411","754263","0.0-6.0-2.63","","<div style=""font-size:60px;"">+</div>","null","","","","","","",""
"614.9949999817181","","image-keyboard-response","412","754881","0.0-6.0-0.64","","img/red.png","32","trial","null","false","0.4,0.6","4:nogo_d","",""
"null","","html-keyboard-response","413","755890","0.0-6.0-1.64","","<img src=""img/red-n.png"" border=""10"">","null","trial","null","","0.4,0.6","4:nogo_d","0",""
"null","","html-keyboard-response","414","756905","0.0-6.0-2.64","","<div style=""font-size:60px;"">+</div>","null","","","","","","",""
"404.2800000170246","","image-keyboard-response","415","757311","0.0-6.0-0.65","","img/pink.png","32","trial","32","true","0.6,0.4","1:go_a","",""
"null","","html-keyboard-response","416","758321","0.0-6.0-1.65","","<img src=""img/pink-r.png"" border=""10"">","null","trial","32","","0.6,0.4","1:go_a","1",""
"null","","html-keyboard-response","417","759325","0.0-6.0-2.65","","<div style=""font-size:60px;"">+</div>","null","","","","","","",""
"1036.9700000155717","","image-keyboard-response","418","760363","0.0-6.0-0.66","","img/purple.png","32","trial","null","false","0.4,0.6","2:nogo_b","",""
"null","","html-keyboard-response","419","761369","0.0-6.0-1.66","","<img src=""img/purple-n.png"" border=""10"">","null","trial","null","","0.4,0.6","2:nogo_b","0",""
"null","","html-keyboard-response","420","762384","0.0-6.0-2.66","","<div style=""font-size:60px;"">+</div>","null","","","","","","",""
"947.5850000162609","","image-keyboard-response","421","763333","0.0-6.0-0.67","","img/orange.png","32","trial","32","true","0.6,0.4","3:go_c","",""
"null","","html-keyboard-response","422","764344","0.0-6.0-1.67","","<img src=""img/orange-r.png"" border=""10"">","null","trial","32","","0.6,0.4","3:go_c","1",""
"null","","html-keyboard-response","423","765354","0.0-6.0-2.67","","<div style=""font-size:60px;"">+</div>","null","","","","","","",""
"null","","image-keyboard-response","424","766860","0.0-6.0-0.68","","img/purple.png","null","trial","null","true","0.4,0.6","2:nogo_b","",""
"null","","html-keyboard-response","425","767876","0.0-6.0-1.68","","<img src=""img/purple-r.png"">","null","trial","null","","0.4,0.6","2:nogo_b","1",""
"null","","html-keyboard-response","426","768888","0.0-6.0-2.68","","<div style=""font-size:60px;"">+</div>","null","","","","","","",""
"869.1849999886472","","image-keyboard-response","427","769760","0.0-6.0-0.69","","img/orange.png","32","trial","32","true","0.6,0.4","3:go_c","",""
"null","","html-keyboard-response","428","770765","0.0-6.0-1.69","","<img src=""img/orange-r.png"" border=""10"">","null","trial","32","","0.6,0.4","3:go_c","1",""
"null","","html-keyboard-response","429","771778","0.0-6.0-2.69","","<div style=""font-size:60px;"">+</div>","null","","","","","","",""
"739.1249999927823","","image-keyboard-response","430","772518","0.0-6.0-0.70","","img/red.png","32","trial","null","false","0.4,0.6","4:nogo_d","",""
"null","","html-keyboard-response","431","773535","0.0-6.0-1.70","","<img src=""img/red-n.png"" border=""10"">","null","trial","null","","0.4,0.6","4:nogo_d","0",""
"null","","html-keyboard-response","432","774541","0.0-6.0-2.70","","<div style=""font-size:60px;"">+</div>","null","","","","","","",""
"389.2899999918882","","image-keyboard-response","433","774932","0.0-6.0-0.71","","img/pink.png","32","trial","32","true","0.6,0.4","1:go_a","",""
"null","","html-keyboard-response","434","775941","0.0-6.0-1.71","","<img src=""img/pink-r.png"" border=""10"">","null","trial","32","","0.6,0.4","1:go_a","1",""
"null","","html-keyboard-response","435","776958","0.0-6.0-2.71","","<div style=""font-size:60px;"">+</div>","null","","","","","","",""
"null","","image-keyboard-response","436","778485","0.0-6.0-0.72","","img/orange.png","null","trial","32","false","0.6,0.4","3:go_c","",""
"null","","html-keyboard-response","437","779508","0.0-6.0-1.72","","<img src=""img/orange-r.png"">","null","trial","32","","0.6,0.4","3:go_c","1",""
"null","","html-keyboard-response","438","780522","0.0-6.0-2.72","","<div style=""font-size:60px;"">+</div>","null","","","","","","",""
"751.5200000198092","","image-keyboard-response","439","781275","0.0-6.0-0.73","","img/red.png","32","trial","null","false","0.4,0.6","4:nogo_d","",""
"null","","html-keyboard-response","440","782283","0.0-6.0-1.73","","<img src=""img/red-n.png"" border=""10"">","null","trial","null","","0.4,0.6","4:nogo_d","0",""
"null","","html-keyboard-response","441","783290","0.0-6.0-2.73","","<div style=""font-size:60px;"">+</div>","null","","","","","","",""
"599.274999985937","","image-keyboard-response","442","783891","0.0-6.0-0.74","","img/purple.png","32","trial","null","false","0.4,0.6","2:nogo_b","",""
"null","","html-keyboard-response","443","784903","0.0-6.0-1.74","","<img src=""img/purple-r.png"" border=""10"">","null","trial","null","","0.4,0.6","2:nogo_b","1",""
"null","","html-keyboard-response","444","785919","0.0-6.0-2.74","","<div style=""font-size:60px;"">+</div>","null","","","","","","",""
"906.3700000115205","","image-keyboard-response","445","786827","0.0-6.0-0.75","","img/pink.png","32","trial","32","true","0.6,0.4","1:go_a","",""
"null","","html-keyboard-response","446","787853","0.0-6.0-1.75","","<img src=""img/pink-n.png"" border=""10"">","null","trial","32","","0.6,0.4","1:go_a","0",""
"null","","html-keyboard-response","447","788857","0.0-6.0-2.75","","<div style=""font-size:60px;"">+</div>","null","","","","","","",""
"null","","image-keyboard-response","448","790368","0.0-6.0-0.76","","img/orange.png","null","trial","32","false","0.6,0.4","3:go_c","",""
"null","","html-keyboard-response","449","791383","0.0-6.0-1.76","","<img src=""img/orange-n.png"">","null","trial","32","","0.6,0.4","3:go_c","0",""
"null","","html-keyboard-response","450","792399","0.0-6.0-2.76","","<div style=""font-size:60px;"">+</div>","null","","","","","","",""
"567.1399999991991","","image-keyboard-response","451","792969","0.0-6.0-0.77","","img/purple.png","32","trial","null","false","0.4,0.6","2:nogo_b","",""
"null","","html-keyboard-response","452","793974","0.0-6.0-1.77","","<img src=""img/purple-r.png"" border=""10"">","null","trial","null","","0.4,0.6","2:nogo_b","1",""
"null","","html-keyboard-response","453","794983","0.0-6.0-2.77","","<div style=""font-size:60px;"">+</div>","null","","","","","","",""
"572.9100000171456","","image-keyboard-response","454","795559","0.0-6.0-0.78","","img/red.png","32","trial","null","false","0.4,0.6","4:nogo_d","",""
"null","","html-keyboard-response","455","796572","0.0-6.0-1.78","","<img src=""img/red-n.png"" border=""10"">","null","trial","null","","0.4,0.6","4:nogo_d","0",""
"null","","html-keyboard-response","456","797585","0.0-6.0-2.78","","<div style=""font-size:60px;"">+</div>","null","","","","","","",""
"794.690000009723","","image-keyboard-response","457","798381","0.0-6.0-0.79","","img/pink.png","32","trial","32","true","0.6,0.4","1:go_a","",""
"null","","html-keyboard-response","458","799396","0.0-6.0-1.79","","<img src=""img/pink-r.png"" border=""10"">","null","trial","32","","0.6,0.4","1:go_a","1",""
"null","","html-keyboard-response","459","800409","0.0-6.0-2.79","","<div style=""font-size:60px;"">+</div>","null","","","","","","",""
"727.2799999918789","","image-keyboard-response","460","801137","0.0-6.0-0.80","","img/red.png","32","trial","null","false","0.4,0.6","4:nogo_d","",""
"null","","html-keyboard-response","461","802156","0.0-6.0-1.80","","<img src=""img/red-n.png"" border=""10"">","null","trial","null","","0.4,0.6","4:nogo_d","0",""
"null","","html-keyboard-response","462","803163","0.0-6.0-2.80","","<div style=""font-size:60px;"">+</div>","null","","","","","","",""
"null","","image-keyboard-response","463","804670","0.0-6.0-0.81","","img/pink.png","null","trial","32","false","0.6,0.4","1:go_a","",""
"null","","html-keyboard-response","464","805682","0.0-6.0-1.81","","<img src=""img/pink-n.png"">","null","trial","32","","0.6,0.4","1:go_a","0",""
"null","","html-keyboard-response","465","806694","0.0-6.0-2.81","","<div style=""font-size:60px;"">+</div>","null","","","","","","",""
"663.2400000235066","","image-keyboard-response","466","807359","0.0-6.0-0.82","","img/orange.png","32","trial","32","true","0.6,0.4","3:go_c","",""
"null","","html-keyboard-response","467","808377","0.0-6.0-1.82","","<img src=""img/orange-r.png"" border=""10"">","null","trial","32","","0.6,0.4","3:go_c","1",""
"null","","html-keyboard-response","468","809391","0.0-6.0-2.82","","<div style=""font-size:60px;"">+</div>","null","","","","","","",""
"627.8549999988172","","image-keyboard-response","469","810020","0.0-6.0-0.83","","img/purple.png","32","trial","null","false","0.4,0.6","2:nogo_b","",""
"null","","html-keyboard-response","470","811026","0.0-6.0-1.83","","<img src=""img/purple-n.png"" border=""10"">","null","trial","null","","0.4,0.6","2:nogo_b","0",""
"null","","html-keyboard-response","471","812036","0.0-6.0-2.83","","<div style=""font-size:60px;"">+</div>","null","","","","","","",""
"803.3500000019558","","image-keyboard-response","472","812841","0.0-6.0-0.84","","img/pink.png","32","trial","32","true","0.6,0.4","1:go_a","",""
"null","","html-keyboard-response","473","813861","0.0-6.0-1.84","","<img src=""img/pink-r.png"" border=""10"">","null","trial","32","","0.6,0.4","1:go_a","1",""
"null","","html-keyboard-response","474","814864","0.0-6.0-2.84","","<div style=""font-size:60px;"">+</div>","null","","","","","","",""
"null","","image-keyboard-response","475","816382","0.0-6.0-0.85","","img/red.png","null","trial","null","true","0.4,0.6","4:nogo_d","",""
"null","","html-keyboard-response","476","817390","0.0-6.0-1.85","","<img src=""img/red-r.png"">","null","trial","null","","0.4,0.6","4:nogo_d","1",""
"null","","html-keyboard-response","477","818409","0.0-6.0-2.85","","<div style=""font-size:60px;"">+</div>","null","","","","","","",""
"700.8900000073481","","image-keyboard-response","478","819111","0.0-6.0-0.86","","img/purple.png","32","trial","null","false","0.4,0.6","2:nogo_b","",""
"null","","html-keyboard-response","479","820124","0.0-6.0-1.86","","<img src=""img/purple-r.png"" border=""10"">","null","trial","null","","0.4,0.6","2:nogo_b","1",""
"null","","html-keyboard-response","480","821127","0.0-6.0-2.86","","<div style=""font-size:60px;"">+</div>","null","","","","","","",""
"1029.050000011921","","image-keyboard-response","481","822158","0.0-6.0-0.87","","img/orange.png","32","trial","32","true","0.6,0.4","3:go_c","",""
"null","","html-keyboard-response","482","823166","0.0-6.0-1.87","","<img src=""img/orange-n.png"" border=""10"">","null","trial","32","","0.6,0.4","3:go_c","0",""
"null","","html-keyboard-response","483","824178","0.0-6.0-2.87","","<div style=""font-size:60px;"">+</div>","null","","","","","","",""
"1022.0850000041537","","image-keyboard-response","484","825203","0.0-6.0-0.88","","img/purple.png","32","trial","null","false","0.4,0.6","2:nogo_b","",""
"null","","html-keyboard-response","485","826211","0.0-6.0-1.88","","<img src=""img/purple-n.png"" border=""10"">","null","trial","null","","0.4,0.6","2:nogo_b","0",""
"null","","html-keyboard-response","486","827220","0.0-6.0-2.88","","<div style=""font-size:60px;"">+</div>","null","","","","","","",""
"666.1850000091363","","image-keyboard-response","487","827889","0.0-6.0-0.89","","img/red.png","32","trial","null","false","0.4,0.6","4:nogo_d","",""
"null","","html-keyboard-response","488","828896","0.0-6.0-1.89","","<img src=""img/red-r.png"" border=""10"">","null","trial","null","","0.4,0.6","4:nogo_d","1",""
"null","","html-keyboard-response","489","829900","0.0-6.0-2.89","","<div style=""font-size:60px;"">+</div>","null","","","","","","",""
"null","","image-keyboard-response","490","831406","0.0-6.0-0.90","","img/pink.png","null","trial","32","false","0.6,0.4","1:go_a","",""
"null","","html-keyboard-response","491","832421","0.0-6.0-1.90","","<img src=""img/pink-n.png"">","null","trial","32","","0.6,0.4","1:go_a","0",""
"null","","html-keyboard-response","492","833442","0.0-6.0-2.90","","<div style=""font-size:60px;"">+</div>","null","","","","","","",""
"787.8750000090804","","image-keyboard-response","493","834232","0.0-6.0-0.91","","img/orange.png","32","trial","32","true","0.6,0.4","3:go_c","",""
"null","","html-keyboard-response","494","835249","0.0-6.0-1.91","","<img src=""img/orange-n.png"" border=""10"">","null","trial","32","","0.6,0.4","3:go_c","0",""
"null","","html-keyboard-response","495","836264","0.0-6.0-2.91","","<div style=""font-size:60px;"">+</div>","null","","","","","","",""
"707.3649999802001","","image-keyboard-response","496","836973","0.0-6.0-0.92","","img/red.png","32","trial","null","false","0.4,0.6","4:nogo_d","",""
"null","","html-keyboard-response","497","837987","0.0-6.0-1.92","","<img src=""img/red-n.png"" border=""10"">","null","trial","null","","0.4,0.6","4:nogo_d","0",""
"null","","html-keyboard-response","498","838994","0.0-6.0-2.92","","<div style=""font-size:60px;"">+</div>","null","","","","","","",""
"844.2100000102073","","image-keyboard-response","499","839840","0.0-6.0-0.93","","img/orange.png","32","trial","32","true","0.6,0.4","3:go_c","",""
"null","","html-keyboard-response","500","840853","0.0-6.0-1.93","","<img src=""img/orange-r.png"" border=""10"">","null","trial","32","","0.6,0.4","3:go_c","1",""
"null","","html-keyboard-response","501","841871","0.0-6.0-2.93","","<div style=""font-size:60px;"">+</div>","null","","","","","","",""
"913.7700000137556","","image-keyboard-response","502","842787","0.0-6.0-0.94","","img/pink.png","32","trial","32","true","0.6,0.4","1:go_a","",""
"null","","html-keyboard-response","503","843817","0.0-6.0-1.94","","<img src=""img/pink-n.png"" border=""10"">","null","trial","32","","0.6,0.4","1:go_a","0",""
"null","","html-keyboard-response","504","844833","0.0-6.0-2.94","","<div style=""font-size:60px;"">+</div>","null","","","","","","",""
"885.8649999892805","","image-keyboard-response","505","845720","0.0-6.0-0.95","","img/purple.png","32","trial","null","false","0.4,0.6","2:nogo_b","",""
"null","","html-keyboard-response","506","846730","0.0-6.0-1.95","","<img src=""img/purple-n.png"" border=""10"">","null","trial","null","","0.4,0.6","2:nogo_b","0",""
"null","","html-keyboard-response","507","847741","0.0-6.0-2.95","","<div style=""font-size:60px;"">+</div>","null","","","","","","",""
"null","","image-keyboard-response","508","849243","0.0-6.0-0.96","","img/pink.png","null","trial","32","false","0.6,0.4","1:go_a","",""
"null","","html-keyboard-response","509","850261","0.0-6.0-1.96","","<img src=""img/pink-n.png"">","null","trial","32","","0.6,0.4","1:go_a","0",""
"null","","html-keyboard-response","510","851278","0.0-6.0-2.96","","<div style=""font-size:60px;"">+</div>","null","","","","","","",""
"591.5499999828171","","image-keyboard-response","511","851871","0.0-6.0-0.97","","img/purple.png","32","trial","null","false","0.4,0.6","2:nogo_b","",""
"null","","html-keyboard-response","512","852875","0.0-6.0-1.97","","<img src=""img/purple-r.png"" border=""10"">","null","trial","null","","0.4,0.6","2:nogo_b","1",""
"null","","html-keyboard-response","513","853892","0.0-6.0-2.97","","<div style=""font-size:60px;"">+</div>","null","","","","","","",""
"null","","image-keyboard-response","514","855393","0.0-6.0-0.98","","img/red.png","null","trial","null","true","0.4,0.6","4:nogo_d","",""
"null","","html-keyboard-response","515","856403","0.0-6.0-1.98","","<img src=""img/red-r.png"">","null","trial","null","","0.4,0.6","4:nogo_d","1",""
"null","","html-keyboard-response","516","857407","0.0-6.0-2.98","","<div style=""font-size:60px;"">+</div>","null","","","","","","",""
"762.0499999902677","","image-keyboard-response","517","858170","0.0-6.0-0.99","","img/orange.png","32","trial","32","true","0.6,0.4","3:go_c","",""
"null","","html-keyboard-response","518","859174","0.0-6.0-1.99","","<img src=""img/orange-n.png"" border=""10"">","null","trial","32","","0.6,0.4","3:go_c","0",""
"null","","html-keyboard-response","519","860186","0.0-6.0-2.99","","<div style=""font-size:60px;"">+</div>","null","","","","","","",""
"null","","image-keyboard-response","520","861695","0.0-6.0-0.100","","img/purple.png","null","trial","null","true","0.4,0.6","2:nogo_b","",""
"null","","html-keyboard-response","521","862717","0.0-6.0-1.100","","<img src=""img/purple-r.png"">","null","trial","null","","0.4,0.6","2:nogo_b","1",""
"null","","html-keyboard-response","522","863748","0.0-6.0-2.100","","<div style=""font-size:60px;"">+</div>","null","","","","","","",""
"775.5250000045635","","image-keyboard-response","523","864525","0.0-6.0-0.101","","img/orange.png","32","trial","32","true","0.6,0.4","3:go_c","",""
"null","","html-keyboard-response","524","865538","0.0-6.0-1.101","","<img src=""img/orange-r.png"" border=""10"">","null","trial","32","","0.6,0.4","3:go_c","1",""
"null","","html-keyboard-response","525","866555","0.0-6.0-2.101","","<div style=""font-size:60px;"">+</div>","null","","","","","","",""
"null","","image-keyboard-response","526","868067","0.0-6.0-0.102","","img/red.png","null","trial","null","true","0.4,0.6","4:nogo_d","",""
"null","","html-keyboard-response","527","869081","0.0-6.0-1.102","","<img src=""img/red-r.png"">","null","trial","null","","0.4,0.6","4:nogo_d","1",""
"null","","html-keyboard-response","528","870084","0.0-6.0-2.102","","<div style=""font-size:60px;"">+</div>","null","","","","","","",""
"714.9900000076741","","image-keyboard-response","529","870802","0.0-6.0-0.103","","img/pink.png","32","trial","32","true","0.6,0.4","1:go_a","",""
"null","","html-keyboard-response","530","871818","0.0-6.0-1.103","","<img src=""img/pink-n.png"" border=""10"">","null","trial","32","","0.6,0.4","1:go_a","0",""
"null","","html-keyboard-response","531","872822","0.0-6.0-2.103","","<div style=""font-size:60px;"">+</div>","null","","","","","","",""
"775.3250000241678","","image-keyboard-response","532","873599","0.0-6.0-0.104","","img/purple.png","32","trial","null","false","0.4,0.6","2:nogo_b","",""
"null","","html-keyboard-response","533","874618","0.0-6.0-1.104","","<img src=""img/purple-n.png"" border=""10"">","null","trial","null","","0.4,0.6","2:nogo_b","0",""
"null","","html-keyboard-response","534","875620","0.0-6.0-2.104","","<div style=""font-size:60px;"">+</div>","null","","","","","","",""
"647.9549999930896","","image-keyboard-response","535","876269","0.0-6.0-0.105","","img/red.png","32","trial","null","false","0.4,0.6","4:nogo_d","",""
"null","","html-keyboard-response","536","877284","0.0-6.0-1.105","","<img src=""img/red-r.png"" border=""10"">","null","trial","null","","0.4,0.6","4:nogo_d","1",""
"null","","html-keyboard-response","537","878287","0.0-6.0-2.105","","<div style=""font-size:60px;"">+</div>","null","","","","","","",""
"null","","image-keyboard-response","538","879795","0.0-6.0-0.106","","img/pink.png","null","trial","32","false","0.6,0.4","1:go_a","",""
"null","","html-keyboard-response","539","880811","0.0-6.0-1.106","","<img src=""img/pink-n.png"">","null","trial","32","","0.6,0.4","1:go_a","0",""
"null","","html-keyboard-response","540","881824","0.0-6.0-2.106","","<div style=""font-size:60px;"">+</div>","null","","","","","","",""
"908.4900000016205","","image-keyboard-response","541","882734","0.0-6.0-0.107","","img/orange.png","32","trial","32","true","0.6,0.4","3:go_c","",""
"null","","html-keyboard-response","542","883749","0.0-6.0-1.107","","<img src=""img/orange-r.png"" border=""10"">","null","trial","32","","0.6,0.4","3:go_c","1",""
"null","","html-keyboard-response","543","884763","0.0-6.0-2.107","","<div style=""font-size:60px;"">+</div>","null","","","","","","",""
"null","","image-keyboard-response","544","886274","0.0-6.0-0.108","","img/pink.png","null","trial","32","false","0.6,0.4","1:go_a","",""
"null","","html-keyboard-response","545","887282","0.0-6.0-1.108","","<img src=""img/pink-n.png"">","null","trial","32","","0.6,0.4","1:go_a","0",""
"null","","html-keyboard-response","546","888300","0.0-6.0-2.108","","<div style=""font-size:60px;"">+</div>","null","","","","","","",""
"null","","image-keyboard-response","547","889807","0.0-6.0-0.109","","img/orange.png","null","trial","32","false","0.6,0.4","3:go_c","",""
"null","","html-keyboard-response","548","890829","0.0-6.0-1.109","","<img src=""img/orange-n.png"">","null","trial","32","","0.6,0.4","3:go_c","0",""
"null","","html-keyboard-response","549","891841","0.0-6.0-2.109","","<div style=""font-size:60px;"">+</div>","null","","","","","","",""
"709.3200000235811","","image-keyboard-response","550","892552","0.0-6.0-0.110","","img/red.png","32","trial","null","false","0.4,0.6","4:nogo_d","",""
"null","","html-keyboard-response","551","893565","0.0-6.0-1.110","","<img src=""img/red-n.png"" border=""10"">","null","trial","null","","0.4,0.6","4:nogo_d","0",""
"null","","html-keyboard-response","552","894570","0.0-6.0-2.110","","<div style=""font-size:60px;"">+</div>","null","","","","","","",""
"671.8949999776669","","image-keyboard-response","553","895243","0.0-6.0-0.111","","img/purple.png","32","trial","null","false","0.4,0.6","2:nogo_b","",""
"null","","html-keyboard-response","554","896254","0.0-6.0-1.111","","<img src=""img/purple-n.png"" border=""10"">","null","trial","null","","0.4,0.6","2:nogo_b","0",""
"null","","html-keyboard-response","555","897269","0.0-6.0-2.111","","<div style=""font-size:60px;"">+</div>","null","","","","","","",""
"354.7799999942072","","image-keyboard-response","556","897626","0.0-6.0-0.112","","img/red.png","32","trial","null","false","0.4,0.6","4:nogo_d","",""
"null","","html-keyboard-response","557","898629","0.0-6.0-1.112","","<img src=""img/red-n.png"" border=""10"">","null","trial","null","","0.4,0.6","4:nogo_d","0",""
"null","","html-keyboard-response","558","899634","0.0-6.0-2.112","","<div style=""font-size:60px;"">+</div>","null","","","","","","",""
"null","","image-keyboard-response","559","901151","0.0-6.0-0.113","","img/pink.png","null","trial","32","false","0.6,0.4","1:go_a","",""
"null","","html-keyboard-response","560","902173","0.0-6.0-1.113","","<img src=""img/pink-n.png"">","null","trial","32","","0.6,0.4","1:go_a","0",""
"null","","html-keyboard-response","561","903189","0.0-6.0-2.113","","<div style=""font-size:60px;"">+</div>","null","","","","","","",""
"1354.3249999929685","","image-keyboard-response","562","904546","0.0-6.0-0.114","","img/purple.png","32","trial","null","false","0.4,0.6","2:nogo_b","",""
"null","","html-keyboard-response","563","905588","0.0-6.0-1.114","","<img src=""img/purple-n.png"" border=""10"">","null","trial","null","","0.4,0.6","2:nogo_b","0",""
"null","","html-keyboard-response","564","906591","0.0-6.0-2.114","","<div style=""font-size:60px;"">+</div>","null","","","","","","",""
"900.9749999968335","","image-keyboard-response","565","907494","0.0-6.0-0.115","","img/orange.png","32","trial","32","true","0.6,0.4","3:go_c","",""
"null","","html-keyboard-response","566","908498","0.0-6.0-1.115","","<img src=""img/orange-r.png"" border=""10"">","null","trial","32","","0.6,0.4","3:go_c","1",""
"null","","html-keyboard-response","567","909505","0.0-6.0-2.115","","<div style=""font-size:60px;"">+</div>","null","","","","","","",""
"null","","image-keyboard-response","568","911022","0.0-6.0-0.116","","img/red.png","null","trial","null","true","0.4,0.6","4:nogo_d","",""
"null","","html-keyboard-response","569","912037","0.0-6.0-1.116","","<img src=""img/red-n.png"">","null","trial","null","","0.4,0.6","4:nogo_d","0",""
"null","","html-keyboard-response","570","913050","0.0-6.0-2.116","","<div style=""font-size:60px;"">+</div>","null","","","","","","",""
"902.0850000088103","","image-keyboard-response","571","913954","0.0-6.0-0.117","","img/pink.png","32","trial","32","true","0.6,0.4","1:go_a","",""
"null","","html-keyboard-response","572","914968","0.0-6.0-1.117","","<img src=""img/pink-r.png"" border=""10"">","null","trial","32","","0.6,0.4","1:go_a","1",""
"null","","html-keyboard-response","573","915976","0.0-6.0-2.117","","<div style=""font-size:60px;"">+</div>","null","","","","","","",""
"898.925000015879","","image-keyboard-response","574","916876","0.0-6.0-0.118","","img/orange.png","32","trial","32","true","0.6,0.4","3:go_c","",""
"null","","html-keyboard-response","575","917889","0.0-6.0-1.118","","<img src=""img/orange-r.png"" border=""10"">","null","trial","32","","0.6,0.4","3:go_c","1",""
"null","","html-keyboard-response","576","918903","0.0-6.0-2.118","","<div style=""font-size:60px;"">+</div>","null","","","","","","",""
"null","","image-keyboard-response","577","920414","0.0-6.0-0.119","","img/purple.png","null","trial","null","true","0.4,0.6","2:nogo_b","",""
"null","","html-keyboard-response","578","921432","0.0-6.0-1.119","","<img src=""img/purple-r.png"">","null","trial","null","","0.4,0.6","2:nogo_b","1",""
"null","","html-keyboard-response","579","922441","0.0-6.0-2.119","","<div style=""font-size:60px;"">+</div>","null","","","","","","",""
"297952.5600000052","","instructions","580","1220394","0.0-7.0","[{""page_index"":0,""viewing_time"":297952.1999999997}]","","","","","","","","",""
"1166.2349999824073","","image-keyboard-response","581","1221562","0.0-8.0-0.0","","img/pink.png","32","trial","null","false","0.2,0.8","2:nogo_b","",""
"null","","html-keyboard-response","582","1222577","0.0-8.0-1.0","","<img src=""img/pink-r.png"" border=""10"">","null","trial","null","","0.2,0.8","2:nogo_b","1",""
"null","","html-keyboard-response","583","1223590","0.0-8.0-2.0","","<div style=""font-size:60px;"">+</div>","null","","","","","","",""
"null","","image-keyboard-response","584","1225106","0.0-8.0-0.1","","img/grey.png","null","trial","32","false","0.6,0.4","3:go_c","",""
"null","","html-keyboard-response","585","1226126","0.0-8.0-1.1","","<img src=""img/grey-r.png"">","null","trial","32","","0.6,0.4","3:go_c","1",""
"null","","html-keyboard-response","586","1227134","0.0-8.0-2.1","","<div style=""font-size:60px;"">+</div>","null","","","","","","",""
"496.1300000140909","","image-keyboard-response","587","1227633","0.0-8.0-0.2","","img/yellow.png","32","trial","null","false","0.4,0.6","4:nogo_d","",""
"null","","html-keyboard-response","588","1228641","0.0-8.0-1.2","","<img src=""img/yellow-r.png"" border=""10"">","null","trial","null","","0.4,0.6","4:nogo_d","1",""
"null","","html-keyboard-response","589","1229650","0.0-8.0-2.2","","<div style=""font-size:60px;"">+</div>","null","","","","","","",""
"657.3899999784771","","image-keyboard-response","590","1230320","0.0-8.0-0.3","","img/blue.png","32","trial","32","true","0.8,0.2","1:go_a","",""
"null","","html-keyboard-response","591","1231347","0.0-8.0-1.3","","<img src=""img/blue-n.png"" border=""10"">","null","trial","32","","0.8,0.2","1:go_a","0",""
"null","","html-keyboard-response","592","1232364","0.0-8.0-2.3","","<div style=""font-size:60px;"">+</div>","null","","","","","","",""
"527.8350000153296","","image-keyboard-response","593","1232893","0.0-8.0-0.4","","img/blue.png","32","trial","32","true","0.8,0.2","1:go_a","",""
"null","","html-keyboard-response","594","1233907","0.0-8.0-1.4","","<img src=""img/blue-r.png"" border=""10"">","null","trial","32","","0.8,0.2","1:go_a","1",""
"null","","html-keyboard-response","595","1234922","0.0-8.0-2.4","","<div style=""font-size:60px;"">+</div>","null","","","","","","",""
"728.6350000067614","","image-keyboard-response","596","1235652","0.0-8.0-0.5","","img/grey.png","32","trial","32","true","0.6,0.4","3:go_c","",""
"null","","html-keyboard-response","597","1236656","0.0-8.0-1.5","","<img src=""img/grey-r.png"" border=""10"">","null","trial","32","","0.6,0.4","3:go_c","1",""
"null","","html-keyboard-response","598","1237669","0.0-8.0-2.5","","<div style=""font-size:60px;"">+</div>","null","","","","","","",""
"null","","image-keyboard-response","599","1239183","0.0-8.0-0.6","","img/pink.png","null","trial","null","true","0.2,0.8","2:nogo_b","",""
"null","","html-keyboard-response","600","1240195","0.0-8.0-1.6","","<img src=""img/pink-r.png"">","null","trial","null","","0.2,0.8","2:nogo_b","1",""
"null","","html-keyboard-response","601","1241204","0.0-8.0-2.6","","<div style=""font-size:60px;"">+</div>","null","","","","","","",""
"568.5850000008941","","image-keyboard-response","602","1241773","0.0-8.0-0.7","","img/yellow.png","32","trial","null","false","0.4,0.6","4:nogo_d","",""
"null","","html-keyboard-response","603","1242781","0.0-8.0-1.7","","<img src=""img/yellow-r.png"" border=""10"">","null","trial","null","","0.4,0.6","4:nogo_d","1",""
"null","","html-keyboard-response","604","1243792","0.0-8.0-2.7","","<div style=""font-size:60px;"">+</div>","null","","","","","","",""
"null","","image-keyboard-response","605","1245305","0.0-8.0-0.8","","img/pink.png","null","trial","null","true","0.2,0.8","2:nogo_b","",""
"null","","html-keyboard-response","606","1246321","0.0-8.0-1.8","","<img src=""img/pink-r.png"">","null","trial","null","","0.2,0.8","2:nogo_b","1",""
"null","","html-keyboard-response","607","1247323","0.0-8.0-2.8","","<div style=""font-size:60px;"">+</div>","null","","","","","","",""
"551.4399999810848","","image-keyboard-response","608","1247876","0.0-8.0-0.9","","img/yellow.png","32","trial","null","false","0.4,0.6","4:nogo_d","",""
"null","","html-keyboard-response","609","1248893","0.0-8.0-1.9","","<img src=""img/yellow-n.png"" border=""10"">","null","trial","null","","0.4,0.6","4:nogo_d","0",""
"null","","html-keyboard-response","610","1249899","0.0-8.0-2.9","","<div style=""font-size:60px;"">+</div>","null","","","","","","",""
"686.8149999936577","","image-keyboard-response","611","1250588","0.0-8.0-0.10","","img/grey.png","32","trial","32","true","0.6,0.4","3:go_c","",""
"null","","html-keyboard-response","612","1251604","0.0-8.0-1.10","","<img src=""img/grey-r.png"" border=""10"">","null","trial","32","","0.6,0.4","3:go_c","1",""
"null","","html-keyboard-response","613","1252623","0.0-8.0-2.10","","<div style=""font-size:60px;"">+</div>","null","","","","","","",""
"742.2749999968801","","image-keyboard-response","614","1253368","0.0-8.0-0.11","","img/blue.png","32","trial","32","true","0.8,0.2","1:go_a","",""
"null","","html-keyboard-response","615","1254373","0.0-8.0-1.11","","<img src=""img/blue-n.png"" border=""10"">","null","trial","32","","0.8,0.2","1:go_a","0",""
"null","","html-keyboard-response","616","1255385","0.0-8.0-2.11","","<div style=""font-size:60px;"">+</div>","null","","","","","","",""
"715.6899999827147","","image-keyboard-response","617","1256103","0.0-8.0-0.12","","img/grey.png","32","trial","32","true","0.6,0.4","3:go_c","",""
"null","","html-keyboard-response","618","1257117","0.0-8.0-1.12","","<img src=""img/grey-r.png"" border=""10"">","null","trial","32","","0.6,0.4","3:go_c","1",""
"null","","html-keyboard-response","619","1258130","0.0-8.0-2.12","","<div style=""font-size:60px;"">+</div>","null","","","","","","",""
"1146.9250000081956","","image-keyboard-response","620","1259279","0.0-8.0-0.13","","img/pink.png","32","trial","null","false","0.2,0.8","2:nogo_b","",""
"null","","html-keyboard-response","621","1260288","0.0-8.0-1.13","","<img src=""img/pink-n.png"" border=""10"">","null","trial","null","","0.2,0.8","2:nogo_b","0",""
"null","","html-keyboard-response","622","1261299","0.0-8.0-2.13","","<div style=""font-size:60px;"">+</div>","null","","","","","","",""
"410.96499998820946","","image-keyboard-response","623","1261711","0.0-8.0-0.14","","img/yellow.png","32","trial","null","false","0.4,0.6","4:nogo_d","",""
"null","","html-keyboard-response","624","1262729","0.0-8.0-1.14","","<img src=""img/yellow-n.png"" border=""10"">","null","trial","null","","0.4,0.6","4:nogo_d","0",""
"null","","html-keyboard-response","625","1263765","0.0-8.0-2.14","","<div style=""font-size:60px;"">+</div>","null","","","","","","",""
"868.1550000037532","","image-keyboard-response","626","1264634","0.0-8.0-0.15","","img/blue.png","32","trial","32","true","0.8,0.2","1:go_a","",""
"null","","html-keyboard-response","627","1265645","0.0-8.0-1.15","","<img src=""img/blue-n.png"" border=""10"">","null","trial","32","","0.8,0.2","1:go_a","0",""
"null","","html-keyboard-response","628","1266650","0.0-8.0-2.15","","<div style=""font-size:60px;"">+</div>","null","","","","","","",""
"756.6350000270177","","image-keyboard-response","629","1267409","0.0-8.0-0.16","","img/blue.png","32","trial","32","true","0.8,0.2","1:go_a","",""
"null","","html-keyboard-response","630","1268437","0.0-8.0-1.16","","<img src=""img/blue-r.png"" border=""10"">","null","trial","32","","0.8,0.2","1:go_a","1",""
"null","","html-keyboard-response","631","1269439","0.0-8.0-2.16","","<div style=""font-size:60px;"">+</div>","null","","","","","","",""
"null","","image-keyboard-response","632","1270957","0.0-8.0-0.17","","img/pink.png","null","trial","null","true","0.2,0.8","2:nogo_b","",""
"null","","html-keyboard-response","633","1271968","0.0-8.0-1.17","","<img src=""img/pink-r.png"">","null","trial","null","","0.2,0.8","2:nogo_b","1",""
"null","","html-keyboard-response","634","1272988","0.0-8.0-2.17","","<div style=""font-size:60px;"">+</div>","null","","","","","","",""
"529.7799999825656","","image-keyboard-response","635","1273521","0.0-8.0-0.18","","img/yellow.png","32","trial","null","false","0.4,0.6","4:nogo_d","",""
"null","","html-keyboard-response","636","1274534","0.0-8.0-1.18","","<img src=""img/yellow-r.png"" border=""10"">","null","trial","null","","0.4,0.6","4:nogo_d","1",""
"null","","html-keyboard-response","637","1275541","0.0-8.0-2.18","","<div style=""font-size:60px;"">+</div>","null","","","","","","",""
"756.9799999764655","","image-keyboard-response","638","1276301","0.0-8.0-0.19","","img/grey.png","32","trial","32","true","0.6,0.4","3:go_c","",""
"null","","html-keyboard-response","639","1277324","0.0-8.0-1.19","","<img src=""img/grey-n.png"" border=""10"">","null","trial","32","","0.6,0.4","3:go_c","0",""
"null","","html-keyboard-response","640","1278340","0.0-8.0-2.19","","<div style=""font-size:60px;"">+</div>","null","","","","","","",""
"659.1550000011921","","image-keyboard-response","641","1278997","0.0-8.0-0.20","","img/blue.png","32","trial","32","true","0.8,0.2","1:go_a","",""
"null","","html-keyboard-response","642","1280007","0.0-8.0-1.20","","<img src=""img/blue-r.png"" border=""10"">","null","trial","32","","0.8,0.2","1:go_a","1",""
"null","","html-keyboard-response","643","1281021","0.0-8.0-2.20","","<div style=""font-size:60px;"">+</div>","null","","","","","","",""
"692.7750000031665","","image-keyboard-response","644","1281716","0.0-8.0-0.21","","img/pink.png","32","trial","null","false","0.2,0.8","2:nogo_b","",""
"null","","html-keyboard-response","645","1282722","0.0-8.0-1.21","","<img src=""img/pink-n.png"" border=""10"">","null","trial","null","","0.2,0.8","2:nogo_b","0",""
"null","","html-keyboard-response","646","1283729","0.0-8.0-2.21","","<div style=""font-size:60px;"">+</div>","null","","","","","","",""
"632.7149999851827","","image-keyboard-response","647","1284363","0.0-8.0-0.22","","img/grey.png","32","trial","32","true","0.6,0.4","3:go_c","",""
"null","","html-keyboard-response","648","1285378","0.0-8.0-1.22","","<img src=""img/grey-r.png"" border=""10"">","null","trial","32","","0.6,0.4","3:go_c","1",""
"null","","html-keyboard-response","649","1286394","0.0-8.0-2.22","","<div style=""font-size:60px;"">+</div>","null","","","","","","",""
"708.2050000026356","","image-keyboard-response","650","1287120","0.0-8.0-0.23","","img/yellow.png","32","trial","null","false","0.4,0.6","4:nogo_d","",""
"null","","html-keyboard-response","651","1288130","0.0-8.0-1.23","","<img src=""img/yellow-r.png"" border=""10"">","null","trial","null","","0.4,0.6","4:nogo_d","1",""
"null","","html-keyboard-response","652","1289146","0.0-8.0-2.23","","<div style=""font-size:60px;"">+</div>","null","","","","","","",""
"null","","image-keyboard-response","653","1290663","0.0-8.0-0.24","","img/grey.png","null","trial","32","false","0.6,0.4","3:go_c","",""
"null","","html-keyboard-response","654","1291682","0.0-8.0-1.24","","<img src=""img/grey-r.png"">","null","trial","32","","0.6,0.4","3:go_c","1",""
"null","","html-keyboard-response","655","1292698","0.0-8.0-2.24","","<div style=""font-size:60px;"">+</div>","null","","","","","","",""
"543.5150000266731","","image-keyboard-response","656","1293244","0.0-8.0-0.25","","img/yellow.png","32","trial","null","false","0.4,0.6","4:nogo_d","",""
"null","","html-keyboard-response","657","1294256","0.0-8.0-1.25","","<img src=""img/yellow-n.png"" border=""10"">","null","trial","null","","0.4,0.6","4:nogo_d","0",""
"null","","html-keyboard-response","658","1295273","0.0-8.0-2.25","","<div style=""font-size:60px;"">+</div>","null","","","","","","",""
"768.8999999954831","","image-keyboard-response","659","1296044","0.0-8.0-0.26","","img/blue.png","32","trial","32","true","0.8,0.2","1:go_a","",""
"null","","html-keyboard-response","660","1297066","0.0-8.0-1.26","","<img src=""img/blue-r.png"" border=""10"">","null","trial","32","","0.8,0.2","1:go_a","1",""
"null","","html-keyboard-response","661","1298072","0.0-8.0-2.26","","<div style=""font-size:60px;"">+</div>","null","","","","","","",""
"873.554999998305","","image-keyboard-response","662","1298947","0.0-8.0-0.27","","img/pink.png","32","trial","null","false","0.2,0.8","2:nogo_b","",""
"null","","html-keyboard-response","663","1299973","0.0-8.0-1.27","","<img src=""img/pink-n.png"" border=""10"">","null","trial","null","","0.2,0.8","2:nogo_b","0",""
"null","","html-keyboard-response","664","1300989","0.0-8.0-2.27","","<div style=""font-size:60px;"">+</div>","null","","","","","","",""
"786.6249999788124","","image-keyboard-response","665","1301778","0.0-8.0-0.28","","img/pink.png","32","trial","null","false","0.2,0.8","2:nogo_b","",""
"null","","html-keyboard-response","666","1302790","0.0-8.0-1.28","","<img src=""img/pink-n.png"" border=""10"">","null","trial","null","","0.2,0.8","2:nogo_b","0",""
"null","","html-keyboard-response","667","1303798","0.0-8.0-2.28","","<div style=""font-size:60px;"">+</div>","null","","","","","","",""
"788.9750000031199","","image-keyboard-response","668","1304589","0.0-8.0-0.29","","img/grey.png","32","trial","32","true","0.6,0.4","3:go_c","",""
"null","","html-keyboard-response","669","1305599","0.0-8.0-1.29","","<img src=""img/grey-r.png"" border=""10"">","null","trial","32","","0.6,0.4","3:go_c","1",""
"null","","html-keyboard-response","670","1306602","0.0-8.0-2.29","","<div style=""font-size:60px;"">+</div>","null","","","","","","",""
"789.8900000145659","","image-keyboard-response","671","1307394","0.0-8.0-0.30","","img/yellow.png","32","trial","null","false","0.4,0.6","4:nogo_d","",""
"null","","html-keyboard-response","672","1308409","0.0-8.0-1.30","","<img src=""img/yellow-n.png"" border=""10"">","null","trial","null","","0.4,0.6","4:nogo_d","0",""
