"rt","url","trial_type","trial_index","time_elapsed","internal_node_id","view_history","stimulus","key_press","test_part","correct_response","correct","use_rew","which_stim","reward","responses"
"28749.199999962002","consent.html","external-html","0","29022","0.0-0.0","","","","","","","","","",""
"123222.19499998027","","instructions","1","152248","0.0-1.0","[{""page_index"":0,""viewing_time"":12570.7200000179},{""page_index"":1,""viewing_time"":28306.01999995997},{""page_index"":2,""viewing_time"":9914.49500003364},{""page_index"":3,""viewing_time"":26831.275000004098},{""page_index"":4,""viewing_time"":16834.484999999404},{""page_index"":5,""viewing_time"":9180.010000010952},{""page_index"":6,""viewing_time"":19583.524999965448}]","","","","","","","","",""
"null","","image-keyboard-response","2","153757","0.0-2.0-0.0","","img/test3.PNG","null","practice","null","true","","","",""
"null","","html-keyboard-response","3","154773","0.0-2.0-1.0","","<img src=""img/test3-reward.PNG"">","null","","","","","","",""
"null","","html-keyboard-response","4","155792","0.0-2.0-2.0","","<div style=""font-size:60px;"">+</div>","null","","","","","","",""
"null","","image-keyboard-response","5","157317","0.0-2.0-0.1","","img/test2.PNG","null","practice","null","true","","","",""
"null","","html-keyboard-response","6","158325","0.0-2.0-1.1","","<img src=""img/test2-reward.PNG"">","null","","","","","","",""
"null","","html-keyboard-response","7","159334","0.0-2.0-2.1","","<div style=""font-size:60px;"">+</div>","null","","","","","","",""
"402.03000005567446","","image-keyboard-response","8","159738","0.0-2.0-0.2","","img/test1.PNG","32","practice","32","true","","","",""
"null","","html-keyboard-response","9","160750","0.0-2.0-1.2","","<img src=""img/test1-reward.PNG"" border=""10px; grey"">","null","","","","","","",""
"null","","html-keyboard-response","10","161753","0.0-2.0-2.2","","<div style=""font-size:60px;"">+</div>","null","","","","","","",""
"null","","image-keyboard-response","11","163257","0.0-2.0-0.3","","img/test3.PNG","null","practice","null","true","","","",""
"null","","html-keyboard-response","12","164274","0.0-2.0-1.3","","<img src=""img/test3-reward.PNG"">","null","","","","","","",""
"null","","html-keyboard-response","13","165286","0.0-2.0-2.3","","<div style=""font-size:60px;"">+</div>","null","","","","","","",""
"null","","image-keyboard-response","14","166815","0.0-2.0-0.4","","img/test2.PNG","null","practice","null","true","","","",""
"null","","html-keyboard-response","15","167832","0.0-2.0-1.4","","<img src=""img/test2-reward.PNG"">","null","","","","","","",""
"null","","html-keyboard-response","16","168840","0.0-2.0-2.4","","<div style=""font-size:60px;"">+</div>","null","","","","","","",""
"426.1599999736063","","image-keyboard-response","17","169268","0.0-2.0-0.5","","img/test1.PNG","32","practice","32","true","","","",""
"null","","html-keyboard-response","18","170352","0.0-2.0-1.5","","<img src=""img/test1-reward.PNG"" border=""10px; grey"">","null","","","","","","",""
"null","","html-keyboard-response","19","171360","0.0-2.0-2.5","","<div style=""font-size:60px;"">+</div>","null","","","","","","",""
"null","","image-keyboard-response","20","172867","0.0-2.0-0.6","","img/test2.PNG","null","practice","null","true","","","",""
"null","","html-keyboard-response","21","173892","0.0-2.0-1.6","","<img src=""img/test2-reward.PNG"">","null","","","","","","",""
"null","","html-keyboard-response","22","174895","0.0-2.0-2.6","","<div style=""font-size:60px;"">+</div>","null","","","","","","",""
"473.18000002996996","","image-keyboard-response","23","175372","0.0-2.0-0.7","","img/test1.PNG","32","practice","32","true","","","",""
"null","","html-keyboard-response","24","176378","0.0-2.0-1.7","","<img src=""img/test1-reward.PNG"" border=""10px; grey"">","null","","","","","","",""
"null","","html-keyboard-response","25","177399","0.0-2.0-2.7","","<div style=""font-size:60px;"">+</div>","null","","","","","","",""
"null","","image-keyboard-response","26","178915","0.0-2.0-0.8","","img/test3.PNG","null","practice","null","true","","","",""
"null","","html-keyboard-response","27","179946","0.0-2.0-1.8","","<img src=""img/test3-reward.PNG"">","null","","","","","","",""
"null","","html-keyboard-response","28","180960","0.0-2.0-2.8","","<div style=""font-size:60px;"">+</div>","null","","","","","","",""
"428.32999996608123","","image-keyboard-response","29","181390","0.0-2.0-0.9","","img/test1.PNG","32","practice","32","true","","","",""
"null","","html-keyboard-response","30","182417","0.0-2.0-1.9","","<img src=""img/test1-reward.PNG"" border=""10px; grey"">","null","","","","","","",""
"null","","html-keyboard-response","31","183421","0.0-2.0-2.9","","<div style=""font-size:60px;"">+</div>","null","","","","","","",""
"null","","image-keyboard-response","32","184924","0.0-2.0-0.10","","img/test2.PNG","null","practice","null","true","","","",""
"null","","html-keyboard-response","33","185926","0.0-2.0-1.10","","<img src=""img/test2-reward.PNG"">","null","","","","","","",""
"null","","html-keyboard-response","34","186934","0.0-2.0-2.10","","<div style=""font-size:60px;"">+</div>","null","","","","","","",""
"null","","image-keyboard-response","35","188447","0.0-2.0-0.11","","img/test3.PNG","null","practice","null","true","","","",""
"null","","html-keyboard-response","36","189462","0.0-2.0-1.11","","<img src=""img/test3-reward.PNG"">","null","","","","","","",""
"null","","html-keyboard-response","37","190479","0.0-2.0-2.11","","<div style=""font-size:60px;"">+</div>","null","","","","","","",""
"22714.245000039227","","instructions","38","213193","0.0-3.0","[{""page_index"":0,""viewing_time"":22713.099999993574}]","","","","","","","","",""
"813.5649999603629","","image-keyboard-response","39","214012","0.0-4.0-0.0","","img/blue.png","32","trial","32","true","0.8,0.2","1:go_a","",""
"null","","html-keyboard-response","40","215016","0.0-4.0-1.0","","<img src=""img/blue-r.png"" border=""10"">","null","trial","32","","0.8,0.2","1:go_a","1",""
"null","","html-keyboard-response","41","216038","0.0-4.0-2.0","","<div style=""font-size:60px;"">+</div>","null","","","","","","",""
"null","","image-keyboard-response","42","217546","0.0-4.0-0.1","","img/pink.png","null","trial","null","true","0.2,0.8","2:nogo_b","",""
"null","","html-keyboard-response","43","218550","0.0-4.0-1.1","","<img src=""img/pink-r.png"">","null","trial","null","","0.2,0.8","2:nogo_b","1",""
"null","","html-keyboard-response","44","219555","0.0-4.0-2.1","","<div style=""font-size:60px;"">+</div>","null","","","","","","",""
"383.20999999996275","","image-keyboard-response","45","219940","0.0-4.0-0.2","","img/blue.png","32","trial","32","true","0.8,0.2","1:go_a","",""
"null","","html-keyboard-response","46","220951","0.0-4.0-1.2","","<img src=""img/blue-r.png"" border=""10"">","null","trial","32","","0.8,0.2","1:go_a","1",""
"null","","html-keyboard-response","47","221962","0.0-4.0-2.2","","<div style=""font-size:60px;"">+</div>","null","","","","","","",""
"814.5249999943189","","image-keyboard-response","48","222778","0.0-4.0-0.3","","img/pink.png","32","trial","null","false","0.2,0.8","2:nogo_b","",""
"null","","html-keyboard-response","49","223782","0.0-4.0-1.3","","<img src=""img/pink-r.png"" border=""10"">","null","trial","null","","0.2,0.8","2:nogo_b","1",""
"null","","html-keyboard-response","50","224785","0.0-4.0-2.3","","<div style=""font-size:60px;"">+</div>","null","","","","","","",""
"905.655000009574","","image-keyboard-response","51","225694","0.0-4.0-0.4","","img/pink.png","32","trial","null","false","0.2,0.8","2:nogo_b","",""
"null","","html-keyboard-response","52","226701","0.0-4.0-1.4","","<img src=""img/pink-r.png"" border=""10"">","null","trial","null","","0.2,0.8","2:nogo_b","1",""
"null","","html-keyboard-response","53","227705","0.0-4.0-2.4","","<div style=""font-size:60px;"">+</div>","null","","","","","","",""
"444.96500003151596","","image-keyboard-response","54","228151","0.0-4.0-0.5","","img/blue.png","32","trial","32","true","0.8,0.2","1:go_a","",""
"null","","html-keyboard-response","55","229159","0.0-4.0-1.5","","<img src=""img/blue-r.png"" border=""10"">","null","trial","32","","0.8,0.2","1:go_a","1",""
"null","","html-keyboard-response","56","230170","0.0-4.0-2.5","","<div style=""font-size:60px;"">+</div>","null","","","","","","",""
"614.144999999553","","image-keyboard-response","57","230788","0.0-4.0-0.6","","img/blue.png","32","trial","32","true","0.8,0.2","1:go_a","",""
"null","","html-keyboard-response","58","231799","0.0-4.0-1.6","","<img src=""img/blue-n.png"" border=""10"">","null","trial","32","","0.8,0.2","1:go_a","0",""
"null","","html-keyboard-response","59","232806","0.0-4.0-2.6","","<div style=""font-size:60px;"">+</div>","null","","","","","","",""
"661.0499999951571","","image-keyboard-response","60","233469","0.0-4.0-0.7","","img/pink.png","32","trial","null","false","0.2,0.8","2:nogo_b","",""
"null","","html-keyboard-response","61","234482","0.0-4.0-1.7","","<img src=""img/pink-r.png"" border=""10"">","null","trial","null","","0.2,0.8","2:nogo_b","1",""
"null","","html-keyboard-response","62","235512","0.0-4.0-2.7","","<div style=""font-size:60px;"">+</div>","null","","","","","","",""
"619.8549999971874","","image-keyboard-response","63","236133","0.0-4.0-0.8","","img/pink.png","32","trial","null","false","0.2,0.8","2:nogo_b","",""
"null","","html-keyboard-response","64","237145","0.0-4.0-1.8","","<img src=""img/pink-r.png"" border=""10"">","null","trial","null","","0.2,0.8","2:nogo_b","1",""
"null","","html-keyboard-response","65","238169","0.0-4.0-2.8","","<div style=""font-size:60px;"">+</div>","null","","","","","","",""
"null","","image-keyboard-response","66","239681","0.0-4.0-0.9","","img/blue.png","null","trial","32","false","0.8,0.2","1:go_a","",""
"null","","html-keyboard-response","67","240699","0.0-4.0-1.9","","<img src=""img/blue-n.png"">","null","trial","32","","0.8,0.2","1:go_a","0",""
"null","","html-keyboard-response","68","241716","0.0-4.0-2.9","","<div style=""font-size:60px;"">+</div>","null","","","","","","",""
"521.3749999529682","","image-keyboard-response","69","242240","0.0-4.0-0.10","","img/pink.png","32","trial","null","false","0.2,0.8","2:nogo_b","",""
"null","","html-keyboard-response","70","243266","0.0-4.0-1.10","","<img src=""img/pink-n.png"" border=""10"">","null","trial","null","","0.2,0.8","2:nogo_b","0",""
"null","","html-keyboard-response","71","244283","0.0-4.0-2.10","","<div style=""font-size:60px;"">+</div>","null","","","","","","",""
"596.9399999594316","","image-keyboard-response","72","244882","0.0-4.0-0.11","","img/blue.png","32","trial","32","true","0.8,0.2","1:go_a","",""
"null","","html-keyboard-response","73","245913","0.0-4.0-1.11","","<img src=""img/blue-n.png"" border=""10"">","null","trial","32","","0.8,0.2","1:go_a","0",""
"null","","html-keyboard-response","74","246925","0.0-4.0-2.11","","<div style=""font-size:60px;"">+</div>","null","","","","","","",""
"484.46000000694767","","image-keyboard-response","75","247410","0.0-4.0-0.12","","img/pink.png","32","trial","null","false","0.2,0.8","2:nogo_b","",""
"null","","html-keyboard-response","76","248428","0.0-4.0-1.12","","<img src=""img/pink-n.png"" border=""10"">","null","trial","null","","0.2,0.8","2:nogo_b","0",""
"null","","html-keyboard-response","77","249432","0.0-4.0-2.12","","<div style=""font-size:60px;"">+</div>","null","","","","","","",""
"683.7900000391528","","image-keyboard-response","78","250117","0.0-4.0-0.13","","img/blue.png","32","trial","32","true","0.8,0.2","1:go_a","",""
"null","","html-keyboard-response","79","251136","0.0-4.0-1.13","","<img src=""img/blue-n.png"" border=""10"">","null","trial","32","","0.8,0.2","1:go_a","0",""
"null","","html-keyboard-response","80","252149","0.0-4.0-2.13","","<div style=""font-size:60px;"">+</div>","null","","","","","","",""
"null","","image-keyboard-response","81","253661","0.0-4.0-0.14","","img/pink.png","null","trial","null","true","0.2,0.8","2:nogo_b","",""
"null","","html-keyboard-response","82","254670","0.0-4.0-1.14","","<img src=""img/pink-r.png"">","null","trial","null","","0.2,0.8","2:nogo_b","1",""
"null","","html-keyboard-response","83","255672","0.0-4.0-2.14","","<div style=""font-size:60px;"">+</div>","null","","","","","","",""
"null","","image-keyboard-response","84","257180","0.0-4.0-0.15","","img/blue.png","null","trial","32","false","0.8,0.2","1:go_a","",""
"null","","html-keyboard-response","85","258196","0.0-4.0-1.15","","<img src=""img/blue-n.png"">","null","trial","32","","0.8,0.2","1:go_a","0",""
"null","","html-keyboard-response","86","259199","0.0-4.0-2.15","","<div style=""font-size:60px;"">+</div>","null","","","","","","",""
"null","","image-keyboard-response","87","260703","0.0-4.0-0.16","","img/blue.png","null","trial","32","false","0.8,0.2","1:go_a","",""
"null","","html-keyboard-response","88","261709","0.0-4.0-1.16","","<img src=""img/blue-n.png"">","null","trial","32","","0.8,0.2","1:go_a","0",""
"null","","html-keyboard-response","89","262724","0.0-4.0-2.16","","<div style=""font-size:60px;"">+</div>","null","","","","","","",""
"404.3599999858998","","image-keyboard-response","90","263130","0.0-4.0-0.17","","img/pink.png","32","trial","null","false","0.2,0.8","2:nogo_b","",""
"null","","html-keyboard-response","91","264147","0.0-4.0-1.17","","<img src=""img/pink-n.png"" border=""10"">","null","trial","null","","0.2,0.8","2:nogo_b","0",""
"null","","html-keyboard-response","92","265165","0.0-4.0-2.17","","<div style=""font-size:60px;"">+</div>","null","","","","","","",""
"519.7299999999814","","image-keyboard-response","93","265687","0.0-4.0-0.18","","img/blue.png","32","trial","32","true","0.8,0.2","1:go_a","",""
"null","","html-keyboard-response","94","266704","0.0-4.0-1.18","","<img src=""img/blue-r.png"" border=""10"">","null","trial","32","","0.8,0.2","1:go_a","1",""
"null","","html-keyboard-response","95","267707","0.0-4.0-2.18","","<div style=""font-size:60px;"">+</div>","null","","","","","","",""
"null","","image-keyboard-response","96","269227","0.0-4.0-0.19","","img/pink.png","null","trial","null","true","0.2,0.8","2:nogo_b","",""
"null","","html-keyboard-response","97","270246","0.0-4.0-1.19","","<img src=""img/pink-r.png"">","null","trial","null","","0.2,0.8","2:nogo_b","1",""
"null","","html-keyboard-response","98","271257","0.0-4.0-2.19","","<div style=""font-size:60px;"">+</div>","null","","","","","","",""
"493.44499997096136","","image-keyboard-response","99","271752","0.0-4.0-0.20","","img/blue.png","32","trial","32","true","0.8,0.2","1:go_a","",""
"null","","html-keyboard-response","100","272789","0.0-4.0-1.20","","<img src=""img/blue-r.png"" border=""10"">","null","trial","32","","0.8,0.2","1:go_a","1",""
"null","","html-keyboard-response","101","273817","0.0-4.0-2.20","","<div style=""font-size:60px;"">+</div>","null","","","","","","",""
"599.0849999943748","","image-keyboard-response","102","274419","0.0-4.0-0.21","","img/pink.png","32","trial","null","false","0.2,0.8","2:nogo_b","",""
"null","","html-keyboard-response","103","275424","0.0-4.0-1.21","","<img src=""img/pink-n.png"" border=""10"">","null","trial","null","","0.2,0.8","2:nogo_b","0",""
"null","","html-keyboard-response","104","276432","0.0-4.0-2.21","","<div style=""font-size:60px;"">+</div>","null","","","","","","",""
"576.1499999789521","","image-keyboard-response","105","277010","0.0-4.0-0.22","","img/pink.png","32","trial","null","false","0.2,0.8","2:nogo_b","",""
"null","","html-keyboard-response","106","278015","0.0-4.0-1.22","","<img src=""img/pink-n.png"" border=""10"">","null","trial","null","","0.2,0.8","2:nogo_b","0",""
"null","","html-keyboard-response","107","279032","0.0-4.0-2.22","","<div style=""font-size:60px;"">+</div>","null","","","","","","",""
"362.56999999750406","","image-keyboard-response","108","279397","0.0-4.0-0.23","","img/blue.png","32","trial","32","true","0.8,0.2","1:go_a","",""
"null","","html-keyboard-response","109","280415","0.0-4.0-1.23","","<img src=""img/blue-r.png"" border=""10"">","null","trial","32","","0.8,0.2","1:go_a","1",""
"null","","html-keyboard-response","110","281430","0.0-4.0-2.23","","<div style=""font-size:60px;"">+</div>","null","","","","","","",""
"605.8349999948405","","image-keyboard-response","111","282038","0.0-4.0-0.24","","img/blue.png","32","trial","32","true","0.8,0.2","1:go_a","",""
"null","","html-keyboard-response","112","283056","0.0-4.0-1.24","","<img src=""img/blue-r.png"" border=""10"">","null","trial","32","","0.8,0.2","1:go_a","1",""
"null","","html-keyboard-response","113","284059","0.0-4.0-2.24","","<div style=""font-size:60px;"">+</div>","null","","","","","","",""
"null","","image-keyboard-response","114","285576","0.0-4.0-0.25","","img/pink.png","null","trial","null","true","0.2,0.8","2:nogo_b","",""
"null","","html-keyboard-response","115","286592","0.0-4.0-1.25","","<img src=""img/pink-r.png"">","null","trial","null","","0.2,0.8","2:nogo_b","1",""
"null","","html-keyboard-response","116","287601","0.0-4.0-2.25","","<div style=""font-size:60px;"">+</div>","null","","","","","","",""
"752.9949999880046","","image-keyboard-response","117","288364","0.0-4.0-0.26","","img/pink.png","32","trial","null","false","0.2,0.8","2:nogo_b","",""
"null","","html-keyboard-response","118","289381","0.0-4.0-1.26","","<img src=""img/pink-n.png"" border=""10"">","null","trial","null","","0.2,0.8","2:nogo_b","0",""
"null","","html-keyboard-response","119","290399","0.0-4.0-2.26","","<div style=""font-size:60px;"">+</div>","null","","","","","","",""
"541.4149999851361","","image-keyboard-response","120","290944","0.0-4.0-0.27","","img/blue.png","32","trial","32","true","0.8,0.2","1:go_a","",""
"null","","html-keyboard-response","121","291948","0.0-4.0-1.27","","<img src=""img/blue-r.png"" border=""10"">","null","trial","32","","0.8,0.2","1:go_a","1",""
"null","","html-keyboard-response","122","292951","0.0-4.0-2.27","","<div style=""font-size:60px;"">+</div>","null","","","","","","",""
"690.4799999902025","","image-keyboard-response","123","293643","0.0-4.0-0.28","","img/pink.png","32","trial","null","false","0.2,0.8","2:nogo_b","",""
"null","","html-keyboard-response","124","294655","0.0-4.0-1.28","","<img src=""img/pink-n.png"" border=""10"">","null","trial","null","","0.2,0.8","2:nogo_b","0",""
"null","","html-keyboard-response","125","295669","0.0-4.0-2.28","","<div style=""font-size:60px;"">+</div>","null","","","","","","",""
"401.26000001328066","","image-keyboard-response","126","296072","0.0-4.0-0.29","","img/blue.png","32","trial","32","true","0.8,0.2","1:go_a","",""
"null","","html-keyboard-response","127","297085","0.0-4.0-1.29","","<img src=""img/blue-r.png"" border=""10"">","null","trial","32","","0.8,0.2","1:go_a","1",""
"null","","html-keyboard-response","128","298090","0.0-4.0-2.29","","<div style=""font-size:60px;"">+</div>","null","","","","","","",""
"651.6300000366755","","image-keyboard-response","129","298743","0.0-4.0-0.30","","img/blue.png","32","trial","32","true","0.8,0.2","1:go_a","",""
"null","","html-keyboard-response","130","299759","0.0-4.0-1.30","","<img src=""img/blue-r.png"" border=""10"">","null","trial","32","","0.8,0.2","1:go_a","1",""
"null","","html-keyboard-response","131","300771","0.0-4.0-2.30","","<div style=""font-size:60px;"">+</div>","null","","","","","","",""
"null","","image-keyboard-response","132","302282","0.0-4.0-0.31","","img/pink.png","null","trial","null","true","0.2,0.8","2:nogo_b","",""
"null","","html-keyboard-response","133","303300","0.0-4.0-1.31","","<img src=""img/pink-r.png"">","null","trial","null","","0.2,0.8","2:nogo_b","1",""
"null","","html-keyboard-response","134","304302","0.0-4.0-2.31","","<div style=""font-size:60px;"">+</div>","null","","","","","","",""
"null","","image-keyboard-response","135","305818","0.0-4.0-0.32","","img/blue.png","null","trial","32","false","0.8,0.2","1:go_a","",""
"null","","html-keyboard-response","136","306833","0.0-4.0-1.32","","<img src=""img/blue-n.png"">","null","trial","32","","0.8,0.2","1:go_a","0",""
"null","","html-keyboard-response","137","307835","0.0-4.0-2.32","","<div style=""font-size:60px;"">+</div>","null","","","","","","",""
"411.6650000214577","","image-keyboard-response","138","308248","0.0-4.0-0.33","","img/pink.png","32","trial","null","false","0.2,0.8","2:nogo_b","",""
"null","","html-keyboard-response","139","309258","0.0-4.0-1.33","","<img src=""img/pink-n.png"" border=""10"">","null","trial","null","","0.2,0.8","2:nogo_b","0",""
"null","","html-keyboard-response","140","310262","0.0-4.0-2.33","","<div style=""font-size:60px;"">+</div>","null","","","","","","",""
"352.4500000057742","","image-keyboard-response","141","310615","0.0-4.0-0.34","","img/blue.png","32","trial","32","true","0.8,0.2","1:go_a","",""
"null","","html-keyboard-response","142","311652","0.0-4.0-1.34","","<img src=""img/blue-r.png"" border=""10"">","null","trial","32","","0.8,0.2","1:go_a","1",""
"null","","html-keyboard-response","143","312659","0.0-4.0-2.34","","<div style=""font-size:60px;"">+</div>","null","","","","","","",""
"null","","image-keyboard-response","144","314176","0.0-4.0-0.35","","img/pink.png","null","trial","null","true","0.2,0.8","2:nogo_b","",""
"null","","html-keyboard-response","145","315187","0.0-4.0-1.35","","<img src=""img/pink-n.png"">","null","trial","null","","0.2,0.8","2:nogo_b","0",""
"null","","html-keyboard-response","146","316204","0.0-4.0-2.35","","<div style=""font-size:60px;"">+</div>","null","","","","","","",""
"null","","image-keyboard-response","147","317760","0.0-4.0-0.36","","img/pink.png","null","trial","null","true","0.2,0.8","2:nogo_b","",""
"null","","html-keyboard-response","148","318775","0.0-4.0-1.36","","<img src=""img/pink-r.png"">","null","trial","null","","0.2,0.8","2:nogo_b","1",""
"null","","html-keyboard-response","149","319788","0.0-4.0-2.36","","<div style=""font-size:60px;"">+</div>","null","","","","","","",""
"492.33499995898455","","image-keyboard-response","150","320281","0.0-4.0-0.37","","img/blue.png","32","trial","32","true","0.8,0.2","1:go_a","",""
"null","","html-keyboard-response","151","321293","0.0-4.0-1.37","","<img src=""img/blue-r.png"" border=""10"">","null","trial","32","","0.8,0.2","1:go_a","1",""
"null","","html-keyboard-response","152","322311","0.0-4.0-2.37","","<div style=""font-size:60px;"">+</div>","null","","","","","","",""
"672.8949999669567","","image-keyboard-response","153","322985","0.0-4.0-0.38","","img/blue.png","32","trial","32","true","0.8,0.2","1:go_a","",""
"null","","html-keyboard-response","154","324005","0.0-4.0-1.38","","<img src=""img/blue-n.png"" border=""10"">","null","trial","32","","0.8,0.2","1:go_a","0",""
"null","","html-keyboard-response","155","325037","0.0-4.0-2.38","","<div style=""font-size:60px;"">+</div>","null","","","","","","",""
"388.82499997271225","","image-keyboard-response","156","325428","0.0-4.0-0.39","","img/pink.png","32","trial","null","false","0.2,0.8","2:nogo_b","",""
"null","","html-keyboard-response","157","326451","0.0-4.0-1.39","","<img src=""img/pink-n.png"" border=""10"">","null","trial","null","","0.2,0.8","2:nogo_b","0",""
"null","","html-keyboard-response","158","327459","0.0-4.0-2.39","","<div style=""font-size:60px;"">+</div>","null","","","","","","",""
"642.844999965746","","image-keyboard-response","159","328103","0.0-4.0-0.40","","img/pink.png","32","trial","null","false","0.2,0.8","2:nogo_b","",""
"null","","html-keyboard-response","160","329112","0.0-4.0-1.40","","<img src=""img/pink-n.png"" border=""10"">","null","trial","null","","0.2,0.8","2:nogo_b","0",""
"null","","html-keyboard-response","161","330114","0.0-4.0-2.40","","<div style=""font-size:60px;"">+</div>","null","","","","","","",""
"502.53499997779727","","image-keyboard-response","162","330619","0.0-4.0-0.41","","img/blue.png","32","trial","32","true","0.8,0.2","1:go_a","",""
"null","","html-keyboard-response","163","331632","0.0-4.0-1.41","","<img src=""img/blue-n.png"" border=""10"">","null","trial","32","","0.8,0.2","1:go_a","0",""
"null","","html-keyboard-response","164","332657","0.0-4.0-2.41","","<div style=""font-size:60px;"">+</div>","null","","","","","","",""
"638.5550000122748","","image-keyboard-response","165","333297","0.0-4.0-0.42","","img/pink.png","32","trial","null","false","0.2,0.8","2:nogo_b","",""
"null","","html-keyboard-response","166","334301","0.0-4.0-1.42","","<img src=""img/pink-n.png"" border=""10"">","null","trial","null","","0.2,0.8","2:nogo_b","0",""
"null","","html-keyboard-response","167","335306","0.0-4.0-2.42","","<div style=""font-size:60px;"">+</div>","null","","","","","","",""
"559.320000000298","","image-keyboard-response","168","335867","0.0-4.0-0.43","","img/blue.png","32","trial","32","true","0.8,0.2","1:go_a","",""
"null","","html-keyboard-response","169","336872","0.0-4.0-1.43","","<img src=""img/blue-r.png"" border=""10"">","null","trial","32","","0.8,0.2","1:go_a","1",""
"null","","html-keyboard-response","170","337888","0.0-4.0-2.43","","<div style=""font-size:60px;"">+</div>","null","","","","","","",""
"482.2899999562651","","image-keyboard-response","171","338372","0.0-4.0-0.44","","img/blue.png","32","trial","32","true","0.8,0.2","1:go_a","",""
"null","","html-keyboard-response","172","339388","0.0-4.0-1.44","","<img src=""img/blue-r.png"" border=""10"">","null","trial","32","","0.8,0.2","1:go_a","1",""
"null","","html-keyboard-response","173","340393","0.0-4.0-2.44","","<div style=""font-size:60px;"">+</div>","null","","","","","","",""
"null","","image-keyboard-response","174","341905","0.0-4.0-0.45","","img/pink.png","null","trial","null","true","0.2,0.8","2:nogo_b","",""
"null","","html-keyboard-response","175","342926","0.0-4.0-1.45","","<img src=""img/pink-n.png"">","null","trial","null","","0.2,0.8","2:nogo_b","0",""
"null","","html-keyboard-response","176","343930","0.0-4.0-2.45","","<div style=""font-size:60px;"">+</div>","null","","","","","","",""
"null","","image-keyboard-response","177","345438","0.0-4.0-0.46","","img/pink.png","null","trial","null","true","0.2,0.8","2:nogo_b","",""
"null","","html-keyboard-response","178","346443","0.0-4.0-1.46","","<img src=""img/pink-n.png"">","null","trial","null","","0.2,0.8","2:nogo_b","0",""
"null","","html-keyboard-response","179","347453","0.0-4.0-2.46","","<div style=""font-size:60px;"">+</div>","null","","","","","","",""
"419.3749999976717","","image-keyboard-response","180","347873","0.0-4.0-0.47","","img/blue.png","32","trial","32","true","0.8,0.2","1:go_a","",""
"null","","html-keyboard-response","181","348876","0.0-4.0-1.47","","<img src=""img/blue-n.png"" border=""10"">","null","trial","32","","0.8,0.2","1:go_a","0",""
"null","","html-keyboard-response","182","349891","0.0-4.0-2.47","","<div style=""font-size:60px;"">+</div>","null","","","","","","",""
"520.250000001397","","image-keyboard-response","183","350415","0.0-4.0-0.48","","img/blue.png","32","trial","32","true","0.8,0.2","1:go_a","",""
"null","","html-keyboard-response","184","351424","0.0-4.0-1.48","","<img src=""img/blue-r.png"" border=""10"">","null","trial","32","","0.8,0.2","1:go_a","1",""
"null","","html-keyboard-response","185","352427","0.0-4.0-2.48","","<div style=""font-size:60px;"">+</div>","null","","","","","","",""
"880.2150000119582","","image-keyboard-response","186","353308","0.0-4.0-0.49","","img/pink.png","32","trial","null","false","0.2,0.8","2:nogo_b","",""
"null","","html-keyboard-response","187","354313","0.0-4.0-1.49","","<img src=""img/pink-r.png"" border=""10"">","null","trial","null","","0.2,0.8","2:nogo_b","1",""
"null","","html-keyboard-response","188","355319","0.0-4.0-2.49","","<div style=""font-size:60px;"">+</div>","null","","","","","","",""
"882.8450000146404","","image-keyboard-response","189","356204","0.0-4.0-0.50","","img/blue.png","32","trial","32","true","0.8,0.2","1:go_a","",""
"null","","html-keyboard-response","190","357212","0.0-4.0-1.50","","<img src=""img/blue-n.png"" border=""10"">","null","trial","32","","0.8,0.2","1:go_a","0",""
"null","","html-keyboard-response","191","358217","0.0-4.0-2.50","","<div style=""font-size:60px;"">+</div>","null","","","","","","",""
"711.8100000079721","","image-keyboard-response","192","358931","0.0-4.0-0.51","","img/pink.png","32","trial","null","false","0.2,0.8","2:nogo_b","",""
"null","","html-keyboard-response","193","359943","0.0-4.0-1.51","","<img src=""img/pink-n.png"" border=""10"">","null","trial","null","","0.2,0.8","2:nogo_b","0",""
"null","","html-keyboard-response","194","360946","0.0-4.0-2.51","","<div style=""font-size:60px;"">+</div>","null","","","","","","",""
"915.8599999500439","","image-keyboard-response","195","361864","0.0-4.0-0.52","","img/pink.png","32","trial","null","false","0.2,0.8","2:nogo_b","",""
"null","","html-keyboard-response","196","362881","0.0-4.0-1.52","","<img src=""img/pink-n.png"" border=""10"">","null","trial","null","","0.2,0.8","2:nogo_b","0",""
"null","","html-keyboard-response","197","363896","0.0-4.0-2.52","","<div style=""font-size:60px;"">+</div>","null","","","","","","",""
"408.9350000140257","","image-keyboard-response","198","364308","0.0-4.0-0.53","","img/blue.png","32","trial","32","true","0.8,0.2","1:go_a","",""
"null","","html-keyboard-response","199","365318","0.0-4.0-1.53","","<img src=""img/blue-r.png"" border=""10"">","null","trial","32","","0.8,0.2","1:go_a","1",""
"null","","html-keyboard-response","200","366330","0.0-4.0-2.53","","<div style=""font-size:60px;"">+</div>","null","","","","","","",""
"null","","image-keyboard-response","201","367849","0.0-4.0-0.54","","img/pink.png","null","trial","null","true","0.2,0.8","2:nogo_b","",""
"null","","html-keyboard-response","202","368865","0.0-4.0-1.54","","<img src=""img/pink-r.png"">","null","trial","null","","0.2,0.8","2:nogo_b","1",""
"null","","html-keyboard-response","203","369883","0.0-4.0-2.54","","<div style=""font-size:60px;"">+</div>","null","","","","","","",""
"328.81999999517575","","image-keyboard-response","204","370215","0.0-4.0-0.55","","img/blue.png","32","trial","32","true","0.8,0.2","1:go_a","",""
"null","","html-keyboard-response","205","371232","0.0-4.0-1.55","","<img src=""img/blue-r.png"" border=""10"">","null","trial","32","","0.8,0.2","1:go_a","1",""
"null","","html-keyboard-response","206","372248","0.0-4.0-2.55","","<div style=""font-size:60px;"">+</div>","null","","","","","","",""
"495.2550000161864","","image-keyboard-response","207","372745","0.0-4.0-0.56","","img/blue.png","32","trial","32","true","0.8,0.2","1:go_a","",""
"null","","html-keyboard-response","208","373763","0.0-4.0-1.56","","<img src=""img/blue-r.png"" border=""10"">","null","trial","32","","0.8,0.2","1:go_a","1",""
"null","","html-keyboard-response","209","374786","0.0-4.0-2.56","","<div style=""font-size:60px;"">+</div>","null","","","","","","",""
"664.794999989681","","image-keyboard-response","210","375453","0.0-4.0-0.57","","img/pink.png","32","trial","null","false","0.2,0.8","2:nogo_b","",""
"null","","html-keyboard-response","211","376470","0.0-4.0-1.57","","<img src=""img/pink-n.png"" border=""10"">","null","trial","null","","0.2,0.8","2:nogo_b","0",""
"null","","html-keyboard-response","212","377487","0.0-4.0-2.57","","<div style=""font-size:60px;"">+</div>","null","","","","","","",""
"826.5200000023469","","image-keyboard-response","213","378317","0.0-4.0-0.58","","img/pink.png","32","trial","null","false","0.2,0.8","2:nogo_b","",""
"null","","html-keyboard-response","214","379326","0.0-4.0-1.58","","<img src=""img/pink-n.png"" border=""10"">","null","trial","null","","0.2,0.8","2:nogo_b","0",""
"null","","html-keyboard-response","215","380345","0.0-4.0-2.58","","<div style=""font-size:60px;"">+</div>","null","","","","","","",""
"633.289999968838","","image-keyboard-response","216","380980","0.0-4.0-0.59","","img/blue.png","32","trial","32","true","0.8,0.2","1:go_a","",""
"null","","html-keyboard-response","217","381995","0.0-4.0-1.59","","<img src=""img/blue-r.png"" border=""10"">","null","trial","32","","0.8,0.2","1:go_a","1",""
"null","","html-keyboard-response","218","383003","0.0-4.0-2.59","","<div style=""font-size:60px;"">+</div>","null","","","","","","",""
"19419.240000017453","","instructions","219","402423","0.0-5.0","[{""page_index"":0,""viewing_time"":19416.874999995343}]","","","","","","","","",""
"null","","image-keyboard-response","220","403932","0.0-6.0-0.0","","img/grey.png","null","trial","32","false","0.8,0.2","1:go_a","",""
"null","","html-keyboard-response","221","404948","0.0-6.0-1.0","","<img src=""img/grey-n.png"">","null","trial","32","","0.8,0.2","1:go_a","0",""
"null","","html-keyboard-response","222","405951","0.0-6.0-2.0","","<div style=""font-size:60px;"">+</div>","null","","","","","","",""
"null","","image-keyboard-response","223","407454","0.0-6.0-0.1","","img/orange.png","null","trial","null","true","0.2,0.8","4:nogo_d","",""
"null","","html-keyboard-response","224","408477","0.0-6.0-1.1","","<img src=""img/orange-n.png"">","null","trial","null","","0.2,0.8","4:nogo_d","0",""
"null","","html-keyboard-response","225","409486","0.0-6.0-2.1","","<div style=""font-size:60px;"">+</div>","null","","","","","","",""
"948.0099999927916","","image-keyboard-response","226","410435","0.0-6.0-0.2","","img/blue.png","32","trial","null","false","0.2,0.8","2:nogo_b","",""
"null","","html-keyboard-response","227","411447","0.0-6.0-1.2","","<img src=""img/blue-r.png"" border=""10"">","null","trial","null","","0.2,0.8","2:nogo_b","1",""
"null","","html-keyboard-response","228","412456","0.0-6.0-2.2","","<div style=""font-size:60px;"">+</div>","null","","","","","","",""
"681.7750000045635","","image-keyboard-response","229","413143","0.0-6.0-0.3","","img/purple.png","32","trial","32","true","0.8,0.2","3:go_c","",""
"null","","html-keyboard-response","230","414161","0.0-6.0-1.3","","<img src=""img/purple-r.png"" border=""10"">","null","trial","32","","0.8,0.2","3:go_c","1",""
"null","","html-keyboard-response","231","415171","0.0-6.0-2.3","","<div style=""font-size:60px;"">+</div>","null","","","","","","",""
"870.4849999630824","","image-keyboard-response","232","416044","0.0-6.0-0.4","","img/blue.png","32","trial","null","false","0.2,0.8","2:nogo_b","",""
"null","","html-keyboard-response","233","417061","0.0-6.0-1.4","","<img src=""img/blue-n.png"" border=""10"">","null","trial","null","","0.2,0.8","2:nogo_b","0",""
"null","","html-keyboard-response","234","418070","0.0-6.0-2.4","","<div style=""font-size:60px;"">+</div>","null","","","","","","",""
"844.1650000168011","","image-keyboard-response","235","418916","0.0-6.0-0.5","","img/grey.png","32","trial","32","true","0.8,0.2","1:go_a","",""
"null","","html-keyboard-response","236","419936","0.0-6.0-1.5","","<img src=""img/grey-r.png"" border=""10"">","null","trial","32","","0.8,0.2","1:go_a","1",""
"null","","html-keyboard-response","237","420940","0.0-6.0-2.5","","<div style=""font-size:60px;"">+</div>","null","","","","","","",""
"676.4149999944493","","image-keyboard-response","238","421618","0.0-6.0-0.6","","img/purple.png","32","trial","32","true","0.8,0.2","3:go_c","",""
"null","","html-keyboard-response","239","422635","0.0-6.0-1.6","","<img src=""img/purple-r.png"" border=""10"">","null","trial","32","","0.8,0.2","3:go_c","1",""
"null","","html-keyboard-response","240","423649","0.0-6.0-2.6","","<div style=""font-size:60px;"">+</div>","null","","","","","","",""
"758.9499999885447","","image-keyboard-response","241","424409","0.0-6.0-0.7","","img/orange.png","32","trial","null","false","0.2,0.8","4:nogo_d","",""
"null","","html-keyboard-response","242","425418","0.0-6.0-1.7","","<img src=""img/orange-n.png"" border=""10"">","null","trial","null","","0.2,0.8","4:nogo_d","0",""
"null","","html-keyboard-response","243","426434","0.0-6.0-2.7","","<div style=""font-size:60px;"">+</div>","null","","","","","","",""
"null","","image-keyboard-response","244","427946","0.0-6.0-0.8","","img/orange.png","null","trial","null","true","0.2,0.8","4:nogo_d","",""
"null","","html-keyboard-response","245","428960","0.0-6.0-1.8","","<img src=""img/orange-r.png"">","null","trial","null","","0.2,0.8","4:nogo_d","1",""
"null","","html-keyboard-response","246","429975","0.0-6.0-2.8","","<div style=""font-size:60px;"">+</div>","null","","","","","","",""
"756.8699999828823","","image-keyboard-response","247","430734","0.0-6.0-0.9","","img/grey.png","32","trial","32","true","0.8,0.2","1:go_a","",""
"null","","html-keyboard-response","248","431745","0.0-6.0-1.9","","<img src=""img/grey-r.png"" border=""10"">","null","trial","32","","0.8,0.2","1:go_a","1",""
"null","","html-keyboard-response","249","432755","0.0-6.0-2.9","","<div style=""font-size:60px;"">+</div>","null","","","","","","",""
"705.8250000118278","","image-keyboard-response","250","433463","0.0-6.0-0.10","","img/purple.png","32","trial","32","true","0.8,0.2","3:go_c","",""
"null","","html-keyboard-response","251","434472","0.0-6.0-1.10","","<img src=""img/purple-r.png"" border=""10"">","null","trial","32","","0.8,0.2","3:go_c","1",""
"null","","html-keyboard-response","252","435488","0.0-6.0-2.10","","<div style=""font-size:60px;"">+</div>","null","","","","","","",""
"924.9550000531599","","image-keyboard-response","253","436415","0.0-6.0-0.11","","img/blue.png","32","trial","null","false","0.2,0.8","2:nogo_b","",""
"null","","html-keyboard-response","254","437454","0.0-6.0-1.11","","<img src=""img/blue-n.png"" border=""10"">","null","trial","null","","0.2,0.8","2:nogo_b","0",""
"null","","html-keyboard-response","255","438461","0.0-6.0-2.11","","<div style=""font-size:60px;"">+</div>","null","","","","","","",""
"505.89500000933185","","image-keyboard-response","256","438969","0.0-6.0-0.12","","img/orange.png","32","trial","null","false","0.2,0.8","4:nogo_d","",""
"null","","html-keyboard-response","257","439982","0.0-6.0-1.12","","<img src=""img/orange-n.png"" border=""10"">","null","trial","null","","0.2,0.8","4:nogo_d","0",""
"null","","html-keyboard-response","258","440995","0.0-6.0-2.12","","<div style=""font-size:60px;"">+</div>","null","","","","","","",""
"568.5650000232272","","image-keyboard-response","259","441566","0.0-6.0-0.13","","img/blue.png","32","trial","null","false","0.2,0.8","2:nogo_b","",""
"null","","html-keyboard-response","260","442587","0.0-6.0-1.13","","<img src=""img/blue-n.png"" border=""10"">","null","trial","null","","0.2,0.8","2:nogo_b","0",""
"null","","html-keyboard-response","261","443602","0.0-6.0-2.13","","<div style=""font-size:60px;"">+</div>","null","","","","","","",""
"529.2550000012852","","image-keyboard-response","262","444133","0.0-6.0-0.14","","img/purple.png","32","trial","32","true","0.8,0.2","3:go_c","",""
"null","","html-keyboard-response","263","445138","0.0-6.0-1.14","","<img src=""img/purple-r.png"" border=""10"">","null","trial","32","","0.8,0.2","3:go_c","1",""
"null","","html-keyboard-response","264","446148","0.0-6.0-2.14","","<div style=""font-size:60px;"">+</div>","null","","","","","","",""
"1273.9700000383891","","image-keyboard-response","265","447424","0.0-6.0-0.15","","img/grey.png","32","trial","32","true","0.8,0.2","1:go_a","",""
"null","","html-keyboard-response","266","448434","0.0-6.0-1.15","","<img src=""img/grey-r.png"" border=""10"">","null","trial","32","","0.8,0.2","1:go_a","1",""
"null","","html-keyboard-response","267","449442","0.0-6.0-2.15","","<div style=""font-size:60px;"">+</div>","null","","","","","","",""
"null","","image-keyboard-response","268","450944","0.0-6.0-0.16","","img/blue.png","null","trial","null","true","0.2,0.8","2:nogo_b","",""
"null","","html-keyboard-response","269","451970","0.0-6.0-1.16","","<img src=""img/blue-r.png"">","null","trial","null","","0.2,0.8","2:nogo_b","1",""
"null","","html-keyboard-response","270","452998","0.0-6.0-2.16","","<div style=""font-size:60px;"">+</div>","null","","","","","","",""
"574.2500000051223","","image-keyboard-response","271","453574","0.0-6.0-0.17","","img/purple.png","32","trial","32","true","0.8,0.2","3:go_c","",""
"null","","html-keyboard-response","272","454583","0.0-6.0-1.17","","<img src=""img/purple-n.png"" border=""10"">","null","trial","32","","0.8,0.2","3:go_c","0",""
"null","","html-keyboard-response","273","455586","0.0-6.0-2.17","","<div style=""font-size:60px;"">+</div>","null","","","","","","",""
"705.7050000294112","","image-keyboard-response","274","456294","0.0-6.0-0.18","","img/orange.png","32","trial","null","false","0.2,0.8","4:nogo_d","",""
"null","","html-keyboard-response","275","457309","0.0-6.0-1.18","","<img src=""img/orange-n.png"" border=""10"">","null","trial","null","","0.2,0.8","4:nogo_d","0",""
"null","","html-keyboard-response","276","458328","0.0-6.0-2.18","","<div style=""font-size:60px;"">+</div>","null","","","","","","",""
"831.0249999631196","","image-keyboard-response","277","459162","0.0-6.0-0.19","","img/grey.png","32","trial","32","true","0.8,0.2","1:go_a","",""
"null","","html-keyboard-response","278","460179","0.0-6.0-1.19","","<img src=""img/grey-r.png"" border=""10"">","null","trial","32","","0.8,0.2","1:go_a","1",""
"null","","html-keyboard-response","279","461193","0.0-6.0-2.19","","<div style=""font-size:60px;"">+</div>","null","","","","","","",""
"891.2550000241026","","image-keyboard-response","280","462086","0.0-6.0-0.20","","img/blue.png","32","trial","null","false","0.2,0.8","2:nogo_b","",""
"null","","html-keyboard-response","281","463099","0.0-6.0-1.20","","<img src=""img/blue-n.png"" border=""10"">","null","trial","null","","0.2,0.8","2:nogo_b","0",""
"null","","html-keyboard-response","282","464101","0.0-6.0-2.20","","<div style=""font-size:60px;"">+</div>","null","","","","","","",""
"767.4499999848194","","image-keyboard-response","283","464871","0.0-6.0-0.21","","img/grey.png","32","trial","32","true","0.8,0.2","1:go_a","",""
"null","","html-keyboard-response","284","465881","0.0-6.0-1.21","","<img src=""img/grey-r.png"" border=""10"">","null","trial","32","","0.8,0.2","1:go_a","1",""
"null","","html-keyboard-response","285","466891","0.0-6.0-2.21","","<div style=""font-size:60px;"">+</div>","null","","","","","","",""
"887.6449999515899","","image-keyboard-response","286","467781","0.0-6.0-0.22","","img/purple.png","32","trial","32","true","0.8,0.2","3:go_c","",""
"null","","html-keyboard-response","287","468799","0.0-6.0-1.22","","<img src=""img/purple-r.png"" border=""10"">","null","trial","32","","0.8,0.2","3:go_c","1",""
"null","","html-keyboard-response","288","469808","0.0-6.0-2.22","","<div style=""font-size:60px;"">+</div>","null","","","","","","",""
"null","","image-keyboard-response","289","471321","0.0-6.0-0.23","","img/orange.png","null","trial","null","true","0.2,0.8","4:nogo_d","",""
"null","","html-keyboard-response","290","472336","0.0-6.0-1.23","","<img src=""img/orange-r.png"">","null","trial","null","","0.2,0.8","4:nogo_d","1",""
"null","","html-keyboard-response","291","473351","0.0-6.0-2.23","","<div style=""font-size:60px;"">+</div>","null","","","","","","",""
"700.4599999636412","","image-keyboard-response","292","474053","0.0-6.0-0.24","","img/orange.png","32","trial","null","false","0.2,0.8","4:nogo_d","",""
"null","","html-keyboard-response","293","475068","0.0-6.0-1.24","","<img src=""img/orange-n.png"" border=""10"">","null","trial","null","","0.2,0.8","4:nogo_d","0",""
"null","","html-keyboard-response","294","476091","0.0-6.0-2.24","","<div style=""font-size:60px;"">+</div>","null","","","","","","",""
"888.5050000390038","","image-keyboard-response","295","476982","0.0-6.0-0.25","","img/grey.png","32","trial","32","true","0.8,0.2","1:go_a","",""
"null","","html-keyboard-response","296","477994","0.0-6.0-1.25","","<img src=""img/grey-r.png"" border=""10"">","null","trial","32","","0.8,0.2","1:go_a","1",""
"null","","html-keyboard-response","297","479012","0.0-6.0-2.25","","<div style=""font-size:60px;"">+</div>","null","","","","","","",""
"952.1750000421889","","image-keyboard-response","298","479965","0.0-6.0-0.26","","img/blue.png","32","trial","null","false","0.2,0.8","2:nogo_b","",""
"null","","html-keyboard-response","299","480978","0.0-6.0-1.26","","<img src=""img/blue-n.png"" border=""10"">","null","trial","null","","0.2,0.8","2:nogo_b","0",""
"null","","html-keyboard-response","300","481982","0.0-6.0-2.26","","<div style=""font-size:60px;"">+</div>","null","","","","","","",""
"560.0550000090152","","image-keyboard-response","301","482544","0.0-6.0-0.27","","img/purple.png","32","trial","32","true","0.8,0.2","3:go_c","",""
"null","","html-keyboard-response","302","483565","0.0-6.0-1.27","","<img src=""img/purple-n.png"" border=""10"">","null","trial","32","","0.8,0.2","3:go_c","0",""
"null","","html-keyboard-response","303","484583","0.0-6.0-2.27","","<div style=""font-size:60px;"">+</div>","null","","","","","","",""
"null","","image-keyboard-response","304","486098","0.0-6.0-0.28","","img/purple.png","null","trial","32","false","0.8,0.2","3:go_c","",""
"null","","html-keyboard-response","305","487108","0.0-6.0-1.28","","<img src=""img/purple-n.png"">","null","trial","32","","0.8,0.2","3:go_c","0",""
"null","","html-keyboard-response","306","488124","0.0-6.0-2.28","","<div style=""font-size:60px;"">+</div>","null","","","","","","",""
"677.0050000050105","","image-keyboard-response","307","488802","0.0-6.0-0.29","","img/blue.png","32","trial","null","false","0.2,0.8","2:nogo_b","",""
"null","","html-keyboard-response","308","489818","0.0-6.0-1.29","","<img src=""img/blue-r.png"" border=""10"">","null","trial","null","","0.2,0.8","2:nogo_b","1",""
"null","","html-keyboard-response","309","490824","0.0-6.0-2.29","","<div style=""font-size:60px;"">+</div>","null","","","","","","",""
"659.7499999916181","","image-keyboard-response","310","491485","0.0-6.0-0.30","","img/grey.png","32","trial","32","true","0.8,0.2","1:go_a","",""
"null","","html-keyboard-response","311","492501","0.0-6.0-1.30","","<img src=""img/grey-r.png"" border=""10"">","null","trial","32","","0.8,0.2","1:go_a","1",""
"null","","html-keyboard-response","312","493513","0.0-6.0-2.30","","<div style=""font-size:60px;"">+</div>","null","","","","","","",""
"null","","image-keyboard-response","313","495028","0.0-6.0-0.31","","img/orange.png","null","trial","null","true","0.2,0.8","4:nogo_d","",""
"null","","html-keyboard-response","314","496044","0.0-6.0-1.31","","<img src=""img/orange-n.png"">","null","trial","null","","0.2,0.8","4:nogo_d","0",""
"null","","html-keyboard-response","315","497055","0.0-6.0-2.31","","<div style=""font-size:60px;"">+</div>","null","","","","","","",""
"635.1600000052713","","image-keyboard-response","316","497684","0.0-6.0-0.32","","img/grey.png","32","trial","32","true","0.8,0.2","1:go_a","",""
"null","","html-keyboard-response","317","498688","0.0-6.0-1.32","","<img src=""img/grey-r.png"" border=""10"">","null","trial","32","","0.8,0.2","1:go_a","1",""
"null","","html-keyboard-response","318","499699","0.0-6.0-2.32","","<div style=""font-size:60px;"">+</div>","null","","","","","","",""
"801.1249999981374","","image-keyboard-response","319","500502","0.0-6.0-0.33","","img/purple.png","32","trial","32","true","0.8,0.2","3:go_c","",""
"null","","html-keyboard-response","320","501537","0.0-6.0-1.33","","<img src=""img/purple-r.png"" border=""10"">","null","trial","32","","0.8,0.2","3:go_c","1",""
"null","","html-keyboard-response","321","502553","0.0-6.0-2.33","","<div style=""font-size:60px;"">+</div>","null","","","","","","",""
"911.8899999884889","","image-keyboard-response","322","503467","0.0-6.0-0.34","","img/blue.png","32","trial","null","false","0.2,0.8","2:nogo_b","",""
"null","","html-keyboard-response","323","504478","0.0-6.0-1.34","","<img src=""img/blue-n.png"" border=""10"">","null","trial","null","","0.2,0.8","2:nogo_b","0",""
"null","","html-keyboard-response","324","505490","0.0-6.0-2.34","","<div style=""font-size:60px;"">+</div>","null","","","","","","",""
"null","","image-keyboard-response","325","507010","0.0-6.0-0.35","","img/orange.png","null","trial","null","true","0.2,0.8","4:nogo_d","",""
"null","","html-keyboard-response","326","508017","0.0-6.0-1.35","","<img src=""img/orange-r.png"">","null","trial","null","","0.2,0.8","4:nogo_d","1",""
"null","","html-keyboard-response","327","509032","0.0-6.0-2.35","","<div style=""font-size:60px;"">+</div>","null","","","","","","",""
"712.6250000437722","","image-keyboard-response","328","509746","0.0-6.0-0.36","","img/orange.png","32","trial","null","false","0.2,0.8","4:nogo_d","",""
"null","","html-keyboard-response","329","510757","0.0-6.0-1.36","","<img src=""img/orange-n.png"" border=""10"">","null","trial","null","","0.2,0.8","4:nogo_d","0",""
"null","","html-keyboard-response","330","511770","0.0-6.0-2.36","","<div style=""font-size:60px;"">+</div>","null","","","","","","",""
"695.4750000149943","","image-keyboard-response","331","512468","0.0-6.0-0.37","","img/blue.png","32","trial","null","false","0.2,0.8","2:nogo_b","",""
"null","","html-keyboard-response","332","513485","0.0-6.0-1.37","","<img src=""img/blue-n.png"" border=""10"">","null","trial","null","","0.2,0.8","2:nogo_b","0",""
"null","","html-keyboard-response","333","514516","0.0-6.0-2.37","","<div style=""font-size:60px;"">+</div>","null","","","","","","",""
"530.9849999612197","","image-keyboard-response","334","515049","0.0-6.0-0.38","","img/purple.png","32","trial","32","true","0.8,0.2","3:go_c","",""
"null","","html-keyboard-response","335","516059","0.0-6.0-1.38","","<img src=""img/purple-r.png"" border=""10"">","null","trial","32","","0.8,0.2","3:go_c","1",""
"null","","html-keyboard-response","336","517076","0.0-6.0-2.38","","<div style=""font-size:60px;"">+</div>","null","","","","","","",""
"611.9399999734014","","image-keyboard-response","337","517690","0.0-6.0-0.39","","img/grey.png","32","trial","32","true","0.8,0.2","1:go_a","",""
"null","","html-keyboard-response","338","518699","0.0-6.0-1.39","","<img src=""img/grey-r.png"" border=""10"">","null","trial","32","","0.8,0.2","1:go_a","1",""
"null","","html-keyboard-response","339","519700","0.0-6.0-2.39","","<div style=""font-size:60px;"">+</div>","null","","","","","","",""
"690.0150000001304","","image-keyboard-response","340","520391","0.0-6.0-0.40","","img/grey.png","32","trial","32","true","0.8,0.2","1:go_a","",""
"null","","html-keyboard-response","341","521412","0.0-6.0-1.40","","<img src=""img/grey-r.png"" border=""10"">","null","trial","32","","0.8,0.2","1:go_a","1",""
"null","","html-keyboard-response","342","522428","0.0-6.0-2.40","","<div style=""font-size:60px;"">+</div>","null","","","","","","",""
"1152.6100000482984","","image-keyboard-response","343","523582","0.0-6.0-0.41","","img/orange.png","32","trial","null","false","0.2,0.8","4:nogo_d","",""
"null","","html-keyboard-response","344","524597","0.0-6.0-1.41","","<img src=""img/orange-n.png"" border=""10"">","null","trial","null","","0.2,0.8","4:nogo_d","0",""
"null","","html-keyboard-response","345","525623","0.0-6.0-2.41","","<div style=""font-size:60px;"">+</div>","null","","","","","","",""
"1055.4899999988265","","image-keyboard-response","346","526681","0.0-6.0-0.42","","img/blue.png","32","trial","null","false","0.2,0.8","2:nogo_b","",""
"null","","html-keyboard-response","347","527698","0.0-6.0-1.42","","<img src=""img/blue-n.png"" border=""10"">","null","trial","null","","0.2,0.8","2:nogo_b","0",""
"null","","html-keyboard-response","348","528714","0.0-6.0-2.42","","<div style=""font-size:60px;"">+</div>","null","","","","","","",""
"627.1800000104122","","image-keyboard-response","349","529344","0.0-6.0-0.43","","img/purple.png","32","trial","32","true","0.8,0.2","3:go_c","",""
"null","","html-keyboard-response","350","530354","0.0-6.0-1.43","","<img src=""img/purple-n.png"" border=""10"">","null","trial","32","","0.8,0.2","3:go_c","0",""
"null","","html-keyboard-response","351","531374","0.0-6.0-2.43","","<div style=""font-size:60px;"">+</div>","null","","","","","","",""
"653.3749999944121","","image-keyboard-response","352","532030","0.0-6.0-0.44","","img/grey.png","32","trial","32","true","0.8,0.2","1:go_a","",""
"null","","html-keyboard-response","353","533047","0.0-6.0-1.44","","<img src=""img/grey-r.png"" border=""10"">","null","trial","32","","0.8,0.2","1:go_a","1",""
"null","","html-keyboard-response","354","534069","0.0-6.0-2.44","","<div style=""font-size:60px;"">+</div>","null","","","","","","",""
"null","","image-keyboard-response","355","535589","0.0-6.0-0.45","","img/blue.png","null","trial","null","true","0.2,0.8","2:nogo_b","",""
"null","","html-keyboard-response","356","536605","0.0-6.0-1.45","","<img src=""img/blue-r.png"">","null","trial","null","","0.2,0.8","2:nogo_b","1",""
"null","","html-keyboard-response","357","537606","0.0-6.0-2.45","","<div style=""font-size:60px;"">+</div>","null","","","","","","",""
"889.4800000125542","","image-keyboard-response","358","538497","0.0-6.0-0.46","","img/orange.png","32","trial","null","false","0.2,0.8","4:nogo_d","",""
"null","","html-keyboard-response","359","539513","0.0-6.0-1.46","","<img src=""img/orange-r.png"" border=""10"">","null","trial","null","","0.2,0.8","4:nogo_d","1",""
"null","","html-keyboard-response","360","540531","0.0-6.0-2.46","","<div style=""font-size:60px;"">+</div>","null","","","","","","",""
"621.1449999827892","","image-keyboard-response","361","541153","0.0-6.0-0.47","","img/purple.png","32","trial","32","true","0.8,0.2","3:go_c","",""
"null","","html-keyboard-response","362","542168","0.0-6.0-1.47","","<img src=""img/purple-n.png"" border=""10"">","null","trial","32","","0.8,0.2","3:go_c","0",""
"null","","html-keyboard-response","363","543183","0.0-6.0-2.47","","<div style=""font-size:60px;"">+</div>","null","","","","","","",""
"696.9699999899603","","image-keyboard-response","364","543881","0.0-6.0-0.48","","img/orange.png","32","trial","null","false","0.2,0.8","4:nogo_d","",""
"null","","html-keyboard-response","365","544889","0.0-6.0-1.48","","<img src=""img/orange-n.png"" border=""10"">","null","trial","null","","0.2,0.8","4:nogo_d","0",""
"null","","html-keyboard-response","366","545893","0.0-6.0-2.48","","<div style=""font-size:60px;"">+</div>","null","","","","","","",""
"598.2250000233762","","image-keyboard-response","367","546493","0.0-6.0-0.49","","img/purple.png","32","trial","32","true","0.8,0.2","3:go_c","",""
"null","","html-keyboard-response","368","547508","0.0-6.0-1.49","","<img src=""img/purple-r.png"" border=""10"">","null","trial","32","","0.8,0.2","3:go_c","1",""
"null","","html-keyboard-response","369","548514","0.0-6.0-2.49","","<div style=""font-size:60px;"">+</div>","null","","","","","","",""
"745.5900000059046","","image-keyboard-response","370","549261","0.0-6.0-0.50","","img/blue.png","32","trial","null","false","0.2,0.8","2:nogo_b","",""
"null","","html-keyboard-response","371","550276","0.0-6.0-1.50","","<img src=""img/blue-n.png"" border=""10"">","null","trial","null","","0.2,0.8","2:nogo_b","0",""
"null","","html-keyboard-response","372","551292","0.0-6.0-2.50","","<div style=""font-size:60px;"">+</div>","null","","","","","","",""
"548.1249999720603","","image-keyboard-response","373","551842","0.0-6.0-0.51","","img/grey.png","32","trial","32","true","0.8,0.2","1:go_a","",""
"null","","html-keyboard-response","374","552857","0.0-6.0-1.51","","<img src=""img/grey-r.png"" border=""10"">","null","trial","32","","0.8,0.2","1:go_a","1",""
"null","","html-keyboard-response","375","553859","0.0-6.0-2.51","","<div style=""font-size:60px;"">+</div>","null","","","","","","",""
"null","","image-keyboard-response","376","555367","0.0-6.0-0.52","","img/blue.png","null","trial","null","true","0.2,0.8","2:nogo_b","",""
"null","","html-keyboard-response","377","556380","0.0-6.0-1.52","","<img src=""img/blue-r.png"">","null","trial","null","","0.2,0.8","2:nogo_b","1",""
"null","","html-keyboard-response","378","557389","0.0-6.0-2.52","","<div style=""font-size:60px;"">+</div>","null","","","","","","",""
"719.1149999853224","","image-keyboard-response","379","558116","0.0-6.0-0.53","","img/orange.png","32","trial","null","false","0.2,0.8","4:nogo_d","",""
"null","","html-keyboard-response","380","559130","0.0-6.0-1.53","","<img src=""img/orange-n.png"" border=""10"">","null","trial","null","","0.2,0.8","4:nogo_d","0",""
"null","","html-keyboard-response","381","560144","0.0-6.0-2.53","","<div style=""font-size:60px;"">+</div>","null","","","","","","",""
"569.8499999707565","","image-keyboard-response","382","560715","0.0-6.0-0.54","","img/purple.png","32","trial","32","true","0.8,0.2","3:go_c","",""
"null","","html-keyboard-response","383","561725","0.0-6.0-1.54","","<img src=""img/purple-r.png"" border=""10"">","null","trial","32","","0.8,0.2","3:go_c","1",""
"null","","html-keyboard-response","384","562750","0.0-6.0-2.54","","<div style=""font-size:60px;"">+</div>","null","","","","","","",""
"634.9449999979697","","image-keyboard-response","385","563388","0.0-6.0-0.55","","img/grey.png","32","trial","32","true","0.8,0.2","1:go_a","",""
"null","","html-keyboard-response","386","564408","0.0-6.0-1.55","","<img src=""img/grey-r.png"" border=""10"">","null","trial","32","","0.8,0.2","1:go_a","1",""
"null","","html-keyboard-response","387","565419","0.0-6.0-2.55","","<div style=""font-size:60px;"">+</div>","null","","","","","","",""
"null","","image-keyboard-response","388","566931","0.0-6.0-0.56","","img/blue.png","null","trial","null","true","0.2,0.8","2:nogo_b","",""
"null","","html-keyboard-response","389","567940","0.0-6.0-1.56","","<img src=""img/blue-n.png"">","null","trial","null","","0.2,0.8","2:nogo_b","0",""
"null","","html-keyboard-response","390","568957","0.0-6.0-2.56","","<div style=""font-size:60px;"">+</div>","null","","","","","","",""
"720.9900000016205","","image-keyboard-response","391","569687","0.0-6.0-0.57","","img/orange.png","32","trial","null","false","0.2,0.8","4:nogo_d","",""
"null","","html-keyboard-response","392","570692","0.0-6.0-1.57","","<img src=""img/orange-n.png"" border=""10"">","null","trial","null","","0.2,0.8","4:nogo_d","0",""
"null","","html-keyboard-response","393","571709","0.0-6.0-2.57","","<div style=""font-size:60px;"">+</div>","null","","","","","","",""
"479.1599999880418","","image-keyboard-response","394","572191","0.0-6.0-0.58","","img/purple.png","32","trial","32","true","0.8,0.2","3:go_c","",""
"null","","html-keyboard-response","395","573211","0.0-6.0-1.58","","<img src=""img/purple-r.png"" border=""10"">","null","trial","32","","0.8,0.2","3:go_c","1",""
"null","","html-keyboard-response","396","574228","0.0-6.0-2.58","","<div style=""font-size:60px;"">+</div>","null","","","","","","",""
"671.42500000773","","image-keyboard-response","397","574902","0.0-6.0-0.59","","img/grey.png","32","trial","32","true","0.8,0.2","1:go_a","",""
"null","","html-keyboard-response","398","575908","0.0-6.0-1.59","","<img src=""img/grey-r.png"" border=""10"">","null","trial","32","","0.8,0.2","1:go_a","1",""
"null","","html-keyboard-response","399","576914","0.0-6.0-2.59","","<div style=""font-size:60px;"">+</div>","null","","","","","","",""
"747.9799999855459","","image-keyboard-response","400","577666","0.0-6.0-0.60","","img/purple.png","32","trial","32","true","0.8,0.2","3:go_c","",""
"null","","html-keyboard-response","401","578674","0.0-6.0-1.60","","<img src=""img/purple-r.png"" border=""10"">","null","trial","32","","0.8,0.2","3:go_c","1",""
"null","","html-keyboard-response","402","579693","0.0-6.0-2.60","","<div style=""font-size:60px;"">+</div>","null","","","","","","",""
"null","","image-keyboard-response","403","581207","0.0-6.0-0.61","","img/blue.png","null","trial","null","true","0.2,0.8","2:nogo_b","",""
"null","","html-keyboard-response","404","582233","0.0-6.0-1.61","","<img src=""img/blue-r.png"">","null","trial","null","","0.2,0.8","2:nogo_b","1",""
"null","","html-keyboard-response","405","583249","0.0-6.0-2.61","","<div style=""font-size:60px;"">+</div>","null","","","","","","",""
"592.0649999752641","","image-keyboard-response","406","583842","0.0-6.0-0.62","","img/grey.png","32","trial","32","true","0.8,0.2","1:go_a","",""
"null","","html-keyboard-response","407","584857","0.0-6.0-1.62","","<img src=""img/grey-r.png"" border=""10"">","null","trial","32","","0.8,0.2","1:go_a","1",""
"null","","html-keyboard-response","408","585874","0.0-6.0-2.62","","<div style=""font-size:60px;"">+</div>","null","","","","","","",""
"null","","image-keyboard-response","409","587388","0.0-6.0-0.63","","img/orange.png","null","trial","null","true","0.2,0.8","4:nogo_d","",""
"null","","html-keyboard-response","410","588426","0.0-6.0-1.63","","<img src=""img/orange-r.png"">","null","trial","null","","0.2,0.8","4:nogo_d","1",""
"null","","html-keyboard-response","411","589462","0.0-6.0-2.63","","<div style=""font-size:60px;"">+</div>","null","","","","","","",""
"556.0949999489821","","image-keyboard-response","412","590019","0.0-6.0-0.64","","img/grey.png","32","trial","32","true","0.8,0.2","1:go_a","",""
"null","","html-keyboard-response","413","591024","0.0-6.0-1.64","","<img src=""img/grey-r.png"" border=""10"">","null","trial","32","","0.8,0.2","1:go_a","1",""
"null","","html-keyboard-response","414","592026","0.0-6.0-2.64","","<div style=""font-size:60px;"">+</div>","null","","","","","","",""
"822.9000000283122","","image-keyboard-response","415","592850","0.0-6.0-0.65","","img/blue.png","32","trial","null","false","0.2,0.8","2:nogo_b","",""
"null","","html-keyboard-response","416","593859","0.0-6.0-1.65","","<img src=""img/blue-n.png"" border=""10"">","null","trial","null","","0.2,0.8","2:nogo_b","0",""
"null","","html-keyboard-response","417","594863","0.0-6.0-2.65","","<div style=""font-size:60px;"">+</div>","null","","","","","","",""
"468.5600000084378","","image-keyboard-response","418","595333","0.0-6.0-0.66","","img/purple.png","32","trial","32","true","0.8,0.2","3:go_c","",""
"null","","html-keyboard-response","419","596353","0.0-6.0-1.66","","<img src=""img/purple-r.png"" border=""10"">","null","trial","32","","0.8,0.2","3:go_c","1",""
"null","","html-keyboard-response","420","597365","0.0-6.0-2.66","","<div style=""font-size:60px;"">+</div>","null","","","","","","",""
"685.4499999899417","","image-keyboard-response","421","598051","0.0-6.0-0.67","","img/orange.png","32","trial","null","false","0.2,0.8","4:nogo_d","",""
"null","","html-keyboard-response","422","599064","0.0-6.0-1.67","","<img src=""img/orange-n.png"" border=""10"">","null","trial","null","","0.2,0.8","4:nogo_d","0",""
"null","","html-keyboard-response","423","600066","0.0-6.0-2.67","","<div style=""font-size:60px;"">+</div>","null","","","","","","",""
"502.7199999894947","","image-keyboard-response","424","600570","0.0-6.0-0.68","","img/blue.png","32","trial","null","false","0.2,0.8","2:nogo_b","",""
"null","","html-keyboard-response","425","601589","0.0-6.0-1.68","","<img src=""img/blue-n.png"" border=""10"">","null","trial","null","","0.2,0.8","2:nogo_b","0",""
"null","","html-keyboard-response","426","602610","0.0-6.0-2.68","","<div style=""font-size:60px;"">+</div>","null","","","","","","",""
"545.7450000103563","","image-keyboard-response","427","603157","0.0-6.0-0.69","","img/grey.png","32","trial","32","true","0.8,0.2","1:go_a","",""
"null","","html-keyboard-response","428","604172","0.0-6.0-1.69","","<img src=""img/grey-r.png"" border=""10"">","null","trial","32","","0.8,0.2","1:go_a","1",""
"null","","html-keyboard-response","429","605189","0.0-6.0-2.69","","<div style=""font-size:60px;"">+</div>","null","","","","","","",""
"753.5499999648891","","image-keyboard-response","430","605944","0.0-6.0-0.70","","img/orange.png","32","trial","null","false","0.2,0.8","4:nogo_d","",""
"null","","html-keyboard-response","431","606961","0.0-6.0-1.70","","<img src=""img/orange-r.png"" border=""10"">","null","trial","null","","0.2,0.8","4:nogo_d","1",""
"null","","html-keyboard-response","432","607974","0.0-6.0-2.70","","<div style=""font-size:60px;"">+</div>","null","","","","","","",""
"null","","image-keyboard-response","433","609501","0.0-6.0-0.71","","img/purple.png","null","trial","32","false","0.8,0.2","3:go_c","",""
"null","","html-keyboard-response","434","610520","0.0-6.0-1.71","","<img src=""img/purple-r.png"">","null","trial","32","","0.8,0.2","3:go_c","1",""
"null","","html-keyboard-response","435","611537","0.0-6.0-2.71","","<div style=""font-size:60px;"">+</div>","null","","","","","","",""
"580.7849999982864","","image-keyboard-response","436","612123","0.0-6.0-0.72","","img/purple.png","32","trial","32","true","0.8,0.2","3:go_c","",""
"null","","html-keyboard-response","437","613135","0.0-6.0-1.72","","<img src=""img/purple-r.png"" border=""10"">","null","trial","32","","0.8,0.2","3:go_c","1",""
"null","","html-keyboard-response","438","614143","0.0-6.0-2.72","","<div style=""font-size:60px;"">+</div>","null","","","","","","",""
"592.2349999891594","","image-keyboard-response","439","614738","0.0-6.0-0.73","","img/grey.png","32","trial","32","true","0.8,0.2","1:go_a","",""
"null","","html-keyboard-response","440","615745","0.0-6.0-1.73","","<img src=""img/grey-r.png"" border=""10"">","null","trial","32","","0.8,0.2","1:go_a","1",""
"null","","html-keyboard-response","441","616758","0.0-6.0-2.73","","<div style=""font-size:60px;"">+</div>","null","","","","","","",""
"734.9549999926239","","image-keyboard-response","442","617495","0.0-6.0-0.74","","img/orange.png","32","trial","null","false","0.2,0.8","4:nogo_d","",""
"null","","html-keyboard-response","443","618508","0.0-6.0-1.74","","<img src=""img/orange-n.png"" border=""10"">","null","trial","null","","0.2,0.8","4:nogo_d","0",""
"null","","html-keyboard-response","444","619511","0.0-6.0-2.74","","<div style=""font-size:60px;"">+</div>","null","","","","","","",""
"868.9849999500439","","image-keyboard-response","445","620382","0.0-6.0-0.75","","img/blue.png","32","trial","null","false","0.2,0.8","2:nogo_b","",""
"null","","html-keyboard-response","446","621394","0.0-6.0-1.75","","<img src=""img/blue-n.png"" border=""10"">","null","trial","null","","0.2,0.8","2:nogo_b","0",""
"null","","html-keyboard-response","447","622403","0.0-6.0-2.75","","<div style=""font-size:60px;"">+</div>","null","","","","","","",""
"671.4000000501983","","image-keyboard-response","448","623077","0.0-6.0-0.76","","img/orange.png","32","trial","null","false","0.2,0.8","4:nogo_d","",""
"null","","html-keyboard-response","449","624084","0.0-6.0-1.76","","<img src=""img/orange-n.png"" border=""10"">","null","trial","null","","0.2,0.8","4:nogo_d","0",""
"null","","html-keyboard-response","450","625107","0.0-6.0-2.76","","<div style=""font-size:60px;"">+</div>","null","","","","","","",""
"575.1350000500679","","image-keyboard-response","451","625684","0.0-6.0-0.77","","img/grey.png","32","trial","32","true","0.8,0.2","1:go_a","",""
"null","","html-keyboard-response","452","626696","0.0-6.0-1.77","","<img src=""img/grey-r.png"" border=""10"">","null","trial","32","","0.8,0.2","1:go_a","1",""
"null","","html-keyboard-response","453","627701","0.0-6.0-2.77","","<div style=""font-size:60px;"">+</div>","null","","","","","","",""
"832.1149999974295","","image-keyboard-response","454","628535","0.0-6.0-0.78","","img/blue.png","32","trial","null","false","0.2,0.8","2:nogo_b","",""
"null","","html-keyboard-response","455","629559","0.0-6.0-1.78","","<img src=""img/blue-r.png"" border=""10"">","null","trial","null","","0.2,0.8","2:nogo_b","1",""
"null","","html-keyboard-response","456","630562","0.0-6.0-2.78","","<div style=""font-size:60px;"">+</div>","null","","","","","","",""
"613.1349999923259","","image-keyboard-response","457","631177","0.0-6.0-0.79","","img/purple.png","32","trial","32","true","0.8,0.2","3:go_c","",""
"null","","html-keyboard-response","458","632181","0.0-6.0-1.79","","<img src=""img/purple-r.png"" border=""10"">","null","trial","32","","0.8,0.2","3:go_c","1",""
"null","","html-keyboard-response","459","633184","0.0-6.0-2.79","","<div style=""font-size:60px;"">+</div>","null","","","","","","",""
"504.7300000442192","","image-keyboard-response","460","633691","0.0-6.0-0.80","","img/grey.png","32","trial","32","true","0.8,0.2","1:go_a","",""
"null","","html-keyboard-response","461","634709","0.0-6.0-1.80","","<img src=""img/grey-r.png"" border=""10"">","null","trial","32","","0.8,0.2","1:go_a","1",""
"null","","html-keyboard-response","462","635726","0.0-6.0-2.80","","<div style=""font-size:60px;"">+</div>","null","","","","","","",""
"602.2299999604002","","image-keyboard-response","463","636331","0.0-6.0-0.81","","img/purple.png","32","trial","32","true","0.8,0.2","3:go_c","",""
"null","","html-keyboard-response","464","637337","0.0-6.0-1.81","","<img src=""img/purple-r.png"" border=""10"">","null","trial","32","","0.8,0.2","3:go_c","1",""
"null","","html-keyboard-response","465","638351","0.0-6.0-2.81","","<div style=""font-size:60px;"">+</div>","null","","","","","","",""
"885.965000023134","","image-keyboard-response","466","639239","0.0-6.0-0.82","","img/orange.png","32","trial","null","false","0.2,0.8","4:nogo_d","",""
"null","","html-keyboard-response","467","640246","0.0-6.0-1.82","","<img src=""img/orange-r.png"" border=""10"">","null","trial","null","","0.2,0.8","4:nogo_d","1",""
"null","","html-keyboard-response","468","641262","0.0-6.0-2.82","","<div style=""font-size:60px;"">+</div>","null","","","","","","",""
"744.330000015907","","image-keyboard-response","469","642008","0.0-6.0-0.83","","img/blue.png","32","trial","null","false","0.2,0.8","2:nogo_b","",""
"null","","html-keyboard-response","470","643014","0.0-6.0-1.83","","<img src=""img/blue-r.png"" border=""10"">","null","trial","null","","0.2,0.8","2:nogo_b","1",""
"null","","html-keyboard-response","471","644016","0.0-6.0-2.83","","<div style=""font-size:60px;"">+</div>","null","","","","","","",""
"595.2599999727681","","image-keyboard-response","472","644612","0.0-6.0-0.84","","img/grey.png","32","trial","32","true","0.8,0.2","1:go_a","",""
"null","","html-keyboard-response","473","645619","0.0-6.0-1.84","","<img src=""img/grey-r.png"" border=""10"">","null","trial","32","","0.8,0.2","1:go_a","1",""
"null","","html-keyboard-response","474","646629","0.0-6.0-2.84","","<div style=""font-size:60px;"">+</div>","null","","","","","","",""
"481.51000001234934","","image-keyboard-response","475","647112","0.0-6.0-0.85","","img/orange.png","32","trial","null","false","0.2,0.8","4:nogo_d","",""
"null","","html-keyboard-response","476","648124","0.0-6.0-1.85","","<img src=""img/orange-n.png"" border=""10"">","null","trial","null","","0.2,0.8","4:nogo_d","0",""
"null","","html-keyboard-response","477","649128","0.0-6.0-2.85","","<div style=""font-size:60px;"">+</div>","null","","","","","","",""
"640.9349999739788","","image-keyboard-response","478","649771","0.0-6.0-0.86","","img/purple.png","32","trial","32","true","0.8,0.2","3:go_c","",""
"null","","html-keyboard-response","479","650775","0.0-6.0-1.86","","<img src=""img/purple-r.png"" border=""10"">","null","trial","32","","0.8,0.2","3:go_c","1",""
"null","","html-keyboard-response","480","651801","0.0-6.0-2.86","","<div style=""font-size:60px;"">+</div>","null","","","","","","",""
"732.3150000302121","","image-keyboard-response","481","652536","0.0-6.0-0.87","","img/blue.png","32","trial","null","false","0.2,0.8","2:nogo_b","",""
"null","","html-keyboard-response","482","653545","0.0-6.0-1.87","","<img src=""img/blue-r.png"" border=""10"">","null","trial","null","","0.2,0.8","2:nogo_b","1",""
"null","","html-keyboard-response","483","654577","0.0-6.0-2.87","","<div style=""font-size:60px;"">+</div>","null","","","","","","",""
"587.1150000020862","","image-keyboard-response","484","655165","0.0-6.0-0.88","","img/orange.png","32","trial","null","false","0.2,0.8","4:nogo_d","",""
"null","","html-keyboard-response","485","656180","0.0-6.0-1.88","","<img src=""img/orange-r.png"" border=""10"">","null","trial","null","","0.2,0.8","4:nogo_d","1",""
"null","","html-keyboard-response","486","657193","0.0-6.0-2.88","","<div style=""font-size:60px;"">+</div>","null","","","","","","",""
"583.5249999654479","","image-keyboard-response","487","657779","0.0-6.0-0.89","","img/grey.png","32","trial","32","true","0.8,0.2","1:go_a","",""
"null","","html-keyboard-response","488","658785","0.0-6.0-1.89","","<img src=""img/grey-n.png"" border=""10"">","null","trial","32","","0.8,0.2","1:go_a","0",""
"null","","html-keyboard-response","489","659788","0.0-6.0-2.89","","<div style=""font-size:60px;"">+</div>","null","","","","","","",""
"570.0549999601208","","image-keyboard-response","490","660360","0.0-6.0-0.90","","img/purple.png","32","trial","32","true","0.8,0.2","3:go_c","",""
"null","","html-keyboard-response","491","661378","0.0-6.0-1.90","","<img src=""img/purple-r.png"" border=""10"">","null","trial","32","","0.8,0.2","3:go_c","1",""
"null","","html-keyboard-response","492","662392","0.0-6.0-2.90","","<div style=""font-size:60px;"">+</div>","null","","","","","","",""
"null","","image-keyboard-response","493","663916","0.0-6.0-0.91","","img/blue.png","null","trial","null","true","0.2,0.8","2:nogo_b","",""
"null","","html-keyboard-response","494","664933","0.0-6.0-1.91","","<img src=""img/blue-r.png"">","null","trial","null","","0.2,0.8","2:nogo_b","1",""
"null","","html-keyboard-response","495","665950","0.0-6.0-2.91","","<div style=""font-size:60px;"">+</div>","null","","","","","","",""
"664.4749999977648","","image-keyboard-response","496","666617","0.0-6.0-0.92","","img/orange.png","32","trial","null","false","0.2,0.8","4:nogo_d","",""
"null","","html-keyboard-response","497","667632","0.0-6.0-1.92","","<img src=""img/orange-n.png"" border=""10"">","null","trial","null","","0.2,0.8","4:nogo_d","0",""
"null","","html-keyboard-response","498","668640","0.0-6.0-2.92","","<div style=""font-size:60px;"">+</div>","null","","","","","","",""
"703.0599999707192","","image-keyboard-response","499","669344","0.0-6.0-0.93","","img/grey.png","32","trial","32","true","0.8,0.2","1:go_a","",""
"null","","html-keyboard-response","500","670350","0.0-6.0-1.93","","<img src=""img/grey-r.png"" border=""10"">","null","trial","32","","0.8,0.2","1:go_a","1",""
"null","","html-keyboard-response","501","671368","0.0-6.0-2.93","","<div style=""font-size:60px;"">+</div>","null","","","","","","",""
"843.1449999916367","","image-keyboard-response","502","672213","0.0-6.0-0.94","","img/blue.png","32","trial","null","false","0.2,0.8","2:nogo_b","",""
"null","","html-keyboard-response","503","673227","0.0-6.0-1.94","","<img src=""img/blue-n.png"" border=""10"">","null","trial","null","","0.2,0.8","2:nogo_b","0",""
"null","","html-keyboard-response","504","674260","0.0-6.0-2.94","","<div style=""font-size:60px;"">+</div>","null","","","","","","",""
"518.7000000150874","","image-keyboard-response","505","674780","0.0-6.0-0.95","","img/purple.png","32","trial","32","true","0.8,0.2","3:go_c","",""
"null","","html-keyboard-response","506","675790","0.0-6.0-1.95","","<img src=""img/purple-r.png"" border=""10"">","null","trial","32","","0.8,0.2","3:go_c","1",""
"null","","html-keyboard-response","507","676804","0.0-6.0-2.95","","<div style=""font-size:60px;"">+</div>","null","","","","","","",""
"508.41000000946224","","image-keyboard-response","508","677315","0.0-6.0-0.96","","img/purple.png","32","trial","32","true","0.8,0.2","3:go_c","",""
"null","","html-keyboard-response","509","678320","0.0-6.0-1.96","","<img src=""img/purple-n.png"" border=""10"">","null","trial","32","","0.8,0.2","3:go_c","0",""
"null","","html-keyboard-response","510","679337","0.0-6.0-2.96","","<div style=""font-size:60px;"">+</div>","null","","","","","","",""
"622.525000013411","","image-keyboard-response","511","679961","0.0-6.0-0.97","","img/grey.png","32","trial","32","true","0.8,0.2","1:go_a","",""
"null","","html-keyboard-response","512","680971","0.0-6.0-1.97","","<img src=""img/grey-r.png"" border=""10"">","null","trial","32","","0.8,0.2","1:go_a","1",""
"null","","html-keyboard-response","513","681989","0.0-6.0-2.97","","<div style=""font-size:60px;"">+</div>","null","","","","","","",""
"841.6649999562651","","image-keyboard-response","514","682833","0.0-6.0-0.98","","img/orange.png","32","trial","null","false","0.2,0.8","4:nogo_d","",""
"null","","html-keyboard-response","515","683849","0.0-6.0-1.98","","<img src=""img/orange-n.png"" border=""10"">","null","trial","null","","0.2,0.8","4:nogo_d","0",""
"null","","html-keyboard-response","516","684860","0.0-6.0-2.98","","<div style=""font-size:60px;"">+</div>","null","","","","","","",""
"null","","image-keyboard-response","517","686371","0.0-6.0-0.99","","img/blue.png","null","trial","null","true","0.2,0.8","2:nogo_b","",""
"null","","html-keyboard-response","518","687399","0.0-6.0-1.99","","<img src=""img/blue-n.png"">","null","trial","null","","0.2,0.8","2:nogo_b","0",""
"null","","html-keyboard-response","519","688411","0.0-6.0-2.99","","<div style=""font-size:60px;"">+</div>","null","","","","","","",""
"513.619999983348","","image-keyboard-response","520","688927","0.0-6.0-0.100","","img/orange.png","32","trial","null","false","0.2,0.8","4:nogo_d","",""
"null","","html-keyboard-response","521","689958","0.0-6.0-1.100","","<img src=""img/orange-n.png"" border=""10"">","null","trial","null","","0.2,0.8","4:nogo_d","0",""
"null","","html-keyboard-response","522","690962","0.0-6.0-2.100","","<div style=""font-size:60px;"">+</div>","null","","","","","","",""
"809.9500000244007","","image-keyboard-response","523","691774","0.0-6.0-0.101","","img/blue.png","32","trial","null","false","0.2,0.8","2:nogo_b","",""
"null","","html-keyboard-response","524","692780","0.0-6.0-1.101","","<img src=""img/blue-n.png"" border=""10"">","null","trial","null","","0.2,0.8","2:nogo_b","0",""
"null","","html-keyboard-response","525","693799","0.0-6.0-2.101","","<div style=""font-size:60px;"">+</div>","null","","","","","","",""
"490.5750000034459","","image-keyboard-response","526","694291","0.0-6.0-0.102","","img/purple.png","32","trial","32","true","0.8,0.2","3:go_c","",""
"null","","html-keyboard-response","527","695302","0.0-6.0-1.102","","<img src=""img/purple-r.png"" border=""10"">","null","trial","32","","0.8,0.2","3:go_c","1",""
"null","","html-keyboard-response","528","696313","0.0-6.0-2.102","","<div style=""font-size:60px;"">+</div>","null","","","","","","",""
"501.56999996397644","","image-keyboard-response","529","696816","0.0-6.0-0.103","","img/grey.png","32","trial","32","true","0.8,0.2","1:go_a","",""
"null","","html-keyboard-response","530","697819","0.0-6.0-1.103","","<img src=""img/grey-r.png"" border=""10"">","null","trial","32","","0.8,0.2","1:go_a","1",""
"null","","html-keyboard-response","531","698824","0.0-6.0-2.103","","<div style=""font-size:60px;"">+</div>","null","","","","","","",""
"583.8150000199676","","image-keyboard-response","532","699410","0.0-6.0-0.104","","img/purple.png","32","trial","32","true","0.8,0.2","3:go_c","",""
"null","","html-keyboard-response","533","700427","0.0-6.0-1.104","","<img src=""img/purple-r.png"" border=""10"">","null","trial","32","","0.8,0.2","3:go_c","1",""
"null","","html-keyboard-response","534","701448","0.0-6.0-2.104","","<div style=""font-size:60px;"">+</div>","null","","","","","","",""
"null","","image-keyboard-response","535","702963","0.0-6.0-0.105","","img/orange.png","null","trial","null","true","0.2,0.8","4:nogo_d","",""
"null","","html-keyboard-response","536","703973","0.0-6.0-1.105","","<img src=""img/orange-r.png"">","null","trial","null","","0.2,0.8","4:nogo_d","1",""
"null","","html-keyboard-response","537","704989","0.0-6.0-2.105","","<div style=""font-size:60px;"">+</div>","null","","","","","","",""
"517.470000020694","","image-keyboard-response","538","705508","0.0-6.0-0.106","","img/grey.png","32","trial","32","true","0.8,0.2","1:go_a","",""
"null","","html-keyboard-response","539","706517","0.0-6.0-1.106","","<img src=""img/grey-r.png"" border=""10"">","null","trial","32","","0.8,0.2","1:go_a","1",""
"null","","html-keyboard-response","540","707535","0.0-6.0-2.106","","<div style=""font-size:60px;"">+</div>","null","","","","","","",""
"1022.2049999865703","","image-keyboard-response","541","708560","0.0-6.0-0.107","","img/blue.png","32","trial","null","false","0.2,0.8","2:nogo_b","",""
"null","","html-keyboard-response","542","709565","0.0-6.0-1.107","","<img src=""img/blue-n.png"" border=""10"">","null","trial","null","","0.2,0.8","2:nogo_b","0",""
"null","","html-keyboard-response","543","710582","0.0-6.0-2.107","","<div style=""font-size:60px;"">+</div>","null","","","","","","",""
"617.5849999999627","","image-keyboard-response","544","711202","0.0-6.0-0.108","","img/orange.png","32","trial","null","false","0.2,0.8","4:nogo_d","",""
"null","","html-keyboard-response","545","712213","0.0-6.0-1.108","","<img src=""img/orange-n.png"" border=""10"">","null","trial","null","","0.2,0.8","4:nogo_d","0",""
"null","","html-keyboard-response","546","713253","0.0-6.0-2.108","","<div style=""font-size:60px;"">+</div>","null","","","","","","",""
"677.2199999541044","","image-keyboard-response","547","713931","0.0-6.0-0.109","","img/blue.png","32","trial","null","false","0.2,0.8","2:nogo_b","",""
"null","","html-keyboard-response","548","714939","0.0-6.0-1.109","","<img src=""img/blue-n.png"" border=""10"">","null","trial","null","","0.2,0.8","2:nogo_b","0",""
"null","","html-keyboard-response","549","715951","0.0-6.0-2.109","","<div style=""font-size:60px;"">+</div>","null","","","","","","",""
"538.1349999806844","","image-keyboard-response","550","716490","0.0-6.0-0.110","","img/grey.png","32","trial","32","true","0.8,0.2","1:go_a","",""
"null","","html-keyboard-response","551","717507","0.0-6.0-1.110","","<img src=""img/grey-r.png"" border=""10"">","null","trial","32","","0.8,0.2","1:go_a","1",""
"null","","html-keyboard-response","552","718536","0.0-6.0-2.110","","<div style=""font-size:60px;"">+</div>","null","","","","","","",""
"622.0099999918602","","image-keyboard-response","553","719159","0.0-6.0-0.111","","img/purple.png","32","trial","32","true","0.8,0.2","3:go_c","",""
"null","","html-keyboard-response","554","720170","0.0-6.0-1.111","","<img src=""img/purple-r.png"" border=""10"">","null","trial","32","","0.8,0.2","3:go_c","1",""
"null","","html-keyboard-response","555","721177","0.0-6.0-2.111","","<div style=""font-size:60px;"">+</div>","null","","","","","","",""
"null","","image-keyboard-response","556","722688","0.0-6.0-0.112","","img/blue.png","null","trial","null","true","0.2,0.8","2:nogo_b","",""
"null","","html-keyboard-response","557","723705","0.0-6.0-1.112","","<img src=""img/blue-r.png"">","null","trial","null","","0.2,0.8","2:nogo_b","1",""
"null","","html-keyboard-response","558","724719","0.0-6.0-2.112","","<div style=""font-size:60px;"">+</div>","null","","","","","","",""
"746.3449999922886","","image-keyboard-response","559","725467","0.0-6.0-0.113","","img/orange.png","32","trial","null","false","0.2,0.8","4:nogo_d","",""
"null","","html-keyboard-response","560","726476","0.0-6.0-1.113","","<img src=""img/orange-n.png"" border=""10"">","null","trial","null","","0.2,0.8","4:nogo_d","0",""
"null","","html-keyboard-response","561","727480","0.0-6.0-2.113","","<div style=""font-size:60px;"">+</div>","null","","","","","","",""
"474.5450000045821","","image-keyboard-response","562","727956","0.0-6.0-0.114","","img/grey.png","32","trial","32","true","0.8,0.2","1:go_a","",""
"null","","html-keyboard-response","563","729021","0.0-6.0-1.114","","<img src=""img/grey-n.png"" border=""10"">","null","trial","32","","0.8,0.2","1:go_a","0",""
"null","","html-keyboard-response","564","730038","0.0-6.0-2.114","","<div style=""font-size:60px;"">+</div>","null","","","","","","",""
"701.4600000111386","","image-keyboard-response","565","730742","0.0-6.0-0.115","","img/purple.png","32","trial","32","true","0.8,0.2","3:go_c","",""
"null","","html-keyboard-response","566","731756","0.0-6.0-1.115","","<img src=""img/purple-r.png"" border=""10"">","null","trial","32","","0.8,0.2","3:go_c","1",""
"null","","html-keyboard-response","567","732769","0.0-6.0-2.115","","<div style=""font-size:60px;"">+</div>","null","","","","","","",""
"484.79499999666587","","image-keyboard-response","568","733256","0.0-6.0-0.116","","img/purple.png","32","trial","32","true","0.8,0.2","3:go_c","",""
"null","","html-keyboard-response","569","734272","0.0-6.0-1.116","","<img src=""img/purple-r.png"" border=""10"">","null","trial","32","","0.8,0.2","3:go_c","1",""
"null","","html-keyboard-response","570","735282","0.0-6.0-2.116","","<div style=""font-size:60px;"">+</div>","null","","","","","","",""
"null","","image-keyboard-response","571","736797","0.0-6.0-0.117","","img/orange.png","null","trial","null","true","0.2,0.8","4:nogo_d","",""
"null","","html-keyboard-response","572","737811","0.0-6.0-1.117","","<img src=""img/orange-r.png"">","null","trial","null","","0.2,0.8","4:nogo_d","1",""
"null","","html-keyboard-response","573","738823","0.0-6.0-2.117","","<div style=""font-size:60px;"">+</div>","null","","","","","","",""
"712.390000000596","","image-keyboard-response","574","739532","0.0-6.0-0.118","","img/blue.png","32","trial","null","false","0.2,0.8","2:nogo_b","",""
"null","","html-keyboard-response","575","740557","0.0-6.0-1.118","","<img src=""img/blue-n.png"" border=""10"">","null","trial","null","","0.2,0.8","2:nogo_b","0",""
"null","","html-keyboard-response","576","741573","0.0-6.0-2.118","","<div style=""font-size:60px;"">+</div>","null","","","","","","",""
"500.9050000226125","","image-keyboard-response","577","742075","0.0-6.0-0.119","","img/grey.png","32","trial","32","true","0.8,0.2","1:go_a","",""
"null","","html-keyboard-response","578","743078","0.0-6.0-1.119","","<img src=""img/grey-r.png"" border=""10"">","null","trial","32","","0.8,0.2","1:go_a","1",""
"null","","html-keyboard-response","579","744092","0.0-6.0-2.119","","<div style=""font-size:60px;"">+</div>","null","","","","","","",""
"17348.434999992605","","instructions","580","761442","0.0-7.0","[{""page_index"":0,""viewing_time"":17348.004999978002}]","","","","","","","","",""
"1356.835000042338","","image-keyboard-response","581","762800","0.0-8.0-0.0","","img/green.png","32","trial","32","true","0.6,0.4","3:go_c","",""
"null","","html-keyboard-response","582","763822","0.0-8.0-1.0","","<img src=""img/green-n.png"" border=""10"">","null","trial","32","","0.6,0.4","3:go_c","0",""
"null","","html-keyboard-response","583","764828","0.0-8.0-2.0","","<div style=""font-size:60px;"">+</div>","null","","","","","","",""
"430.61499996110797","","image-keyboard-response","584","765261","0.0-8.0-0.1","","img/orange.png","32","trial","null","false","0.4,0.6","2:nogo_b","",""
"null","","html-keyboard-response","585","766275","0.0-8.0-1.1","","<img src=""img/orange-r.png"" border=""10"">","null","trial","null","","0.4,0.6","2:nogo_b","1",""
"null","","html-keyboard-response","586","767298","0.0-8.0-2.1","","<div style=""font-size:60px;"">+</div>","null","","","","","","",""
"600.124999997206","","image-keyboard-response","587","767899","0.0-8.0-0.2","","img/grey.png","32","trial","null","false","0.4,0.6","4:nogo_d","",""
"null","","html-keyboard-response","588","768912","0.0-8.0-1.2","","<img src=""img/grey-r.png"" border=""10"">","null","trial","null","","0.4,0.6","4:nogo_d","1",""
"null","","html-keyboard-response","589","769920","0.0-8.0-2.2","","<div style=""font-size:60px;"">+</div>","null","","","","","","",""
"704.6649999683723","","image-keyboard-response","590","770627","0.0-8.0-0.3","","img/pink.png","32","trial","32","true","0.6,0.4","1:go_a","",""
"null","","html-keyboard-response","591","771638","0.0-8.0-1.3","","<img src=""img/pink-n.png"" border=""10"">","null","trial","32","","0.6,0.4","1:go_a","0",""
"null","","html-keyboard-response","592","772657","0.0-8.0-2.3","","<div style=""font-size:60px;"">+</div>","null","","","","","","",""
"null","","image-keyboard-response","593","774172","0.0-8.0-0.4","","img/green.png","null","trial","32","false","0.6,0.4","3:go_c","",""
"null","","html-keyboard-response","594","775189","0.0-8.0-1.4","","<img src=""img/green-r.png"">","null","trial","32","","0.6,0.4","3:go_c","1",""
"null","","html-keyboard-response","595","776204","0.0-8.0-2.4","","<div style=""font-size:60px;"">+</div>","null","","","","","","",""
"692.9600000148639","","image-keyboard-response","596","776899","0.0-8.0-0.5","","img/grey.png","32","trial","null","false","0.4,0.6","4:nogo_d","",""
"null","","html-keyboard-response","597","777915","0.0-8.0-1.5","","<img src=""img/grey-r.png"" border=""10"">","null","trial","null","","0.4,0.6","4:nogo_d","1",""
"null","","html-keyboard-response","598","778918","0.0-8.0-2.5","","<div style=""font-size:60px;"">+</div>","null","","","","","","",""
"647.1350000356324","","image-keyboard-response","599","779566","0.0-8.0-0.6","","img/orange.png","32","trial","null","false","0.4,0.6","2:nogo_b","",""
"null","","html-keyboard-response","600","780572","0.0-8.0-1.6","","<img src=""img/orange-r.png"" border=""10"">","null","trial","null","","0.4,0.6","2:nogo_b","1",""
"null","","html-keyboard-response","601","781587","0.0-8.0-2.6","","<div style=""font-size:60px;"">+</div>","null","","","","","","",""
"976.3549999915995","","image-keyboard-response","602","782565","0.0-8.0-0.7","","img/pink.png","32","trial","32","true","0.6,0.4","1:go_a","",""
"null","","html-keyboard-response","603","783575","0.0-8.0-1.7","","<img src=""img/pink-n.png"" border=""10"">","null","trial","32","","0.6,0.4","1:go_a","0",""
"null","","html-keyboard-response","604","784591","0.0-8.0-2.7","","<div style=""font-size:60px;"">+</div>","null","","","","","","",""
"null","","image-keyboard-response","605","786101","0.0-8.0-0.8","","img/pink.png","null","trial","32","false","0.6,0.4","1:go_a","",""
"null","","html-keyboard-response","606","787116","0.0-8.0-1.8","","<img src=""img/pink-r.png"">","null","trial","32","","0.6,0.4","1:go_a","1",""
"null","","html-keyboard-response","607","788119","0.0-8.0-2.8","","<div style=""font-size:60px;"">+</div>","null","","","","","","",""
"559.7500000149012","","image-keyboard-response","608","788680","0.0-8.0-0.9","","img/grey.png","32","trial","null","false","0.4,0.6","4:nogo_d","",""
"null","","html-keyboard-response","609","789707","0.0-8.0-1.9","","<img src=""img/grey-r.png"" border=""10"">","null","trial","null","","0.4,0.6","4:nogo_d","1",""
"null","","html-keyboard-response","610","790715","0.0-8.0-2.9","","<div style=""font-size:60px;"">+</div>","null","","","","","","",""
"750.6750000175089","","image-keyboard-response","611","791468","0.0-8.0-0.10","","img/orange.png","32","trial","null","false","0.4,0.6","2:nogo_b","",""
"null","","html-keyboard-response","612","792481","0.0-8.0-1.10","","<img src=""img/orange-r.png"" border=""10"">","null","trial","null","","0.4,0.6","2:nogo_b","1",""
"null","","html-keyboard-response","613","793498","0.0-8.0-2.10","","<div style=""font-size:60px;"">+</div>","null","","","","","","",""
"null","","image-keyboard-response","614","795001","0.0-8.0-0.11","","img/green.png","null","trial","32","false","0.6,0.4","3:go_c","",""
"null","","html-keyboard-response","615","796004","0.0-8.0-1.11","","<img src=""img/green-r.png"">","null","trial","32","","0.6,0.4","3:go_c","1",""
"null","","html-keyboard-response","616","797023","0.0-8.0-2.11","","<div style=""font-size:60px;"">+</div>","null","","","","","","",""
"613.5600000270642","","image-keyboard-response","617","797638","0.0-8.0-0.12","","img/green.png","32","trial","32","true","0.6,0.4","3:go_c","",""
"null","","html-keyboard-response","618","798648","0.0-8.0-1.12","","<img src=""img/green-n.png"" border=""10"">","null","trial","32","","0.6,0.4","3:go_c","0",""
"null","","html-keyboard-response","619","799671","0.0-8.0-2.12","","<div style=""font-size:60px;"">+</div>","null","","","","","","",""
"544.6949999895878","","image-keyboard-response","620","800217","0.0-8.0-0.13","","img/grey.png","32","trial","null","false","0.4,0.6","4:nogo_d","",""
"null","","html-keyboard-response","621","801239","0.0-8.0-1.13","","<img src=""img/grey-r.png"" border=""10"">","null","trial","null","","0.4,0.6","4:nogo_d","1",""
"null","","html-keyboard-response","622","802252","0.0-8.0-2.13","","<div style=""font-size:60px;"">+</div>","null","","","","","","",""
"760.9350000275299","","image-keyboard-response","623","803015","0.0-8.0-0.14","","img/pink.png","32","trial","32","true","0.6,0.4","1:go_a","",""
"null","","html-keyboard-response","624","804019","0.0-8.0-1.14","","<img src=""img/pink-r.png"" border=""10"">","null","trial","32","","0.6,0.4","1:go_a","1",""
"null","","html-keyboard-response","625","805041","0.0-8.0-2.14","","<div style=""font-size:60px;"">+</div>","null","","","","","","",""
"686.4899999927729","","image-keyboard-response","626","805729","0.0-8.0-0.15","","img/orange.png","32","trial","null","false","0.4,0.6","2:nogo_b","",""
"null","","html-keyboard-response","627","806737","0.0-8.0-1.15","","<img src=""img/orange-r.png"" border=""10"">","null","trial","null","","0.4,0.6","2:nogo_b","1",""
"null","","html-keyboard-response","628","807752","0.0-8.0-2.15","","<div style=""font-size:60px;"">+</div>","null","","","","","","",""
"544.2500000353903","","image-keyboard-response","629","808297","0.0-8.0-0.16","","img/orange.png","32","trial","null","false","0.4,0.6","2:nogo_b","",""
"null","","html-keyboard-response","630","809301","0.0-8.0-1.16","","<img src=""img/orange-r.png"" border=""10"">","null","trial","null","","0.4,0.6","2:nogo_b","1",""
"null","","html-keyboard-response","631","810318","0.0-8.0-2.16","","<div style=""font-size:60px;"">+</div>","null","","","","","","",""
"null","","image-keyboard-response","632","811850","0.0-8.0-0.17","","img/pink.png","null","trial","32","false","0.6,0.4","1:go_a","",""
"null","","html-keyboard-response","633","812859","0.0-8.0-1.17","","<img src=""img/pink-n.png"">","null","trial","32","","0.6,0.4","1:go_a","0",""
"null","","html-keyboard-response","634","813866","0.0-8.0-2.17","","<div style=""font-size:60px;"">+</div>","null","","","","","","",""
"609.9950000061654","","image-keyboard-response","635","814478","0.0-8.0-0.18","","img/grey.png","32","trial","null","false","0.4,0.6","4:nogo_d","",""
"null","","html-keyboard-response","636","815502","0.0-8.0-1.18","","<img src=""img/grey-n.png"" border=""10"">","null","trial","null","","0.4,0.6","4:nogo_d","0",""
"null","","html-keyboard-response","637","816520","0.0-8.0-2.18","","<div style=""font-size:60px;"">+</div>","null","","","","","","",""
"856.0900000156835","","image-keyboard-response","638","817377","0.0-8.0-0.19","","img/green.png","32","trial","32","true","0.6,0.4","3:go_c","",""
"null","","html-keyboard-response","639","818385","0.0-8.0-1.19","","<img src=""img/green-r.png"" border=""10"">","null","trial","32","","0.6,0.4","3:go_c","1",""
"null","","html-keyboard-response","640","819396","0.0-8.0-2.19","","<div style=""font-size:60px;"">+</div>","null","","","","","","",""
"691.9549999875017","","image-keyboard-response","641","820090","0.0-8.0-0.20","","img/grey.png","32","trial","null","false","0.4,0.6","4:nogo_d","",""
"null","","html-keyboard-response","642","821102","0.0-8.0-1.20","","<img src=""img/grey-n.png"" border=""10"">","null","trial","null","","0.4,0.6","4:nogo_d","0",""
"null","","html-keyboard-response","643","822119","0.0-8.0-2.20","","<div style=""font-size:60px;"">+</div>","null","","","","","","",""
"596.5449999785051","","image-keyboard-response","644","822717","0.0-8.0-0.21","","img/orange.png","32","trial","null","false","0.4,0.6","2:nogo_b","",""
"null","","html-keyboard-response","645","823732","0.0-8.0-1.21","","<img src=""img/orange-n.png"" border=""10"">","null","trial","null","","0.4,0.6","2:nogo_b","0",""
"null","","html-keyboard-response","646","824741","0.0-8.0-2.21","","<div style=""font-size:60px;"">+</div>","null","","","","","","",""
"null","","image-keyboard-response","647","826245","0.0-8.0-0.22","","img/green.png","null","trial","32","false","0.6,0.4","3:go_c","",""
"null","","html-keyboard-response","648","827262","0.0-8.0-1.22","","<img src=""img/green-n.png"">","null","trial","32","","0.6,0.4","3:go_c","0",""
"null","","html-keyboard-response","649","828267","0.0-8.0-2.22","","<div style=""font-size:60px;"">+</div>","null","","","","","","",""
"620.180000027176","","image-keyboard-response","650","828889","0.0-8.0-0.23","","img/pink.png","32","trial","32","true","0.6,0.4","1:go_a","",""
"null","","html-keyboard-response","651","829894","0.0-8.0-1.23","","<img src=""img/pink-r.png"" border=""10"">","null","trial","32","","0.6,0.4","1:go_a","1",""
"null","","html-keyboard-response","652","830911","0.0-8.0-2.23","","<div style=""font-size:60px;"">+</div>","null","","","","","","",""
"966.4749999647029","","image-keyboard-response","653","831880","0.0-8.0-0.24","","img/orange.png","32","trial","null","false","0.4,0.6","2:nogo_b","",""
"null","","html-keyboard-response","654","832898","0.0-8.0-1.24","","<img src=""img/orange-n.png"" border=""10"">","null","trial","null","","0.4,0.6","2:nogo_b","0",""
"null","","html-keyboard-response","655","833910","0.0-8.0-2.24","","<div style=""font-size:60px;"">+</div>","null","","","","","","",""
"null","","image-keyboard-response","656","835424","0.0-8.0-0.25","","img/pink.png","null","trial","32","false","0.6,0.4","1:go_a","",""
"null","","html-keyboard-response","657","836443","0.0-8.0-1.25","","<img src=""img/pink-r.png"">","null","trial","32","","0.6,0.4","1:go_a","1",""
"null","","html-keyboard-response","658","837455","0.0-8.0-2.25","","<div style=""font-size:60px;"">+</div>","null","","","","","","",""
"569.2799999960698","","image-keyboard-response","659","838029","0.0-8.0-0.26","","img/grey.png","32","trial","null","false","0.4,0.6","4:nogo_d","",""
"null","","html-keyboard-response","660","839033","0.0-8.0-1.26","","<img src=""img/grey-r.png"" border=""10"">","null","trial","null","","0.4,0.6","4:nogo_d","1",""
"null","","html-keyboard-response","661","840036","0.0-8.0-2.26","","<div style=""font-size:60px;"">+</div>","null","","","","","","",""
"835.1249999832362","","image-keyboard-response","662","840872","0.0-8.0-0.27","","img/green.png","32","trial","32","true","0.6,0.4","3:go_c","",""
"null","","html-keyboard-response","663","841889","0.0-8.0-1.27","","<img src=""img/green-r.png"" border=""10"">","null","trial","32","","0.6,0.4","3:go_c","1",""
"null","","html-keyboard-response","664","842906","0.0-8.0-2.27","","<div style=""font-size:60px;"">+</div>","null","","","","","","",""
"600.0749999657273","","image-keyboard-response","665","843507","0.0-8.0-0.28","","img/grey.png","32","trial","null","false","0.4,0.6","4:nogo_d","",""
"null","","html-keyboard-response","666","844522","0.0-8.0-1.28","","<img src=""img/grey-n.png"" border=""10"">","null","trial","null","","0.4,0.6","4:nogo_d","0",""
"null","","html-keyboard-response","667","845546","0.0-8.0-2.28","","<div style=""font-size:60px;"">+</div>","null","","","","","","",""
"776.465000002645","","image-keyboard-response","668","846325","0.0-8.0-0.29","","img/green.png","32","trial","32","true","0.6,0.4","3:go_c","",""
"null","","html-keyboard-response","669","847351","0.0-8.0-1.29","","<img src=""img/green-n.png"" border=""10"">","null","trial","32","","0.6,0.4","3:go_c","0",""
"null","","html-keyboard-response","670","848367","0.0-8.0-2.29","","<div style=""font-size:60px;"">+</div>","null","","","","","","",""
