"rt","url","trial_type","trial_index","time_elapsed","internal_node_id","view_history","stimulus","key_press","test_part","correct_response","correct","use_rew","which_stim","reward","responses"
"49029.060000088066","consent.html","external-html","0","49205","0.0-0.0","","","","","","","","","",""
"110675.8000003174","","instructions","1","159883","0.0-1.0","[{""page_index"":0,""viewing_time"":4854.2200000956655},{""page_index"":1,""viewing_time"":36619.359999895096},{""page_index"":2,""viewing_time"":9349.725000094622},{""page_index"":3,""viewing_time"":10200.724999886006},{""page_index"":4,""viewing_time"":13290.84000037983},{""page_index"":5,""viewing_time"":7803.554999642074},{""page_index"":6,""viewing_time"":28555.07000023499}]","","","","","","","","",""
"1477.405000012368","","image-keyboard-response","2","161365","0.0-2.0-0.0","","img/test1.PNG","32","practice","32","true","","","",""
"null","","html-keyboard-response","3","162376","0.0-2.0-1.0","","<img src=""img/test1-reward.PNG"" border=""10px; grey"">","null","","","","","","",""
"null","","html-keyboard-response","4","163391","0.0-2.0-2.0","","<div style=""font-size:60px;"">+</div>","null","","","","","","",""
"null","","image-keyboard-response","5","164910","0.0-2.0-0.1","","img/test2.PNG","null","practice","null","true","","","",""
"null","","html-keyboard-response","6","165943","0.0-2.0-1.1","","<img src=""img/test2-reward.PNG"">","null","","","","","","",""
"null","","html-keyboard-response","7","166958","0.0-2.0-2.1","","<div style=""font-size:60px;"">+</div>","null","","","","","","",""
"null","","image-keyboard-response","8","168474","0.0-2.0-0.2","","img/test3.PNG","null","practice","null","true","","","",""
"null","","html-keyboard-response","9","169489","0.0-2.0-1.2","","<img src=""img/test3-reward.PNG"">","null","","","","","","",""
"null","","html-keyboard-response","10","170501","0.0-2.0-2.2","","<div style=""font-size:60px;"">+</div>","null","","","","","","",""
"null","","image-keyboard-response","11","172007","0.0-2.0-0.3","","img/test2.PNG","null","practice","null","true","","","",""
"null","","html-keyboard-response","12","173017","0.0-2.0-1.3","","<img src=""img/test2-reward.PNG"">","null","","","","","","",""
"null","","html-keyboard-response","13","174032","0.0-2.0-2.3","","<div style=""font-size:60px;"">+</div>","null","","","","","","",""
"null","","image-keyboard-response","14","175536","0.0-2.0-0.4","","img/test3.PNG","null","practice","null","true","","","",""
"null","","html-keyboard-response","15","176539","0.0-2.0-1.4","","<img src=""img/test3-reward.PNG"">","null","","","","","","",""
"null","","html-keyboard-response","16","177549","0.0-2.0-2.4","","<div style=""font-size:60px;"">+</div>","null","","","","","","",""
"562.7049999311566","","image-keyboard-response","17","178114","0.0-2.0-0.5","","img/test1.PNG","32","practice","32","true","","","",""
"null","","html-keyboard-response","18","179116","0.0-2.0-1.5","","<img src=""img/test1-reward.PNG"" border=""10px; grey"">","null","","","","","","",""
"null","","html-keyboard-response","19","180122","0.0-2.0-2.5","","<div style=""font-size:60px;"">+</div>","null","","","","","","",""
"null","","image-keyboard-response","20","181630","0.0-2.0-0.6","","img/test2.PNG","null","practice","null","true","","","",""
"null","","html-keyboard-response","21","182637","0.0-2.0-1.6","","<img src=""img/test2-reward.PNG"">","null","","","","","","",""
"null","","html-keyboard-response","22","183652","0.0-2.0-2.6","","<div style=""font-size:60px;"">+</div>","null","","","","","","",""
"null","","image-keyboard-response","23","185155","0.0-2.0-0.7","","img/test3.PNG","null","practice","null","true","","","",""
"null","","html-keyboard-response","24","186167","0.0-2.0-1.7","","<img src=""img/test3-reward.PNG"">","null","","","","","","",""
"null","","html-keyboard-response","25","187168","0.0-2.0-2.7","","<div style=""font-size:60px;"">+</div>","null","","","","","","",""
"610.2800001390278","","image-keyboard-response","26","187782","0.0-2.0-0.8","","img/test1.PNG","32","practice","32","true","","","",""
"null","","html-keyboard-response","27","188791","0.0-2.0-1.8","","<img src=""img/test1-reward.PNG"" border=""10px; grey"">","null","","","","","","",""
"null","","html-keyboard-response","28","189794","0.0-2.0-2.8","","<div style=""font-size:60px;"">+</div>","null","","","","","","",""
"613.6899995617568","","image-keyboard-response","29","190409","0.0-2.0-0.9","","img/test1.PNG","32","practice","32","true","","","",""
"null","","html-keyboard-response","30","191416","0.0-2.0-1.9","","<img src=""img/test1-reward.PNG"" border=""10px; grey"">","null","","","","","","",""
"null","","html-keyboard-response","31","192431","0.0-2.0-2.9","","<div style=""font-size:60px;"">+</div>","null","","","","","","",""
"null","","image-keyboard-response","32","193948","0.0-2.0-0.10","","img/test2.PNG","null","practice","null","true","","","",""
"null","","html-keyboard-response","33","194954","0.0-2.0-1.10","","<img src=""img/test2-reward.PNG"">","null","","","","","","",""
"null","","html-keyboard-response","34","195964","0.0-2.0-2.10","","<div style=""font-size:60px;"">+</div>","null","","","","","","",""
"null","","image-keyboard-response","35","197466","0.0-2.0-0.11","","img/test3.PNG","null","practice","null","true","","","",""
"null","","html-keyboard-response","36","198480","0.0-2.0-1.11","","<img src=""img/test3-reward.PNG"">","null","","","","","","",""
"null","","html-keyboard-response","37","199485","0.0-2.0-2.11","","<div style=""font-size:60px;"">+</div>","null","","","","","","",""
"6803.9950001984835","","instructions","38","206289","0.0-3.0","[{""page_index"":0,""viewing_time"":6803.725000005215}]","","","","","","","","",""
"null","","image-keyboard-response","39","207796","0.0-4.0-0.0","","img/orange.png","null","trial","null","true","0.2,0.8","2:nogo_b","",""
"null","","html-keyboard-response","40","208801","0.0-4.0-1.0","","<img src=""img/orange-r.png"">","null","trial","null","","0.2,0.8","2:nogo_b","1",""
"null","","html-keyboard-response","41","209814","0.0-4.0-2.0","","<div style=""font-size:60px;"">+</div>","null","","","","","","",""
"423.62500028684735","","image-keyboard-response","42","210240","0.0-4.0-0.1","","img/red.png","32","trial","32","true","0.8,0.2","1:go_a","",""
"null","","html-keyboard-response","43","211249","0.0-4.0-1.1","","<img src=""img/red-r.png"" border=""10"">","null","trial","32","","0.8,0.2","1:go_a","1",""
"null","","html-keyboard-response","44","212254","0.0-4.0-2.1","","<div style=""font-size:60px;"">+</div>","null","","","","","","",""
"597.2150000743568","","image-keyboard-response","45","212854","0.0-4.0-0.2","","img/orange.png","32","trial","null","false","0.2,0.8","2:nogo_b","",""
"null","","html-keyboard-response","46","213873","0.0-4.0-1.2","","<img src=""img/orange-n.png"" border=""10"">","null","trial","null","","0.2,0.8","2:nogo_b","0",""
"null","","html-keyboard-response","47","214879","0.0-4.0-2.2","","<div style=""font-size:60px;"">+</div>","null","","","","","","",""
"588.8249999843538","","image-keyboard-response","48","215470","0.0-4.0-0.3","","img/red.png","32","trial","32","true","0.8,0.2","1:go_a","",""
"null","","html-keyboard-response","49","216489","0.0-4.0-1.3","","<img src=""img/red-r.png"" border=""10"">","null","trial","32","","0.8,0.2","1:go_a","1",""
"null","","html-keyboard-response","50","217497","0.0-4.0-2.3","","<div style=""font-size:60px;"">+</div>","null","","","","","","",""
"554.7150000929832","","image-keyboard-response","51","218054","0.0-4.0-0.4","","img/red.png","32","trial","32","true","0.8,0.2","1:go_a","",""
"null","","html-keyboard-response","52","219081","0.0-4.0-1.4","","<img src=""img/red-r.png"" border=""10"">","null","trial","32","","0.8,0.2","1:go_a","1",""
"null","","html-keyboard-response","53","220089","0.0-4.0-2.4","","<div style=""font-size:60px;"">+</div>","null","","","","","","",""
"null","","image-keyboard-response","54","221607","0.0-4.0-0.5","","img/orange.png","null","trial","null","true","0.2,0.8","2:nogo_b","",""
"null","","html-keyboard-response","55","222619","0.0-4.0-1.5","","<img src=""img/orange-n.png"">","null","trial","null","","0.2,0.8","2:nogo_b","0",""
"null","","html-keyboard-response","56","223624","0.0-4.0-2.5","","<div style=""font-size:60px;"">+</div>","null","","","","","","",""
"null","","image-keyboard-response","57","225139","0.0-4.0-0.6","","img/orange.png","null","trial","null","true","0.2,0.8","2:nogo_b","",""
"null","","html-keyboard-response","58","226150","0.0-4.0-1.6","","<img src=""img/orange-r.png"">","null","trial","null","","0.2,0.8","2:nogo_b","1",""
"null","","html-keyboard-response","59","227162","0.0-4.0-2.6","","<div style=""font-size:60px;"">+</div>","null","","","","","","",""
"540.8549997955561","","image-keyboard-response","60","227706","0.0-4.0-0.7","","img/red.png","32","trial","32","true","0.8,0.2","1:go_a","",""
"null","","html-keyboard-response","61","228723","0.0-4.0-1.7","","<img src=""img/red-n.png"" border=""10"">","null","trial","32","","0.8,0.2","1:go_a","0",""
"null","","html-keyboard-response","62","229733","0.0-4.0-2.7","","<div style=""font-size:60px;"">+</div>","null","","","","","","",""
"545.4250001348555","","image-keyboard-response","63","230281","0.0-4.0-0.8","","img/red.png","32","trial","32","true","0.8,0.2","1:go_a","",""
"null","","html-keyboard-response","64","231297","0.0-4.0-1.8","","<img src=""img/red-n.png"" border=""10"">","null","trial","32","","0.8,0.2","1:go_a","0",""
"null","","html-keyboard-response","65","232313","0.0-4.0-2.8","","<div style=""font-size:60px;"">+</div>","null","","","","","","",""
"702.7349998243153","","image-keyboard-response","66","233019","0.0-4.0-0.9","","img/orange.png","32","trial","null","false","0.2,0.8","2:nogo_b","",""
"null","","html-keyboard-response","67","234023","0.0-4.0-1.9","","<img src=""img/orange-r.png"" border=""10"">","null","trial","null","","0.2,0.8","2:nogo_b","1",""
"null","","html-keyboard-response","68","235043","0.0-4.0-2.9","","<div style=""font-size:60px;"">+</div>","null","","","","","","",""
"1152.9450002126396","","image-keyboard-response","69","236203","0.0-4.0-0.10","","img/red.png","32","trial","32","true","0.8,0.2","1:go_a","",""
"null","","html-keyboard-response","70","237215","0.0-4.0-1.10","","<img src=""img/red-r.png"" border=""10"">","null","trial","32","","0.8,0.2","1:go_a","1",""
"null","","html-keyboard-response","71","238234","0.0-4.0-2.10","","<div style=""font-size:60px;"">+</div>","null","","","","","","",""
"719.3399998359382","","image-keyboard-response","72","238959","0.0-4.0-0.11","","img/orange.png","32","trial","null","false","0.2,0.8","2:nogo_b","",""
"null","","html-keyboard-response","73","239973","0.0-4.0-1.11","","<img src=""img/orange-n.png"" border=""10"">","null","trial","null","","0.2,0.8","2:nogo_b","0",""
"null","","html-keyboard-response","74","240983","0.0-4.0-2.11","","<div style=""font-size:60px;"">+</div>","null","","","","","","",""
"644.3650000728667","","image-keyboard-response","75","241629","0.0-4.0-0.12","","img/orange.png","32","trial","null","false","0.2,0.8","2:nogo_b","",""
"null","","html-keyboard-response","76","242636","0.0-4.0-1.12","","<img src=""img/orange-n.png"" border=""10"">","null","trial","null","","0.2,0.8","2:nogo_b","0",""
"null","","html-keyboard-response","77","243640","0.0-4.0-2.12","","<div style=""font-size:60px;"">+</div>","null","","","","","","",""
"468.48500007763505","","image-keyboard-response","78","244111","0.0-4.0-0.13","","img/red.png","32","trial","32","true","0.8,0.2","1:go_a","",""
"null","","html-keyboard-response","79","245121","0.0-4.0-1.13","","<img src=""img/red-n.png"" border=""10"">","null","trial","32","","0.8,0.2","1:go_a","0",""
"null","","html-keyboard-response","80","246126","0.0-4.0-2.13","","<div style=""font-size:60px;"">+</div>","null","","","","","","",""
"615.7549996860325","","image-keyboard-response","81","246745","0.0-4.0-0.14","","img/red.png","32","trial","32","true","0.8,0.2","1:go_a","",""
"null","","html-keyboard-response","82","247756","0.0-4.0-1.14","","<img src=""img/red-r.png"" border=""10"">","null","trial","32","","0.8,0.2","1:go_a","1",""
"null","","html-keyboard-response","83","248771","0.0-4.0-2.14","","<div style=""font-size:60px;"">+</div>","null","","","","","","",""
"834.3450003303587","","image-keyboard-response","84","249607","0.0-4.0-0.15","","img/orange.png","32","trial","null","false","0.2,0.8","2:nogo_b","",""
"null","","html-keyboard-response","85","250620","0.0-4.0-1.15","","<img src=""img/orange-n.png"" border=""10"">","null","trial","null","","0.2,0.8","2:nogo_b","0",""
"null","","html-keyboard-response","86","251633","0.0-4.0-2.15","","<div style=""font-size:60px;"">+</div>","null","","","","","","",""
"828.7349999882281","","image-keyboard-response","87","252464","0.0-4.0-0.16","","img/orange.png","32","trial","null","false","0.2,0.8","2:nogo_b","",""
"null","","html-keyboard-response","88","253495","0.0-4.0-1.16","","<img src=""img/orange-n.png"" border=""10"">","null","trial","null","","0.2,0.8","2:nogo_b","0",""
"null","","html-keyboard-response","89","254512","0.0-4.0-2.16","","<div style=""font-size:60px;"">+</div>","null","","","","","","",""
"521.2799999862909","","image-keyboard-response","90","255036","0.0-4.0-0.17","","img/red.png","32","trial","32","true","0.8,0.2","1:go_a","",""
"null","","html-keyboard-response","91","256044","0.0-4.0-1.17","","<img src=""img/red-r.png"" border=""10"">","null","trial","32","","0.8,0.2","1:go_a","1",""
"null","","html-keyboard-response","92","257047","0.0-4.0-2.17","","<div style=""font-size:60px;"">+</div>","null","","","","","","",""
"525.0050001777709","","image-keyboard-response","93","257575","0.0-4.0-0.18","","img/red.png","32","trial","32","true","0.8,0.2","1:go_a","",""
"null","","html-keyboard-response","94","258591","0.0-4.0-1.18","","<img src=""img/red-r.png"" border=""10"">","null","trial","32","","0.8,0.2","1:go_a","1",""
"null","","html-keyboard-response","95","259605","0.0-4.0-2.18","","<div style=""font-size:60px;"">+</div>","null","","","","","","",""
"null","","image-keyboard-response","96","261111","0.0-4.0-0.19","","img/orange.png","null","trial","null","true","0.2,0.8","2:nogo_b","",""
"null","","html-keyboard-response","97","262123","0.0-4.0-1.19","","<img src=""img/orange-n.png"">","null","trial","null","","0.2,0.8","2:nogo_b","0",""
"null","","html-keyboard-response","98","263137","0.0-4.0-2.19","","<div style=""font-size:60px;"">+</div>","null","","","","","","",""
"570.8849998190999","","image-keyboard-response","99","263710","0.0-4.0-0.20","","img/red.png","32","trial","32","true","0.8,0.2","1:go_a","",""
"null","","html-keyboard-response","100","264720","0.0-4.0-1.20","","<img src=""img/red-r.png"" border=""10"">","null","trial","32","","0.8,0.2","1:go_a","1",""
"null","","html-keyboard-response","101","265728","0.0-4.0-2.20","","<div style=""font-size:60px;"">+</div>","null","","","","","","",""
"null","","image-keyboard-response","102","267235","0.0-4.0-0.21","","img/orange.png","null","trial","null","true","0.2,0.8","2:nogo_b","",""
"null","","html-keyboard-response","103","268250","0.0-4.0-1.21","","<img src=""img/orange-n.png"">","null","trial","null","","0.2,0.8","2:nogo_b","0",""
"null","","html-keyboard-response","104","269260","0.0-4.0-2.21","","<div style=""font-size:60px;"">+</div>","null","","","","","","",""
"868.2599999010563","","image-keyboard-response","105","270130","0.0-4.0-0.22","","img/orange.png","32","trial","null","false","0.2,0.8","2:nogo_b","",""
"null","","html-keyboard-response","106","271141","0.0-4.0-1.22","","<img src=""img/orange-n.png"" border=""10"">","null","trial","null","","0.2,0.8","2:nogo_b","0",""
"null","","html-keyboard-response","107","272157","0.0-4.0-2.22","","<div style=""font-size:60px;"">+</div>","null","","","","","","",""
"442.0500001870096","","image-keyboard-response","108","272602","0.0-4.0-0.23","","img/red.png","32","trial","32","true","0.8,0.2","1:go_a","",""
"null","","html-keyboard-response","109","273620","0.0-4.0-1.23","","<img src=""img/red-n.png"" border=""10"">","null","trial","32","","0.8,0.2","1:go_a","0",""
"null","","html-keyboard-response","110","274625","0.0-4.0-2.23","","<div style=""font-size:60px;"">+</div>","null","","","","","","",""
"752.9050000011921","","image-keyboard-response","111","275373","0.0-4.0-0.24","","img/red.png","32","trial","32","true","0.8,0.2","1:go_a","",""
"null","","html-keyboard-response","112","276396","0.0-4.0-1.24","","<img src=""img/red-r.png"" border=""10"">","null","trial","32","","0.8,0.2","1:go_a","1",""
"null","","html-keyboard-response","113","277413","0.0-4.0-2.24","","<div style=""font-size:60px;"">+</div>","null","","","","","","",""
"null","","image-keyboard-response","114","278950","0.0-4.0-0.25","","img/orange.png","null","trial","null","true","0.2,0.8","2:nogo_b","",""
"null","","html-keyboard-response","115","279961","0.0-4.0-1.25","","<img src=""img/orange-r.png"">","null","trial","null","","0.2,0.8","2:nogo_b","1",""
"null","","html-keyboard-response","116","280971","0.0-4.0-2.25","","<div style=""font-size:60px;"">+</div>","null","","","","","","",""
"670.1899999752641","","image-keyboard-response","117","281643","0.0-4.0-0.26","","img/orange.png","32","trial","null","false","0.2,0.8","2:nogo_b","",""
"null","","html-keyboard-response","118","282657","0.0-4.0-1.26","","<img src=""img/orange-r.png"" border=""10"">","null","trial","null","","0.2,0.8","2:nogo_b","1",""
"null","","html-keyboard-response","119","283679","0.0-4.0-2.26","","<div style=""font-size:60px;"">+</div>","null","","","","","","",""
"532.6849999837577","","image-keyboard-response","120","284214","0.0-4.0-0.27","","img/red.png","32","trial","32","true","0.8,0.2","1:go_a","",""
"null","","html-keyboard-response","121","285228","0.0-4.0-1.27","","<img src=""img/red-r.png"" border=""10"">","null","trial","32","","0.8,0.2","1:go_a","1",""
"null","","html-keyboard-response","122","286232","0.0-4.0-2.27","","<div style=""font-size:60px;"">+</div>","null","","","","","","",""
"556.5249999053776","","image-keyboard-response","123","286791","0.0-4.0-0.28","","img/red.png","32","trial","32","true","0.8,0.2","1:go_a","",""
"null","","html-keyboard-response","124","287799","0.0-4.0-1.28","","<img src=""img/red-n.png"" border=""10"">","null","trial","32","","0.8,0.2","1:go_a","0",""
"null","","html-keyboard-response","125","288816","0.0-4.0-2.28","","<div style=""font-size:60px;"">+</div>","null","","","","","","",""
"914.1299999319017","","image-keyboard-response","126","289732","0.0-4.0-0.29","","img/orange.png","32","trial","null","false","0.2,0.8","2:nogo_b","",""
"null","","html-keyboard-response","127","290753","0.0-4.0-1.29","","<img src=""img/orange-n.png"" border=""10"">","null","trial","null","","0.2,0.8","2:nogo_b","0",""
"null","","html-keyboard-response","128","291758","0.0-4.0-2.29","","<div style=""font-size:60px;"">+</div>","null","","","","","","",""
"610.2249999530613","","image-keyboard-response","129","292371","0.0-4.0-0.30","","img/red.png","32","trial","32","true","0.8,0.2","1:go_a","",""
"null","","html-keyboard-response","130","293381","0.0-4.0-1.30","","<img src=""img/red-r.png"" border=""10"">","null","trial","32","","0.8,0.2","1:go_a","1",""
"null","","html-keyboard-response","131","294392","0.0-4.0-2.30","","<div style=""font-size:60px;"">+</div>","null","","","","","","",""
"null","","image-keyboard-response","132","295905","0.0-4.0-0.31","","img/orange.png","null","trial","null","true","0.2,0.8","2:nogo_b","",""
"null","","html-keyboard-response","133","296915","0.0-4.0-1.31","","<img src=""img/orange-n.png"">","null","trial","null","","0.2,0.8","2:nogo_b","0",""
"null","","html-keyboard-response","134","297917","0.0-4.0-2.31","","<div style=""font-size:60px;"">+</div>","null","","","","","","",""
"578.7350004538894","","image-keyboard-response","135","298498","0.0-4.0-0.32","","img/red.png","32","trial","32","true","0.8,0.2","1:go_a","",""
"null","","html-keyboard-response","136","299510","0.0-4.0-1.32","","<img src=""img/red-r.png"" border=""10"">","null","trial","32","","0.8,0.2","1:go_a","1",""
"null","","html-keyboard-response","137","300512","0.0-4.0-2.32","","<div style=""font-size:60px;"">+</div>","null","","","","","","",""
"null","","image-keyboard-response","138","302022","0.0-4.0-0.33","","img/orange.png","null","trial","null","true","0.2,0.8","2:nogo_b","",""
"null","","html-keyboard-response","139","303036","0.0-4.0-1.33","","<img src=""img/orange-r.png"">","null","trial","null","","0.2,0.8","2:nogo_b","1",""
"null","","html-keyboard-response","140","304041","0.0-4.0-2.33","","<div style=""font-size:60px;"">+</div>","null","","","","","","",""
"899.3449998088181","","image-keyboard-response","141","304942","0.0-4.0-0.34","","img/orange.png","32","trial","null","false","0.2,0.8","2:nogo_b","",""
"null","","html-keyboard-response","142","305947","0.0-4.0-1.34","","<img src=""img/orange-r.png"" border=""10"">","null","trial","null","","0.2,0.8","2:nogo_b","1",""
"null","","html-keyboard-response","143","306959","0.0-4.0-2.34","","<div style=""font-size:60px;"">+</div>","null","","","","","","",""
"null","","image-keyboard-response","144","308470","0.0-4.0-0.35","","img/red.png","null","trial","32","false","0.8,0.2","1:go_a","",""
"null","","html-keyboard-response","145","309487","0.0-4.0-1.35","","<img src=""img/red-n.png"">","null","trial","32","","0.8,0.2","1:go_a","0",""
"null","","html-keyboard-response","146","310493","0.0-4.0-2.35","","<div style=""font-size:60px;"">+</div>","null","","","","","","",""
"664.8500002920628","","image-keyboard-response","147","311160","0.0-4.0-0.36","","img/orange.png","32","trial","null","false","0.2,0.8","2:nogo_b","",""
"null","","html-keyboard-response","148","312168","0.0-4.0-1.36","","<img src=""img/orange-n.png"" border=""10"">","null","trial","null","","0.2,0.8","2:nogo_b","0",""
"null","","html-keyboard-response","149","313181","0.0-4.0-2.36","","<div style=""font-size:60px;"">+</div>","null","","","","","","",""
"499.6299999766052","","image-keyboard-response","150","313684","0.0-4.0-0.37","","img/red.png","32","trial","32","true","0.8,0.2","1:go_a","",""
"null","","html-keyboard-response","151","314689","0.0-4.0-1.37","","<img src=""img/red-r.png"" border=""10"">","null","trial","32","","0.8,0.2","1:go_a","1",""
"null","","html-keyboard-response","152","315694","0.0-4.0-2.37","","<div style=""font-size:60px;"">+</div>","null","","","","","","",""
"864.340000320226","","image-keyboard-response","153","316560","0.0-4.0-0.38","","img/red.png","32","trial","32","true","0.8,0.2","1:go_a","",""
"null","","html-keyboard-response","154","317568","0.0-4.0-1.38","","<img src=""img/red-r.png"" border=""10"">","null","trial","32","","0.8,0.2","1:go_a","1",""
"null","","html-keyboard-response","155","318579","0.0-4.0-2.38","","<div style=""font-size:60px;"">+</div>","null","","","","","","",""
"null","","image-keyboard-response","156","320082","0.0-4.0-0.39","","img/orange.png","null","trial","null","true","0.2,0.8","2:nogo_b","",""
"null","","html-keyboard-response","157","321086","0.0-4.0-1.39","","<img src=""img/orange-r.png"">","null","trial","null","","0.2,0.8","2:nogo_b","1",""
"null","","html-keyboard-response","158","322104","0.0-4.0-2.39","","<div style=""font-size:60px;"">+</div>","null","","","","","","",""
"813.7199999764562","","image-keyboard-response","159","322921","0.0-4.0-0.40","","img/orange.png","32","trial","null","false","0.2,0.8","2:nogo_b","",""
"null","","html-keyboard-response","160","323924","0.0-4.0-1.40","","<img src=""img/orange-r.png"" border=""10"">","null","trial","null","","0.2,0.8","2:nogo_b","1",""
"null","","html-keyboard-response","161","324927","0.0-4.0-2.40","","<div style=""font-size:60px;"">+</div>","null","","","","","","",""
"null","","image-keyboard-response","162","326430","0.0-4.0-0.41","","img/red.png","null","trial","32","false","0.8,0.2","1:go_a","",""
"null","","html-keyboard-response","163","327446","0.0-4.0-1.41","","<img src=""img/red-r.png"">","null","trial","32","","0.8,0.2","1:go_a","1",""
"null","","html-keyboard-response","164","328463","0.0-4.0-2.41","","<div style=""font-size:60px;"">+</div>","null","","","","","","",""
"853.9299997501075","","image-keyboard-response","165","329319","0.0-4.0-0.42","","img/orange.png","32","trial","null","false","0.2,0.8","2:nogo_b","",""
"null","","html-keyboard-response","166","330327","0.0-4.0-1.42","","<img src=""img/orange-n.png"" border=""10"">","null","trial","null","","0.2,0.8","2:nogo_b","0",""
"null","","html-keyboard-response","167","331342","0.0-4.0-2.42","","<div style=""font-size:60px;"">+</div>","null","","","","","","",""
"593.4799998067319","","image-keyboard-response","168","331938","0.0-4.0-0.43","","img/red.png","32","trial","32","true","0.8,0.2","1:go_a","",""
"null","","html-keyboard-response","169","332958","0.0-4.0-1.43","","<img src=""img/red-r.png"" border=""10"">","null","trial","32","","0.8,0.2","1:go_a","1",""
"null","","html-keyboard-response","170","333973","0.0-4.0-2.43","","<div style=""font-size:60px;"">+</div>","null","","","","","","",""
"757.5400001369417","","image-keyboard-response","171","334733","0.0-4.0-0.44","","img/red.png","32","trial","32","true","0.8,0.2","1:go_a","",""
"null","","html-keyboard-response","172","335761","0.0-4.0-1.44","","<img src=""img/red-n.png"" border=""10"">","null","trial","32","","0.8,0.2","1:go_a","0",""
"null","","html-keyboard-response","173","336764","0.0-4.0-2.44","","<div style=""font-size:60px;"">+</div>","null","","","","","","",""
"1360.635000281036","","image-keyboard-response","174","338128","0.0-4.0-0.45","","img/orange.png","32","trial","null","false","0.2,0.8","2:nogo_b","",""
"null","","html-keyboard-response","175","339144","0.0-4.0-1.45","","<img src=""img/orange-n.png"" border=""10"">","null","trial","null","","0.2,0.8","2:nogo_b","0",""
"null","","html-keyboard-response","176","340147","0.0-4.0-2.45","","<div style=""font-size:60px;"">+</div>","null","","","","","","",""
"807.289999909699","","image-keyboard-response","177","340956","0.0-4.0-0.46","","img/red.png","32","trial","32","true","0.8,0.2","1:go_a","",""
"null","","html-keyboard-response","178","341961","0.0-4.0-1.46","","<img src=""img/red-r.png"" border=""10"">","null","trial","32","","0.8,0.2","1:go_a","1",""
"null","","html-keyboard-response","179","342966","0.0-4.0-2.46","","<div style=""font-size:60px;"">+</div>","null","","","","","","",""
"null","","image-keyboard-response","180","344471","0.0-4.0-0.47","","img/orange.png","null","trial","null","true","0.2,0.8","2:nogo_b","",""
"null","","html-keyboard-response","181","345482","0.0-4.0-1.47","","<img src=""img/orange-r.png"">","null","trial","null","","0.2,0.8","2:nogo_b","1",""
"null","","html-keyboard-response","182","346492","0.0-4.0-2.47","","<div style=""font-size:60px;"">+</div>","null","","","","","","",""
"537.3800001107156","","image-keyboard-response","183","347032","0.0-4.0-0.48","","img/orange.png","32","trial","null","false","0.2,0.8","2:nogo_b","",""
"null","","html-keyboard-response","184","348044","0.0-4.0-1.48","","<img src=""img/orange-n.png"" border=""10"">","null","trial","null","","0.2,0.8","2:nogo_b","0",""
"null","","html-keyboard-response","185","349061","0.0-4.0-2.48","","<div style=""font-size:60px;"">+</div>","null","","","","","","",""
"511.204999871552","","image-keyboard-response","186","349574","0.0-4.0-0.49","","img/red.png","32","trial","32","true","0.8,0.2","1:go_a","",""
"null","","html-keyboard-response","187","350587","0.0-4.0-1.49","","<img src=""img/red-r.png"" border=""10"">","null","trial","32","","0.8,0.2","1:go_a","1",""
"null","","html-keyboard-response","188","351606","0.0-4.0-2.49","","<div style=""font-size:60px;"">+</div>","null","","","","","","",""
"829.535000026226","","image-keyboard-response","189","352441","0.0-4.0-0.50","","img/orange.png","32","trial","null","false","0.2,0.8","2:nogo_b","",""
"null","","html-keyboard-response","190","353462","0.0-4.0-1.50","","<img src=""img/orange-n.png"" border=""10"">","null","trial","null","","0.2,0.8","2:nogo_b","0",""
"null","","html-keyboard-response","191","354475","0.0-4.0-2.50","","<div style=""font-size:60px;"">+</div>","null","","","","","","",""
"551.0200001299381","","image-keyboard-response","192","355029","0.0-4.0-0.51","","img/red.png","32","trial","32","true","0.8,0.2","1:go_a","",""
"null","","html-keyboard-response","193","356046","0.0-4.0-1.51","","<img src=""img/red-r.png"" border=""10"">","null","trial","32","","0.8,0.2","1:go_a","1",""
"null","","html-keyboard-response","194","357073","0.0-4.0-2.51","","<div style=""font-size:60px;"">+</div>","null","","","","","","",""
"953.0150000937283","","image-keyboard-response","195","358028","0.0-4.0-0.52","","img/red.png","32","trial","32","true","0.8,0.2","1:go_a","",""
"null","","html-keyboard-response","196","359045","0.0-4.0-1.52","","<img src=""img/red-n.png"" border=""10"">","null","trial","32","","0.8,0.2","1:go_a","0",""
"null","","html-keyboard-response","197","360060","0.0-4.0-2.52","","<div style=""font-size:60px;"">+</div>","null","","","","","","",""
"860.4100001975894","","image-keyboard-response","198","360923","0.0-4.0-0.53","","img/orange.png","32","trial","null","false","0.2,0.8","2:nogo_b","",""
"null","","html-keyboard-response","199","361935","0.0-4.0-1.53","","<img src=""img/orange-n.png"" border=""10"">","null","trial","null","","0.2,0.8","2:nogo_b","0",""
"null","","html-keyboard-response","200","362950","0.0-4.0-2.53","","<div style=""font-size:60px;"">+</div>","null","","","","","","",""
"604.079999960959","","image-keyboard-response","201","363556","0.0-4.0-0.54","","img/orange.png","32","trial","null","false","0.2,0.8","2:nogo_b","",""
"null","","html-keyboard-response","202","364568","0.0-4.0-1.54","","<img src=""img/orange-n.png"" border=""10"">","null","trial","null","","0.2,0.8","2:nogo_b","0",""
"null","","html-keyboard-response","203","365576","0.0-4.0-2.54","","<div style=""font-size:60px;"">+</div>","null","","","","","","",""
"544.4800001569092","","image-keyboard-response","204","366123","0.0-4.0-0.55","","img/red.png","32","trial","32","true","0.8,0.2","1:go_a","",""
"null","","html-keyboard-response","205","367131","0.0-4.0-1.55","","<img src=""img/red-r.png"" border=""10"">","null","trial","32","","0.8,0.2","1:go_a","1",""
"null","","html-keyboard-response","206","368145","0.0-4.0-2.55","","<div style=""font-size:60px;"">+</div>","null","","","","","","",""
"645.5049999058247","","image-keyboard-response","207","368792","0.0-4.0-0.56","","img/red.png","32","trial","32","true","0.8,0.2","1:go_a","",""
"null","","html-keyboard-response","208","369809","0.0-4.0-1.56","","<img src=""img/red-r.png"" border=""10"">","null","trial","32","","0.8,0.2","1:go_a","1",""
"null","","html-keyboard-response","209","370815","0.0-4.0-2.56","","<div style=""font-size:60px;"">+</div>","null","","","","","","",""
"1433.3599996753037","","image-keyboard-response","210","372250","0.0-4.0-0.57","","img/orange.png","32","trial","null","false","0.2,0.8","2:nogo_b","",""
"null","","html-keyboard-response","211","373264","0.0-4.0-1.57","","<img src=""img/orange-n.png"" border=""10"">","null","trial","null","","0.2,0.8","2:nogo_b","0",""
"null","","html-keyboard-response","212","374272","0.0-4.0-2.57","","<div style=""font-size:60px;"">+</div>","null","","","","","","",""
"836.0000001266599","","image-keyboard-response","213","375110","0.0-4.0-0.58","","img/red.png","32","trial","32","true","0.8,0.2","1:go_a","",""
"null","","html-keyboard-response","214","376119","0.0-4.0-1.58","","<img src=""img/red-n.png"" border=""10"">","null","trial","32","","0.8,0.2","1:go_a","0",""
"null","","html-keyboard-response","215","377129","0.0-4.0-2.58","","<div style=""font-size:60px;"">+</div>","null","","","","","","",""
"603.7949998863041","","image-keyboard-response","216","377737","0.0-4.0-0.59","","img/orange.png","32","trial","null","false","0.2,0.8","2:nogo_b","",""
"null","","html-keyboard-response","217","378743","0.0-4.0-1.59","","<img src=""img/orange-n.png"" border=""10"">","null","trial","null","","0.2,0.8","2:nogo_b","0",""
"null","","html-keyboard-response","218","379758","0.0-4.0-2.59","","<div style=""font-size:60px;"">+</div>","null","","","","","","",""
"7305.80999981612","","instructions","219","387065","0.0-5.0","[{""page_index"":0,""viewing_time"":7305.2099999040365}]","","","","","","","","",""
"1347.8949996642768","","image-keyboard-response","220","388416","0.0-6.0-0.0","","img/red.png","32","trial","32","true","1,0","3:go_c","",""
"null","","html-keyboard-response","221","389435","0.0-6.0-1.0","","<img src=""img/red-r.png"" border=""10"">","null","trial","32","","1,0","3:go_c","1",""
"null","","html-keyboard-response","222","390443","0.0-6.0-2.0","","<div style=""font-size:60px;"">+</div>","null","","","","","","",""
"1055.555000435561","","image-keyboard-response","223","391501","0.0-6.0-0.1","","img/blue.png","32","trial","null","false","0,1","4:nogo_d","",""
"null","","html-keyboard-response","224","392506","0.0-6.0-1.1","","<img src=""img/blue-n.png"" border=""10"">","null","trial","null","","0,1","4:nogo_d","0",""
"null","","html-keyboard-response","225","393509","0.0-6.0-2.1","","<div style=""font-size:60px;"">+</div>","null","","","","","","",""
"529.1799996048212","","image-keyboard-response","226","394040","0.0-6.0-0.2","","img/yellow.png","32","trial","32","true","0.8,0.2","1:go_a","",""
"null","","html-keyboard-response","227","395048","0.0-6.0-1.2","","<img src=""img/yellow-r.png"" border=""10"">","null","trial","32","","0.8,0.2","1:go_a","1",""
"null","","html-keyboard-response","228","396056","0.0-6.0-2.2","","<div style=""font-size:60px;"">+</div>","null","","","","","","",""
"812.7600001171231","","image-keyboard-response","229","396871","0.0-6.0-0.3","","img/green.png","32","trial","null","false","0.2,0.8","2:nogo_b","",""
"null","","html-keyboard-response","230","397887","0.0-6.0-1.3","","<img src=""img/green-n.png"" border=""10"">","null","trial","null","","0.2,0.8","2:nogo_b","0",""
"null","","html-keyboard-response","231","398897","0.0-6.0-2.3","","<div style=""font-size:60px;"">+</div>","null","","","","","","",""
"null","","image-keyboard-response","232","400408","0.0-6.0-0.4","","img/green.png","null","trial","null","true","0.2,0.8","2:nogo_b","",""
"null","","html-keyboard-response","233","401428","0.0-6.0-1.4","","<img src=""img/green-r.png"">","null","trial","null","","0.2,0.8","2:nogo_b","1",""
"null","","html-keyboard-response","234","402433","0.0-6.0-2.4","","<div style=""font-size:60px;"">+</div>","null","","","","","","",""
"746.1049999110401","","image-keyboard-response","235","403181","0.0-6.0-0.5","","img/blue.png","32","trial","null","false","0,1","4:nogo_d","",""
"null","","html-keyboard-response","236","404195","0.0-6.0-1.5","","<img src=""img/blue-n.png"" border=""10"">","null","trial","null","","0,1","4:nogo_d","0",""
"null","","html-keyboard-response","237","405204","0.0-6.0-2.5","","<div style=""font-size:60px;"">+</div>","null","","","","","","",""
"474.8949999921024","","image-keyboard-response","238","405687","0.0-6.0-0.6","","img/red.png","32","trial","32","true","1,0","3:go_c","",""
"null","","html-keyboard-response","239","406695","0.0-6.0-1.6","","<img src=""img/red-r.png"" border=""10"">","null","trial","32","","1,0","3:go_c","1",""
"null","","html-keyboard-response","240","407705","0.0-6.0-2.6","","<div style=""font-size:60px;"">+</div>","null","","","","","","",""
"593.9850001595914","","image-keyboard-response","241","408302","0.0-6.0-0.7","","img/yellow.png","32","trial","32","true","0.8,0.2","1:go_a","",""
"null","","html-keyboard-response","242","409307","0.0-6.0-1.7","","<img src=""img/yellow-r.png"" border=""10"">","null","trial","32","","0.8,0.2","1:go_a","1",""
"null","","html-keyboard-response","243","410325","0.0-6.0-2.7","","<div style=""font-size:60px;"">+</div>","null","","","","","","",""
"1260.2599998936057","","image-keyboard-response","244","411588","0.0-6.0-0.8","","img/green.png","32","trial","null","false","0.2,0.8","2:nogo_b","",""
"null","","html-keyboard-response","245","412602","0.0-6.0-1.8","","<img src=""img/green-n.png"" border=""10"">","null","trial","null","","0.2,0.8","2:nogo_b","0",""
"null","","html-keyboard-response","246","413607","0.0-6.0-2.8","","<div style=""font-size:60px;"">+</div>","null","","","","","","",""
"null","","image-keyboard-response","247","415122","0.0-6.0-0.9","","img/blue.png","null","trial","null","true","0,1","4:nogo_d","",""
"null","","html-keyboard-response","248","416191","0.0-6.0-1.9","","<img src=""img/blue-r.png"">","null","trial","null","","0,1","4:nogo_d","1",""
"null","","html-keyboard-response","249","417203","0.0-6.0-2.9","","<div style=""font-size:60px;"">+</div>","null","","","","","","",""
"919.0799999050796","","image-keyboard-response","250","418126","0.0-6.0-0.10","","img/yellow.png","32","trial","32","true","0.8,0.2","1:go_a","",""
"null","","html-keyboard-response","251","419130","0.0-6.0-1.10","","<img src=""img/yellow-r.png"" border=""10"">","null","trial","32","","0.8,0.2","1:go_a","1",""
"null","","html-keyboard-response","252","420136","0.0-6.0-2.10","","<div style=""font-size:60px;"">+</div>","null","","","","","","",""
"698.0449999682605","","image-keyboard-response","253","420837","0.0-6.0-0.11","","img/red.png","32","trial","32","true","1,0","3:go_c","",""
"null","","html-keyboard-response","254","421841","0.0-6.0-1.11","","<img src=""img/red-r.png"" border=""10"">","null","trial","32","","1,0","3:go_c","1",""
"null","","html-keyboard-response","255","422850","0.0-6.0-2.11","","<div style=""font-size:60px;"">+</div>","null","","","","","","",""
"763.8900000602007","","image-keyboard-response","256","423616","0.0-6.0-0.12","","img/yellow.png","32","trial","32","true","0.8,0.2","1:go_a","",""
"null","","html-keyboard-response","257","424632","0.0-6.0-1.12","","<img src=""img/yellow-r.png"" border=""10"">","null","trial","32","","0.8,0.2","1:go_a","1",""
"null","","html-keyboard-response","258","425642","0.0-6.0-2.12","","<div style=""font-size:60px;"">+</div>","null","","","","","","",""
"null","","image-keyboard-response","259","427154","0.0-6.0-0.13","","img/green.png","null","trial","null","true","0.2,0.8","2:nogo_b","",""
"null","","html-keyboard-response","260","428171","0.0-6.0-1.13","","<img src=""img/green-r.png"">","null","trial","null","","0.2,0.8","2:nogo_b","1",""
"null","","html-keyboard-response","261","429177","0.0-6.0-2.13","","<div style=""font-size:60px;"">+</div>","null","","","","","","",""
"551.8000000156462","","image-keyboard-response","262","429731","0.0-6.0-0.14","","img/blue.png","32","trial","null","false","0,1","4:nogo_d","",""
"null","","html-keyboard-response","263","430741","0.0-6.0-1.14","","<img src=""img/blue-n.png"" border=""10"">","null","trial","null","","0,1","4:nogo_d","0",""
"null","","html-keyboard-response","264","431755","0.0-6.0-2.14","","<div style=""font-size:60px;"">+</div>","null","","","","","","",""
"524.2899996228516","","image-keyboard-response","265","432281","0.0-6.0-0.15","","img/red.png","32","trial","32","true","1,0","3:go_c","",""
"null","","html-keyboard-response","266","433286","0.0-6.0-1.15","","<img src=""img/red-r.png"" border=""10"">","null","trial","32","","1,0","3:go_c","1",""
"null","","html-keyboard-response","267","434298","0.0-6.0-2.15","","<div style=""font-size:60px;"">+</div>","null","","","","","","",""
"929.6149997971952","","image-keyboard-response","268","435230","0.0-6.0-0.16","","img/blue.png","32","trial","null","false","0,1","4:nogo_d","",""
"null","","html-keyboard-response","269","436261","0.0-6.0-1.16","","<img src=""img/blue-n.png"" border=""10"">","null","trial","null","","0,1","4:nogo_d","0",""
"null","","html-keyboard-response","270","437279","0.0-6.0-2.16","","<div style=""font-size:60px;"">+</div>","null","","","","","","",""
"495.1049997471273","","image-keyboard-response","271","437778","0.0-6.0-0.17","","img/green.png","32","trial","null","false","0.2,0.8","2:nogo_b","",""
"null","","html-keyboard-response","272","438792","0.0-6.0-1.17","","<img src=""img/green-r.png"" border=""10"">","null","trial","null","","0.2,0.8","2:nogo_b","1",""
"null","","html-keyboard-response","273","439805","0.0-6.0-2.17","","<div style=""font-size:60px;"">+</div>","null","","","","","","",""
"622.3050002008677","","image-keyboard-response","274","440430","0.0-6.0-0.18","","img/red.png","32","trial","32","true","1,0","3:go_c","",""
"null","","html-keyboard-response","275","441440","0.0-6.0-1.18","","<img src=""img/red-r.png"" border=""10"">","null","trial","32","","1,0","3:go_c","1",""
"null","","html-keyboard-response","276","442455","0.0-6.0-2.18","","<div style=""font-size:60px;"">+</div>","null","","","","","","",""
"579.799999948591","","image-keyboard-response","277","443038","0.0-6.0-0.19","","img/yellow.png","32","trial","32","true","0.8,0.2","1:go_a","",""
"null","","html-keyboard-response","278","444055","0.0-6.0-1.19","","<img src=""img/yellow-n.png"" border=""10"">","null","trial","32","","0.8,0.2","1:go_a","0",""
"null","","html-keyboard-response","279","445071","0.0-6.0-2.19","","<div style=""font-size:60px;"">+</div>","null","","","","","","",""
"587.500000372529","","image-keyboard-response","280","445661","0.0-6.0-0.20","","img/red.png","32","trial","32","true","1,0","3:go_c","",""
"null","","html-keyboard-response","281","446671","0.0-6.0-1.20","","<img src=""img/red-r.png"" border=""10"">","null","trial","32","","1,0","3:go_c","1",""
"null","","html-keyboard-response","282","447677","0.0-6.0-2.20","","<div style=""font-size:60px;"">+</div>","null","","","","","","",""
"867.3600000329316","","image-keyboard-response","283","448547","0.0-6.0-0.21","","img/yellow.png","32","trial","32","true","0.8,0.2","1:go_a","",""
"null","","html-keyboard-response","284","449555","0.0-6.0-1.21","","<img src=""img/yellow-r.png"" border=""10"">","null","trial","32","","0.8,0.2","1:go_a","1",""
"null","","html-keyboard-response","285","450569","0.0-6.0-2.21","","<div style=""font-size:60px;"">+</div>","null","","","","","","",""
"763.9799998141825","","image-keyboard-response","286","451335","0.0-6.0-0.22","","img/green.png","32","trial","null","false","0.2,0.8","2:nogo_b","",""
"null","","html-keyboard-response","287","452353","0.0-6.0-1.22","","<img src=""img/green-n.png"" border=""10"">","null","trial","null","","0.2,0.8","2:nogo_b","0",""
"null","","html-keyboard-response","288","453363","0.0-6.0-2.22","","<div style=""font-size:60px;"">+</div>","null","","","","","","",""
"716.1449999548495","","image-keyboard-response","289","454082","0.0-6.0-0.23","","img/blue.png","32","trial","null","false","0,1","4:nogo_d","",""
"null","","html-keyboard-response","290","455101","0.0-6.0-1.23","","<img src=""img/blue-n.png"" border=""10"">","null","trial","null","","0,1","4:nogo_d","0",""
"null","","html-keyboard-response","291","456131","0.0-6.0-2.23","","<div style=""font-size:60px;"">+</div>","null","","","","","","",""
"760.0849997252226","","image-keyboard-response","292","456893","0.0-6.0-0.24","","img/green.png","32","trial","null","false","0.2,0.8","2:nogo_b","",""
"null","","html-keyboard-response","293","457897","0.0-6.0-1.24","","<img src=""img/green-n.png"" border=""10"">","null","trial","null","","0.2,0.8","2:nogo_b","0",""
"null","","html-keyboard-response","294","458920","0.0-6.0-2.24","","<div style=""font-size:60px;"">+</div>","null","","","","","","",""
"550.4999998956919","","image-keyboard-response","295","459474","0.0-6.0-0.25","","img/blue.png","32","trial","null","false","0,1","4:nogo_d","",""
"null","","html-keyboard-response","296","460478","0.0-6.0-1.25","","<img src=""img/blue-n.png"" border=""10"">","null","trial","null","","0,1","4:nogo_d","0",""
"null","","html-keyboard-response","297","461493","0.0-6.0-2.25","","<div style=""font-size:60px;"">+</div>","null","","","","","","",""
"634.2599997296929","","image-keyboard-response","298","462130","0.0-6.0-0.26","","img/red.png","32","trial","32","true","1,0","3:go_c","",""
"null","","html-keyboard-response","299","463142","0.0-6.0-1.26","","<img src=""img/red-r.png"" border=""10"">","null","trial","32","","1,0","3:go_c","1",""
"null","","html-keyboard-response","300","464150","0.0-6.0-2.26","","<div style=""font-size:60px;"">+</div>","null","","","","","","",""
"518.8850001432002","","image-keyboard-response","301","464672","0.0-6.0-0.27","","img/yellow.png","32","trial","32","true","0.8,0.2","1:go_a","",""
"null","","html-keyboard-response","302","465687","0.0-6.0-1.27","","<img src=""img/yellow-n.png"" border=""10"">","null","trial","32","","0.8,0.2","1:go_a","0",""
"null","","html-keyboard-response","303","466693","0.0-6.0-2.27","","<div style=""font-size:60px;"">+</div>","null","","","","","","",""
"766.1150000058115","","image-keyboard-response","304","467462","0.0-6.0-0.28","","img/yellow.png","32","trial","32","true","0.8,0.2","1:go_a","",""
"null","","html-keyboard-response","305","468474","0.0-6.0-1.28","","<img src=""img/yellow-r.png"" border=""10"">","null","trial","32","","0.8,0.2","1:go_a","1",""
"null","","html-keyboard-response","306","469491","0.0-6.0-2.28","","<div style=""font-size:60px;"">+</div>","null","","","","","","",""
"756.7400000989437","","image-keyboard-response","307","470254","0.0-6.0-0.29","","img/blue.png","32","trial","null","false","0,1","4:nogo_d","",""
"null","","html-keyboard-response","308","471261","0.0-6.0-1.29","","<img src=""img/blue-n.png"" border=""10"">","null","trial","null","","0,1","4:nogo_d","0",""
"null","","html-keyboard-response","309","472265","0.0-6.0-2.29","","<div style=""font-size:60px;"">+</div>","null","","","","","","",""
"619.1800003871322","","image-keyboard-response","310","472886","0.0-6.0-0.30","","img/red.png","32","trial","32","true","1,0","3:go_c","",""
"null","","html-keyboard-response","311","473904","0.0-6.0-1.30","","<img src=""img/red-r.png"" border=""10"">","null","trial","32","","1,0","3:go_c","1",""
"null","","html-keyboard-response","312","474913","0.0-6.0-2.30","","<div style=""font-size:60px;"">+</div>","null","","","","","","",""
"668.0650003254414","","image-keyboard-response","313","475584","0.0-6.0-0.31","","img/green.png","32","trial","null","false","0.2,0.8","2:nogo_b","",""
"null","","html-keyboard-response","314","476591","0.0-6.0-1.31","","<img src=""img/green-n.png"" border=""10"">","null","trial","null","","0.2,0.8","2:nogo_b","0",""
"null","","html-keyboard-response","315","477604","0.0-6.0-2.31","","<div style=""font-size:60px;"">+</div>","null","","","","","","",""
"null","","image-keyboard-response","316","479120","0.0-6.0-0.32","","img/blue.png","null","trial","null","true","0,1","4:nogo_d","",""
"null","","html-keyboard-response","317","480141","0.0-6.0-1.32","","<img src=""img/blue-r.png"">","null","trial","null","","0,1","4:nogo_d","1",""
"null","","html-keyboard-response","318","481148","0.0-6.0-2.32","","<div style=""font-size:60px;"">+</div>","null","","","","","","",""
"697.5500001572073","","image-keyboard-response","319","481848","0.0-6.0-0.33","","img/yellow.png","32","trial","32","true","0.8,0.2","1:go_a","",""
"null","","html-keyboard-response","320","482853","0.0-6.0-1.33","","<img src=""img/yellow-r.png"" border=""10"">","null","trial","32","","0.8,0.2","1:go_a","1",""
"null","","html-keyboard-response","321","483857","0.0-6.0-2.33","","<div style=""font-size:60px;"">+</div>","null","","","","","","",""
"713.7950002215803","","image-keyboard-response","322","484574","0.0-6.0-0.34","","img/red.png","32","trial","32","true","1,0","3:go_c","",""
"null","","html-keyboard-response","323","485593","0.0-6.0-1.34","","<img src=""img/red-r.png"" border=""10"">","null","trial","32","","1,0","3:go_c","1",""
"null","","html-keyboard-response","324","486601","0.0-6.0-2.34","","<div style=""font-size:60px;"">+</div>","null","","","","","","",""
"1179.6300001442432","","image-keyboard-response","325","487782","0.0-6.0-0.35","","img/green.png","32","trial","null","false","0.2,0.8","2:nogo_b","",""
"null","","html-keyboard-response","326","488792","0.0-6.0-1.35","","<img src=""img/green-n.png"" border=""10"">","null","trial","null","","0.2,0.8","2:nogo_b","0",""
"null","","html-keyboard-response","327","489807","0.0-6.0-2.35","","<div style=""font-size:60px;"">+</div>","null","","","","","","",""
"788.0450002849102","","image-keyboard-response","328","490598","0.0-6.0-0.36","","img/green.png","32","trial","null","false","0.2,0.8","2:nogo_b","",""
"null","","html-keyboard-response","329","491615","0.0-6.0-1.36","","<img src=""img/green-n.png"" border=""10"">","null","trial","null","","0.2,0.8","2:nogo_b","0",""
"null","","html-keyboard-response","330","492626","0.0-6.0-2.36","","<div style=""font-size:60px;"">+</div>","null","","","","","","",""
"681.600000243634","","image-keyboard-response","331","493310","0.0-6.0-0.37","","img/yellow.png","32","trial","32","true","0.8,0.2","1:go_a","",""
"null","","html-keyboard-response","332","494324","0.0-6.0-1.37","","<img src=""img/yellow-r.png"" border=""10"">","null","trial","32","","0.8,0.2","1:go_a","1",""
"null","","html-keyboard-response","333","495342","0.0-6.0-2.37","","<div style=""font-size:60px;"">+</div>","null","","","","","","",""
"628.0450001358986","","image-keyboard-response","334","495972","0.0-6.0-0.38","","img/red.png","32","trial","32","true","1,0","3:go_c","",""
"null","","html-keyboard-response","335","496977","0.0-6.0-1.38","","<img src=""img/red-r.png"" border=""10"">","null","trial","32","","1,0","3:go_c","1",""
"null","","html-keyboard-response","336","497991","0.0-6.0-2.38","","<div style=""font-size:60px;"">+</div>","null","","","","","","",""
"null","","image-keyboard-response","337","499502","0.0-6.0-0.39","","img/blue.png","null","trial","null","true","0,1","4:nogo_d","",""
"null","","html-keyboard-response","338","500508","0.0-6.0-1.39","","<img src=""img/blue-r.png"">","null","trial","null","","0,1","4:nogo_d","1",""
"null","","html-keyboard-response","339","501522","0.0-6.0-2.39","","<div style=""font-size:60px;"">+</div>","null","","","","","","",""
"818.5549997724593","","image-keyboard-response","340","502343","0.0-6.0-0.40","","img/green.png","32","trial","null","false","0.2,0.8","2:nogo_b","",""
"null","","html-keyboard-response","341","503355","0.0-6.0-1.40","","<img src=""img/green-n.png"" border=""10"">","null","trial","null","","0.2,0.8","2:nogo_b","0",""
"null","","html-keyboard-response","342","504361","0.0-6.0-2.40","","<div style=""font-size:60px;"">+</div>","null","","","","","","",""
"500.5049998871982","","image-keyboard-response","343","504864","0.0-6.0-0.41","","img/blue.png","32","trial","null","false","0,1","4:nogo_d","",""
"null","","html-keyboard-response","344","505874","0.0-6.0-1.41","","<img src=""img/blue-n.png"" border=""10"">","null","trial","null","","0,1","4:nogo_d","0",""
"null","","html-keyboard-response","345","506877","0.0-6.0-2.41","","<div style=""font-size:60px;"">+</div>","null","","","","","","",""
"641.9299999251962","","image-keyboard-response","346","507521","0.0-6.0-0.42","","img/red.png","32","trial","32","true","1,0","3:go_c","",""
"null","","html-keyboard-response","347","508532","0.0-6.0-1.42","","<img src=""img/red-r.png"" border=""10"">","null","trial","32","","1,0","3:go_c","1",""
"null","","html-keyboard-response","348","509549","0.0-6.0-2.42","","<div style=""font-size:60px;"">+</div>","null","","","","","","",""
"753.5300003364682","","image-keyboard-response","349","510305","0.0-6.0-0.43","","img/yellow.png","32","trial","32","true","0.8,0.2","1:go_a","",""
"null","","html-keyboard-response","350","511322","0.0-6.0-1.43","","<img src=""img/yellow-r.png"" border=""10"">","null","trial","32","","0.8,0.2","1:go_a","1",""
"null","","html-keyboard-response","351","512338","0.0-6.0-2.43","","<div style=""font-size:60px;"">+</div>","null","","","","","","",""
"697.6350001059473","","image-keyboard-response","352","513038","0.0-6.0-0.44","","img/red.png","32","trial","32","true","1,0","3:go_c","",""
"null","","html-keyboard-response","353","514050","0.0-6.0-1.44","","<img src=""img/red-r.png"" border=""10"">","null","trial","32","","1,0","3:go_c","1",""
"null","","html-keyboard-response","354","515073","0.0-6.0-2.44","","<div style=""font-size:60px;"">+</div>","null","","","","","","",""
"899.7450000606477","","image-keyboard-response","355","515975","0.0-6.0-0.45","","img/blue.png","32","trial","null","false","0,1","4:nogo_d","",""
"null","","html-keyboard-response","356","516988","0.0-6.0-1.45","","<img src=""img/blue-n.png"" border=""10"">","null","trial","null","","0,1","4:nogo_d","0",""
"null","","html-keyboard-response","357","518004","0.0-6.0-2.45","","<div style=""font-size:60px;"">+</div>","null","","","","","","",""
"629.5700003392994","","image-keyboard-response","358","518636","0.0-6.0-0.46","","img/yellow.png","32","trial","32","true","0.8,0.2","1:go_a","",""
"null","","html-keyboard-response","359","519649","0.0-6.0-1.46","","<img src=""img/yellow-n.png"" border=""10"">","null","trial","32","","0.8,0.2","1:go_a","0",""
"null","","html-keyboard-response","360","520664","0.0-6.0-2.46","","<div style=""font-size:60px;"">+</div>","null","","","","","","",""
"666.6899998672307","","image-keyboard-response","361","521334","0.0-6.0-0.47","","img/green.png","32","trial","null","false","0.2,0.8","2:nogo_b","",""
"null","","html-keyboard-response","362","522353","0.0-6.0-1.47","","<img src=""img/green-n.png"" border=""10"">","null","trial","null","","0.2,0.8","2:nogo_b","0",""
"null","","html-keyboard-response","363","523362","0.0-6.0-2.47","","<div style=""font-size:60px;"">+</div>","null","","","","","","",""
"580.7750001549721","","image-keyboard-response","364","523945","0.0-6.0-0.48","","img/yellow.png","32","trial","32","true","0.8,0.2","1:go_a","",""
"null","","html-keyboard-response","365","524963","0.0-6.0-1.48","","<img src=""img/yellow-n.png"" border=""10"">","null","trial","32","","0.8,0.2","1:go_a","0",""
"null","","html-keyboard-response","366","525965","0.0-6.0-2.48","","<div style=""font-size:60px;"">+</div>","null","","","","","","",""
"561.4700000733137","","image-keyboard-response","367","526528","0.0-6.0-0.49","","img/red.png","32","trial","32","true","1,0","3:go_c","",""
"null","","html-keyboard-response","368","527553","0.0-6.0-1.49","","<img src=""img/red-r.png"" border=""10"">","null","trial","32","","1,0","3:go_c","1",""
"null","","html-keyboard-response","369","528558","0.0-6.0-2.49","","<div style=""font-size:60px;"">+</div>","null","","","","","","",""
"1199.0200001746416","","image-keyboard-response","370","529765","0.0-6.0-0.50","","img/blue.png","32","trial","null","false","0,1","4:nogo_d","",""
"null","","html-keyboard-response","371","530778","0.0-6.0-1.50","","<img src=""img/blue-n.png"" border=""10"">","null","trial","null","","0,1","4:nogo_d","0",""
"null","","html-keyboard-response","372","531783","0.0-6.0-2.50","","<div style=""font-size:60px;"">+</div>","null","","","","","","",""
"823.7149999476969","","image-keyboard-response","373","532609","0.0-6.0-0.51","","img/green.png","32","trial","null","false","0.2,0.8","2:nogo_b","",""
"null","","html-keyboard-response","374","533624","0.0-6.0-1.51","","<img src=""img/green-n.png"" border=""10"">","null","trial","null","","0.2,0.8","2:nogo_b","0",""
"null","","html-keyboard-response","375","534640","0.0-6.0-2.51","","<div style=""font-size:60px;"">+</div>","null","","","","","","",""
"909.4500001519918","","image-keyboard-response","376","535552","0.0-6.0-0.52","","img/green.png","32","trial","null","false","0.2,0.8","2:nogo_b","",""
"null","","html-keyboard-response","377","536563","0.0-6.0-1.52","","<img src=""img/green-r.png"" border=""10"">","null","trial","null","","0.2,0.8","2:nogo_b","1",""
"null","","html-keyboard-response","378","537573","0.0-6.0-2.52","","<div style=""font-size:60px;"">+</div>","null","","","","","","",""
"710.4899999685585","","image-keyboard-response","379","538287","0.0-6.0-0.53","","img/yellow.png","32","trial","32","true","0.8,0.2","1:go_a","",""
"null","","html-keyboard-response","380","539297","0.0-6.0-1.53","","<img src=""img/yellow-r.png"" border=""10"">","null","trial","32","","0.8,0.2","1:go_a","1",""
"null","","html-keyboard-response","381","540314","0.0-6.0-2.53","","<div style=""font-size:60px;"">+</div>","null","","","","","","",""
"561.0549999400973","","image-keyboard-response","382","540877","0.0-6.0-0.54","","img/red.png","32","trial","32","true","1,0","3:go_c","",""
"null","","html-keyboard-response","383","541892","0.0-6.0-1.54","","<img src=""img/red-r.png"" border=""10"">","null","trial","32","","1,0","3:go_c","1",""
"null","","html-keyboard-response","384","542895","0.0-6.0-2.54","","<div style=""font-size:60px;"">+</div>","null","","","","","","",""
"1317.0499997213483","","image-keyboard-response","385","544214","0.0-6.0-0.55","","img/blue.png","32","trial","null","false","0,1","4:nogo_d","",""
"null","","html-keyboard-response","386","545230","0.0-6.0-1.55","","<img src=""img/blue-n.png"" border=""10"">","null","trial","null","","0,1","4:nogo_d","0",""
"null","","html-keyboard-response","387","546239","0.0-6.0-2.55","","<div style=""font-size:60px;"">+</div>","null","","","","","","",""
"567.2300001606345","","image-keyboard-response","388","546808","0.0-6.0-0.56","","img/red.png","32","trial","32","true","1,0","3:go_c","",""
"null","","html-keyboard-response","389","547816","0.0-6.0-1.56","","<img src=""img/red-r.png"" border=""10"">","null","trial","32","","1,0","3:go_c","1",""
"null","","html-keyboard-response","390","548834","0.0-6.0-2.56","","<div style=""font-size:60px;"">+</div>","null","","","","","","",""
"null","","image-keyboard-response","391","550344","0.0-6.0-0.57","","img/green.png","null","trial","null","true","0.2,0.8","2:nogo_b","",""
"null","","html-keyboard-response","392","551351","0.0-6.0-1.57","","<img src=""img/green-r.png"">","null","trial","null","","0.2,0.8","2:nogo_b","1",""
"null","","html-keyboard-response","393","552357","0.0-6.0-2.57","","<div style=""font-size:60px;"">+</div>","null","","","","","","",""
"682.7750001102686","","image-keyboard-response","394","553042","0.0-6.0-0.58","","img/yellow.png","32","trial","32","true","0.8,0.2","1:go_a","",""
"null","","html-keyboard-response","395","554047","0.0-6.0-1.58","","<img src=""img/yellow-r.png"" border=""10"">","null","trial","32","","0.8,0.2","1:go_a","1",""
"null","","html-keyboard-response","396","555056","0.0-6.0-2.58","","<div style=""font-size:60px;"">+</div>","null","","","","","","",""
"null","","image-keyboard-response","397","556572","0.0-6.0-0.59","","img/blue.png","null","trial","null","true","0,1","4:nogo_d","",""
"null","","html-keyboard-response","398","557576","0.0-6.0-1.59","","<img src=""img/blue-r.png"">","null","trial","null","","0,1","4:nogo_d","1",""
"null","","html-keyboard-response","399","558591","0.0-6.0-2.59","","<div style=""font-size:60px;"">+</div>","null","","","","","","",""
"691.9450000859797","","image-keyboard-response","400","559285","0.0-6.0-0.60","","img/green.png","32","trial","null","false","0.2,0.8","2:nogo_b","",""
"null","","html-keyboard-response","401","560292","0.0-6.0-1.60","","<img src=""img/green-n.png"" border=""10"">","null","trial","null","","0.2,0.8","2:nogo_b","0",""
"null","","html-keyboard-response","402","561301","0.0-6.0-2.60","","<div style=""font-size:60px;"">+</div>","null","","","","","","",""
"532.1999997831881","","image-keyboard-response","403","561835","0.0-6.0-0.61","","img/yellow.png","32","trial","32","true","0.8,0.2","1:go_a","",""
"null","","html-keyboard-response","404","562854","0.0-6.0-1.61","","<img src=""img/yellow-r.png"" border=""10"">","null","trial","32","","0.8,0.2","1:go_a","1",""
"null","","html-keyboard-response","405","563866","0.0-6.0-2.61","","<div style=""font-size:60px;"">+</div>","null","","","","","","",""
"608.2550003193319","","image-keyboard-response","406","564477","0.0-6.0-0.62","","img/red.png","32","trial","32","true","1,0","3:go_c","",""
"null","","html-keyboard-response","407","565485","0.0-6.0-1.62","","<img src=""img/red-r.png"" border=""10"">","null","trial","32","","1,0","3:go_c","1",""
"null","","html-keyboard-response","408","566502","0.0-6.0-2.62","","<div style=""font-size:60px;"">+</div>","null","","","","","","",""
"931.319999974221","","image-keyboard-response","409","567436","0.0-6.0-0.63","","img/blue.png","32","trial","null","false","0,1","4:nogo_d","",""
"null","","html-keyboard-response","410","568444","0.0-6.0-1.63","","<img src=""img/blue-n.png"" border=""10"">","null","trial","null","","0,1","4:nogo_d","0",""
"null","","html-keyboard-response","411","569462","0.0-6.0-2.63","","<div style=""font-size:60px;"">+</div>","null","","","","","","",""
"539.3099999055266","","image-keyboard-response","412","570004","0.0-6.0-0.64","","img/red.png","32","trial","32","true","1,0","3:go_c","",""
"null","","html-keyboard-response","413","571022","0.0-6.0-1.64","","<img src=""img/red-r.png"" border=""10"">","null","trial","32","","1,0","3:go_c","1",""
"null","","html-keyboard-response","414","572033","0.0-6.0-2.64","","<div style=""font-size:60px;"">+</div>","null","","","","","","",""
"711.2300000153482","","image-keyboard-response","415","572747","0.0-6.0-0.65","","img/yellow.png","32","trial","32","true","0.8,0.2","1:go_a","",""
"null","","html-keyboard-response","416","573765","0.0-6.0-1.65","","<img src=""img/yellow-r.png"" border=""10"">","null","trial","32","","0.8,0.2","1:go_a","1",""
"null","","html-keyboard-response","417","574774","0.0-6.0-2.65","","<div style=""font-size:60px;"">+</div>","null","","","","","","",""
"1258.7999999523163","","image-keyboard-response","418","576035","0.0-6.0-0.66","","img/green.png","32","trial","null","false","0.2,0.8","2:nogo_b","",""
"null","","html-keyboard-response","419","577045","0.0-6.0-1.66","","<img src=""img/green-n.png"" border=""10"">","null","trial","null","","0.2,0.8","2:nogo_b","0",""
"null","","html-keyboard-response","420","578049","0.0-6.0-2.66","","<div style=""font-size:60px;"">+</div>","null","","","","","","",""
"906.7549998871982","","image-keyboard-response","421","578958","0.0-6.0-0.67","","img/blue.png","32","trial","null","false","0,1","4:nogo_d","",""
"null","","html-keyboard-response","422","579962","0.0-6.0-1.67","","<img src=""img/blue-n.png"" border=""10"">","null","trial","null","","0,1","4:nogo_d","0",""
"null","","html-keyboard-response","423","580968","0.0-6.0-2.67","","<div style=""font-size:60px;"">+</div>","null","","","","","","",""
"816.9950000010431","","image-keyboard-response","424","581786","0.0-6.0-0.68","","img/blue.png","32","trial","null","false","0,1","4:nogo_d","",""
"null","","html-keyboard-response","425","582811","0.0-6.0-1.68","","<img src=""img/blue-n.png"" border=""10"">","null","trial","null","","0,1","4:nogo_d","0",""
"null","","html-keyboard-response","426","583830","0.0-6.0-2.68","","<div style=""font-size:60px;"">+</div>","null","","","","","","",""
"573.5300001688302","","image-keyboard-response","427","584408","0.0-6.0-0.69","","img/yellow.png","32","trial","32","true","0.8,0.2","1:go_a","",""
"null","","html-keyboard-response","428","585415","0.0-6.0-1.69","","<img src=""img/yellow-r.png"" border=""10"">","null","trial","32","","0.8,0.2","1:go_a","1",""
"null","","html-keyboard-response","429","586433","0.0-6.0-2.69","","<div style=""font-size:60px;"">+</div>","null","","","","","","",""
"582.7699997462332","","image-keyboard-response","430","587017","0.0-6.0-0.70","","img/red.png","32","trial","32","true","1,0","3:go_c","",""
"null","","html-keyboard-response","431","588024","0.0-6.0-1.70","","<img src=""img/red-r.png"" border=""10"">","null","trial","32","","1,0","3:go_c","1",""
"null","","html-keyboard-response","432","589035","0.0-6.0-2.70","","<div style=""font-size:60px;"">+</div>","null","","","","","","",""
"null","","image-keyboard-response","433","590540","0.0-6.0-0.71","","img/green.png","null","trial","null","true","0.2,0.8","2:nogo_b","",""
"null","","html-keyboard-response","434","591553","0.0-6.0-1.71","","<img src=""img/green-r.png"">","null","trial","null","","0.2,0.8","2:nogo_b","1",""
"null","","html-keyboard-response","435","592568","0.0-6.0-2.71","","<div style=""font-size:60px;"">+</div>","null","","","","","","",""
"563.5899999178946","","image-keyboard-response","436","593133","0.0-6.0-0.72","","img/red.png","32","trial","32","true","1,0","3:go_c","",""
"null","","html-keyboard-response","437","594149","0.0-6.0-1.72","","<img src=""img/red-r.png"" border=""10"">","null","trial","32","","1,0","3:go_c","1",""
"null","","html-keyboard-response","438","595165","0.0-6.0-2.72","","<div style=""font-size:60px;"">+</div>","null","","","","","","",""
"1199.5350001379848","","image-keyboard-response","439","596367","0.0-6.0-0.73","","img/blue.png","32","trial","null","false","0,1","4:nogo_d","",""
"null","","html-keyboard-response","440","597383","0.0-6.0-1.73","","<img src=""img/blue-n.png"" border=""10"">","null","trial","null","","0,1","4:nogo_d","0",""
"null","","html-keyboard-response","441","598401","0.0-6.0-2.73","","<div style=""font-size:60px;"">+</div>","null","","","","","","",""
"903.494999743998","","image-keyboard-response","442","599307","0.0-6.0-0.74","","img/green.png","32","trial","null","false","0.2,0.8","2:nogo_b","",""
"null","","html-keyboard-response","443","600322","0.0-6.0-1.74","","<img src=""img/green-r.png"" border=""10"">","null","trial","null","","0.2,0.8","2:nogo_b","1",""
"null","","html-keyboard-response","444","601339","0.0-6.0-2.74","","<div style=""font-size:60px;"">+</div>","null","","","","","","",""
"761.1849997192621","","image-keyboard-response","445","602102","0.0-6.0-0.75","","img/yellow.png","32","trial","32","true","0.8,0.2","1:go_a","",""
"null","","html-keyboard-response","446","603119","0.0-6.0-1.75","","<img src=""img/yellow-r.png"" border=""10"">","null","trial","32","","0.8,0.2","1:go_a","1",""
"null","","html-keyboard-response","447","604147","0.0-6.0-2.75","","<div style=""font-size:60px;"">+</div>","null","","","","","","",""
"600.4699999466538","","image-keyboard-response","448","604749","0.0-6.0-0.76","","img/yellow.png","32","trial","32","true","0.8,0.2","1:go_a","",""
"null","","html-keyboard-response","449","605761","0.0-6.0-1.76","","<img src=""img/yellow-r.png"" border=""10"">","null","trial","32","","0.8,0.2","1:go_a","1",""
"null","","html-keyboard-response","450","606770","0.0-6.0-2.76","","<div style=""font-size:60px;"">+</div>","null","","","","","","",""
"1269.33000003919","","image-keyboard-response","451","608042","0.0-6.0-0.77","","img/green.png","32","trial","null","false","0.2,0.8","2:nogo_b","",""
"null","","html-keyboard-response","452","609054","0.0-6.0-1.77","","<img src=""img/green-n.png"" border=""10"">","null","trial","null","","0.2,0.8","2:nogo_b","0",""
"null","","html-keyboard-response","453","610060","0.0-6.0-2.77","","<div style=""font-size:60px;"">+</div>","null","","","","","","",""
"501.21999997645617","","image-keyboard-response","454","610563","0.0-6.0-0.78","","img/red.png","32","trial","32","true","1,0","3:go_c","",""
"null","","html-keyboard-response","455","611568","0.0-6.0-1.78","","<img src=""img/red-r.png"" border=""10"">","null","trial","32","","1,0","3:go_c","1",""
"null","","html-keyboard-response","456","612581","0.0-6.0-2.78","","<div style=""font-size:60px;"">+</div>","null","","","","","","",""
"null","","image-keyboard-response","457","614097","0.0-6.0-0.79","","img/blue.png","null","trial","null","true","0,1","4:nogo_d","",""
"null","","html-keyboard-response","458","615108","0.0-6.0-1.79","","<img src=""img/blue-r.png"">","null","trial","null","","0,1","4:nogo_d","1",""
"null","","html-keyboard-response","459","616178","0.0-6.0-2.79","","<div style=""font-size:60px;"">+</div>","null","","","","","","",""
"678.234999999404","","image-keyboard-response","460","616858","0.0-6.0-0.80","","img/blue.png","32","trial","null","false","0,1","4:nogo_d","",""
"null","","html-keyboard-response","461","617874","0.0-6.0-1.80","","<img src=""img/blue-n.png"" border=""10"">","null","trial","null","","0,1","4:nogo_d","0",""
"null","","html-keyboard-response","462","618888","0.0-6.0-2.80","","<div style=""font-size:60px;"">+</div>","null","","","","","","",""
"908.6250001564622","","image-keyboard-response","463","619799","0.0-6.0-0.81","","img/green.png","32","trial","null","false","0.2,0.8","2:nogo_b","",""
"null","","html-keyboard-response","464","620812","0.0-6.0-1.81","","<img src=""img/green-n.png"" border=""10"">","null","trial","null","","0.2,0.8","2:nogo_b","0",""
"null","","html-keyboard-response","465","621824","0.0-6.0-2.81","","<div style=""font-size:60px;"">+</div>","null","","","","","","",""
"671.2149996310472","","image-keyboard-response","466","622498","0.0-6.0-0.82","","img/red.png","32","trial","32","true","1,0","3:go_c","",""
"null","","html-keyboard-response","467","623517","0.0-6.0-1.82","","<img src=""img/red-r.png"" border=""10"">","null","trial","32","","1,0","3:go_c","1",""
"null","","html-keyboard-response","468","624521","0.0-6.0-2.82","","<div style=""font-size:60px;"">+</div>","null","","","","","","",""
"564.4099996425211","","image-keyboard-response","469","625088","0.0-6.0-0.83","","img/yellow.png","32","trial","32","true","0.8,0.2","1:go_a","",""
"null","","html-keyboard-response","470","626098","0.0-6.0-1.83","","<img src=""img/yellow-r.png"" border=""10"">","null","trial","32","","0.8,0.2","1:go_a","1",""
"null","","html-keyboard-response","471","627116","0.0-6.0-2.83","","<div style=""font-size:60px;"">+</div>","null","","","","","","",""
"815.5049998313189","","image-keyboard-response","472","627934","0.0-6.0-0.84","","img/red.png","32","trial","32","true","1,0","3:go_c","",""
"null","","html-keyboard-response","473","628947","0.0-6.0-1.84","","<img src=""img/red-r.png"" border=""10"">","null","trial","32","","1,0","3:go_c","1",""
"null","","html-keyboard-response","474","629959","0.0-6.0-2.84","","<div style=""font-size:60px;"">+</div>","null","","","","","","",""
"null","","image-keyboard-response","475","631476","0.0-6.0-0.85","","img/blue.png","null","trial","null","true","0,1","4:nogo_d","",""
"null","","html-keyboard-response","476","632489","0.0-6.0-1.85","","<img src=""img/blue-r.png"">","null","trial","null","","0,1","4:nogo_d","1",""
"null","","html-keyboard-response","477","633506","0.0-6.0-2.85","","<div style=""font-size:60px;"">+</div>","null","","","","","","",""
"704.4549998827279","","image-keyboard-response","478","634213","0.0-6.0-0.86","","img/green.png","32","trial","null","false","0.2,0.8","2:nogo_b","",""
"null","","html-keyboard-response","479","635223","0.0-6.0-1.86","","<img src=""img/green-n.png"" border=""10"">","null","trial","null","","0.2,0.8","2:nogo_b","0",""
"null","","html-keyboard-response","480","636228","0.0-6.0-2.86","","<div style=""font-size:60px;"">+</div>","null","","","","","","",""
"554.47500012815","","image-keyboard-response","481","636786","0.0-6.0-0.87","","img/yellow.png","32","trial","32","true","0.8,0.2","1:go_a","",""
"null","","html-keyboard-response","482","637797","0.0-6.0-1.87","","<img src=""img/yellow-r.png"" border=""10"">","null","trial","32","","0.8,0.2","1:go_a","1",""
"null","","html-keyboard-response","483","638804","0.0-6.0-2.87","","<div style=""font-size:60px;"">+</div>","null","","","","","","",""
"565.0349999777973","","image-keyboard-response","484","639372","0.0-6.0-0.88","","img/yellow.png","32","trial","32","true","0.8,0.2","1:go_a","",""
"null","","html-keyboard-response","485","640386","0.0-6.0-1.88","","<img src=""img/yellow-r.png"" border=""10"">","null","trial","32","","0.8,0.2","1:go_a","1",""
"null","","html-keyboard-response","486","641397","0.0-6.0-2.88","","<div style=""font-size:60px;"">+</div>","null","","","","","","",""
"813.1999997422099","","image-keyboard-response","487","642213","0.0-6.0-0.89","","img/green.png","32","trial","null","false","0.2,0.8","2:nogo_b","",""
"null","","html-keyboard-response","488","643225","0.0-6.0-1.89","","<img src=""img/green-r.png"" border=""10"">","null","trial","null","","0.2,0.8","2:nogo_b","1",""
"null","","html-keyboard-response","489","644241","0.0-6.0-2.89","","<div style=""font-size:60px;"">+</div>","null","","","","","","",""
"678.1549998559058","","image-keyboard-response","490","644922","0.0-6.0-0.90","","img/red.png","32","trial","32","true","1,0","3:go_c","",""
"null","","html-keyboard-response","491","645943","0.0-6.0-1.90","","<img src=""img/red-r.png"" border=""10"">","null","trial","32","","1,0","3:go_c","1",""
"null","","html-keyboard-response","492","646959","0.0-6.0-2.90","","<div style=""font-size:60px;"">+</div>","null","","","","","","",""
"1282.999999821186","","image-keyboard-response","493","648244","0.0-6.0-0.91","","img/blue.png","32","trial","null","false","0,1","4:nogo_d","",""
"null","","html-keyboard-response","494","649254","0.0-6.0-1.91","","<img src=""img/blue-n.png"" border=""10"">","null","trial","null","","0,1","4:nogo_d","0",""
"null","","html-keyboard-response","495","650268","0.0-6.0-2.91","","<div style=""font-size:60px;"">+</div>","null","","","","","","",""
"544.0299999900162","","image-keyboard-response","496","650813","0.0-6.0-0.92","","img/yellow.png","32","trial","32","true","0.8,0.2","1:go_a","",""
"null","","html-keyboard-response","497","651825","0.0-6.0-1.92","","<img src=""img/yellow-r.png"" border=""10"">","null","trial","32","","0.8,0.2","1:go_a","1",""
"null","","html-keyboard-response","498","652839","0.0-6.0-2.92","","<div style=""font-size:60px;"">+</div>","null","","","","","","",""
"879.9950000829995","","image-keyboard-response","499","653724","0.0-6.0-0.93","","img/blue.png","32","trial","null","false","0,1","4:nogo_d","",""
"null","","html-keyboard-response","500","654741","0.0-6.0-1.93","","<img src=""img/blue-n.png"" border=""10"">","null","trial","null","","0,1","4:nogo_d","0",""
"null","","html-keyboard-response","501","655744","0.0-6.0-2.93","","<div style=""font-size:60px;"">+</div>","null","","","","","","",""
"516.4650003425777","","image-keyboard-response","502","656262","0.0-6.0-0.94","","img/red.png","32","trial","32","true","1,0","3:go_c","",""
"null","","html-keyboard-response","503","657276","0.0-6.0-1.94","","<img src=""img/red-r.png"" border=""10"">","null","trial","32","","1,0","3:go_c","1",""
"null","","html-keyboard-response","504","658292","0.0-6.0-2.94","","<div style=""font-size:60px;"">+</div>","null","","","","","","",""
"892.9099999368191","","image-keyboard-response","505","659187","0.0-6.0-0.95","","img/green.png","32","trial","null","false","0.2,0.8","2:nogo_b","",""
"null","","html-keyboard-response","506","660197","0.0-6.0-1.95","","<img src=""img/green-n.png"" border=""10"">","null","trial","null","","0.2,0.8","2:nogo_b","0",""
"null","","html-keyboard-response","507","661210","0.0-6.0-2.95","","<div style=""font-size:60px;"">+</div>","null","","","","","","",""
"1233.0000000074506","","image-keyboard-response","508","662446","0.0-6.0-0.96","","img/blue.png","32","trial","null","false","0,1","4:nogo_d","",""
"null","","html-keyboard-response","509","663465","0.0-6.0-1.96","","<img src=""img/blue-n.png"" border=""10"">","null","trial","null","","0,1","4:nogo_d","0",""
"null","","html-keyboard-response","510","664490","0.0-6.0-2.96","","<div style=""font-size:60px;"">+</div>","null","","","","","","",""
"579.2450001463294","","image-keyboard-response","511","665071","0.0-6.0-0.97","","img/red.png","32","trial","32","true","1,0","3:go_c","",""
"null","","html-keyboard-response","512","666089","0.0-6.0-1.97","","<img src=""img/red-r.png"" border=""10"">","null","trial","32","","1,0","3:go_c","1",""
"null","","html-keyboard-response","513","667094","0.0-6.0-2.97","","<div style=""font-size:60px;"">+</div>","null","","","","","","",""
"711.7850002832711","","image-keyboard-response","514","667808","0.0-6.0-0.98","","img/yellow.png","32","trial","32","true","0.8,0.2","1:go_a","",""
"null","","html-keyboard-response","515","668814","0.0-6.0-1.98","","<img src=""img/yellow-n.png"" border=""10"">","null","trial","32","","0.8,0.2","1:go_a","0",""
"null","","html-keyboard-response","516","669829","0.0-6.0-2.98","","<div style=""font-size:60px;"">+</div>","null","","","","","","",""
"null","","image-keyboard-response","517","671341","0.0-6.0-0.99","","img/green.png","null","trial","null","true","0.2,0.8","2:nogo_b","",""
"null","","html-keyboard-response","518","672350","0.0-6.0-1.99","","<img src=""img/green-r.png"">","null","trial","null","","0.2,0.8","2:nogo_b","1",""
"null","","html-keyboard-response","519","673354","0.0-6.0-2.99","","<div style=""font-size:60px;"">+</div>","null","","","","","","",""
"781.1300000175834","","image-keyboard-response","520","674137","0.0-6.0-0.100","","img/green.png","32","trial","null","false","0.2,0.8","2:nogo_b","",""
"null","","html-keyboard-response","521","675154","0.0-6.0-1.100","","<img src=""img/green-n.png"" border=""10"">","null","trial","null","","0.2,0.8","2:nogo_b","0",""
"null","","html-keyboard-response","522","676159","0.0-6.0-2.100","","<div style=""font-size:60px;"">+</div>","null","","","","","","",""
"631.0650003142655","","image-keyboard-response","523","676792","0.0-6.0-0.101","","img/yellow.png","32","trial","32","true","0.8,0.2","1:go_a","",""
"null","","html-keyboard-response","524","677803","0.0-6.0-1.101","","<img src=""img/yellow-r.png"" border=""10"">","null","trial","32","","0.8,0.2","1:go_a","1",""
"null","","html-keyboard-response","525","678806","0.0-6.0-2.101","","<div style=""font-size:60px;"">+</div>","null","","","","","","",""
"555.6700001470745","","image-keyboard-response","526","679365","0.0-6.0-0.102","","img/red.png","32","trial","32","true","1,0","3:go_c","",""
"null","","html-keyboard-response","527","680381","0.0-6.0-1.102","","<img src=""img/red-r.png"" border=""10"">","null","trial","32","","1,0","3:go_c","1",""
"null","","html-keyboard-response","528","681386","0.0-6.0-2.102","","<div style=""font-size:60px;"">+</div>","null","","","","","","",""
"1056.5549996681511","","image-keyboard-response","529","682445","0.0-6.0-0.103","","img/blue.png","32","trial","null","false","0,1","4:nogo_d","",""
"null","","html-keyboard-response","530","683452","0.0-6.0-1.103","","<img src=""img/blue-n.png"" border=""10"">","null","trial","null","","0,1","4:nogo_d","0",""
"null","","html-keyboard-response","531","684466","0.0-6.0-2.103","","<div style=""font-size:60px;"">+</div>","null","","","","","","",""
"528.7199998274446","","image-keyboard-response","532","684999","0.0-6.0-0.104","","img/red.png","32","trial","32","true","1,0","3:go_c","",""
"null","","html-keyboard-response","533","686015","0.0-6.0-1.104","","<img src=""img/red-r.png"" border=""10"">","null","trial","32","","1,0","3:go_c","1",""
"null","","html-keyboard-response","534","687027","0.0-6.0-2.104","","<div style=""font-size:60px;"">+</div>","null","","","","","","",""
"681.3150001689792","","image-keyboard-response","535","687711","0.0-6.0-0.105","","img/yellow.png","32","trial","32","true","0.8,0.2","1:go_a","",""
"null","","html-keyboard-response","536","688725","0.0-6.0-1.105","","<img src=""img/yellow-r.png"" border=""10"">","null","trial","32","","0.8,0.2","1:go_a","1",""
"null","","html-keyboard-response","537","689732","0.0-6.0-2.105","","<div style=""font-size:60px;"">+</div>","null","","","","","","",""
"null","","image-keyboard-response","538","691235","0.0-6.0-0.106","","img/green.png","null","trial","null","true","0.2,0.8","2:nogo_b","",""
"null","","html-keyboard-response","539","692249","0.0-6.0-1.106","","<img src=""img/green-n.png"">","null","trial","null","","0.2,0.8","2:nogo_b","0",""
"null","","html-keyboard-response","540","693267","0.0-6.0-2.106","","<div style=""font-size:60px;"">+</div>","null","","","","","","",""
"917.1450003050268","","image-keyboard-response","541","694186","0.0-6.0-0.107","","img/blue.png","32","trial","null","false","0,1","4:nogo_d","",""
"null","","html-keyboard-response","542","695200","0.0-6.0-1.107","","<img src=""img/blue-n.png"" border=""10"">","null","trial","null","","0,1","4:nogo_d","0",""
"null","","html-keyboard-response","543","696205","0.0-6.0-2.107","","<div style=""font-size:60px;"">+</div>","null","","","","","","",""
"565.4249996878207","","image-keyboard-response","544","696774","0.0-6.0-0.108","","img/yellow.png","32","trial","32","true","0.8,0.2","1:go_a","",""
"null","","html-keyboard-response","545","697792","0.0-6.0-1.108","","<img src=""img/yellow-r.png"" border=""10"">","null","trial","32","","0.8,0.2","1:go_a","1",""
"null","","html-keyboard-response","546","698795","0.0-6.0-2.108","","<div style=""font-size:60px;"">+</div>","null","","","","","","",""
"457.1749996393919","","image-keyboard-response","547","699255","0.0-6.0-0.109","","img/red.png","32","trial","32","true","1,0","3:go_c","",""
"null","","html-keyboard-response","548","700261","0.0-6.0-1.109","","<img src=""img/red-r.png"" border=""10"">","null","trial","32","","1,0","3:go_c","1",""
"null","","html-keyboard-response","549","701269","0.0-6.0-2.109","","<div style=""font-size:60px;"">+</div>","null","","","","","","",""
"null","","image-keyboard-response","550","702781","0.0-6.0-0.110","","img/green.png","null","trial","null","true","0.2,0.8","2:nogo_b","",""
"null","","html-keyboard-response","551","703798","0.0-6.0-1.110","","<img src=""img/green-n.png"">","null","trial","null","","0.2,0.8","2:nogo_b","0",""
"null","","html-keyboard-response","552","704810","0.0-6.0-2.110","","<div style=""font-size:60px;"">+</div>","null","","","","","","",""
"651.649999897927","","image-keyboard-response","553","705468","0.0-6.0-0.111","","img/blue.png","32","trial","null","false","0,1","4:nogo_d","",""
"null","","html-keyboard-response","554","706485","0.0-6.0-1.111","","<img src=""img/blue-n.png"" border=""10"">","null","trial","null","","0,1","4:nogo_d","0",""
"null","","html-keyboard-response","555","707496","0.0-6.0-2.111","","<div style=""font-size:60px;"">+</div>","null","","","","","","",""
"513.0300000309944","","image-keyboard-response","556","708012","0.0-6.0-0.112","","img/red.png","32","trial","32","true","1,0","3:go_c","",""
"null","","html-keyboard-response","557","709027","0.0-6.0-1.112","","<img src=""img/red-r.png"" border=""10"">","null","trial","32","","1,0","3:go_c","1",""
"null","","html-keyboard-response","558","710039","0.0-6.0-2.112","","<div style=""font-size:60px;"">+</div>","null","","","","","","",""
"null","","image-keyboard-response","559","711544","0.0-6.0-0.113","","img/blue.png","null","trial","null","true","0,1","4:nogo_d","",""
"null","","html-keyboard-response","560","712553","0.0-6.0-1.113","","<img src=""img/blue-r.png"">","null","trial","null","","0,1","4:nogo_d","1",""
"null","","html-keyboard-response","561","713556","0.0-6.0-2.113","","<div style=""font-size:60px;"">+</div>","null","","","","","","",""
"702.4550000205636","","image-keyboard-response","562","714259","0.0-6.0-0.114","","img/yellow.png","32","trial","32","true","0.8,0.2","1:go_a","",""
"null","","html-keyboard-response","563","715267","0.0-6.0-1.114","","<img src=""img/yellow-n.png"" border=""10"">","null","trial","32","","0.8,0.2","1:go_a","0",""
"null","","html-keyboard-response","564","716275","0.0-6.0-2.114","","<div style=""font-size:60px;"">+</div>","null","","","","","","",""
"798.1050000526011","","image-keyboard-response","565","717076","0.0-6.0-0.115","","img/green.png","32","trial","null","false","0.2,0.8","2:nogo_b","",""
"null","","html-keyboard-response","566","718095","0.0-6.0-1.115","","<img src=""img/green-n.png"" border=""10"">","null","trial","null","","0.2,0.8","2:nogo_b","0",""
"null","","html-keyboard-response","567","719106","0.0-6.0-2.115","","<div style=""font-size:60px;"">+</div>","null","","","","","","",""
"700.3000001423061","","image-keyboard-response","568","719809","0.0-6.0-0.116","","img/green.png","32","trial","null","false","0.2,0.8","2:nogo_b","",""
"null","","html-keyboard-response","569","720815","0.0-6.0-1.116","","<img src=""img/green-n.png"" border=""10"">","null","trial","null","","0.2,0.8","2:nogo_b","0",""
"null","","html-keyboard-response","570","721832","0.0-6.0-2.116","","<div style=""font-size:60px;"">+</div>","null","","","","","","",""
"624.8599998652935","","image-keyboard-response","571","722460","0.0-6.0-0.117","","img/yellow.png","32","trial","32","true","0.8,0.2","1:go_a","",""
"null","","html-keyboard-response","572","723466","0.0-6.0-1.117","","<img src=""img/yellow-r.png"" border=""10"">","null","trial","32","","0.8,0.2","1:go_a","1",""
"null","","html-keyboard-response","573","724476","0.0-6.0-2.117","","<div style=""font-size:60px;"">+</div>","null","","","","","","",""
"608.1550000235438","","image-keyboard-response","574","725087","0.0-6.0-0.118","","img/red.png","32","trial","32","true","1,0","3:go_c","",""
"null","","html-keyboard-response","575","726096","0.0-6.0-1.118","","<img src=""img/red-r.png"" border=""10"">","null","trial","32","","1,0","3:go_c","1",""
"null","","html-keyboard-response","576","727106","0.0-6.0-2.118","","<div style=""font-size:60px;"">+</div>","null","","","","","","",""
"1082.4850001372397","","image-keyboard-response","577","728191","0.0-6.0-0.119","","img/blue.png","32","trial","null","false","0,1","4:nogo_d","",""
"null","","html-keyboard-response","578","729207","0.0-6.0-1.119","","<img src=""img/blue-n.png"" border=""10"">","null","trial","null","","0,1","4:nogo_d","0",""
"null","","html-keyboard-response","579","730215","0.0-6.0-2.119","","<div style=""font-size:60px;"">+</div>","null","","","","","","",""
"399686.094999779","","instructions","580","1129903","0.0-7.0","[{""page_index"":0,""viewing_time"":399683.9799997397}]","","","","","","","","",""
"null","","image-keyboard-response","581","1131413","0.0-8.0-0.0","","img/pink.png","null","trial","null","true","0.4,0.6","2:nogo_b","",""
"null","","html-keyboard-response","582","1132428","0.0-8.0-1.0","","<img src=""img/pink-r.png"">","null","trial","null","","0.4,0.6","2:nogo_b","1",""
"null","","html-keyboard-response","583","1133434","0.0-8.0-2.0","","<div style=""font-size:60px;"">+</div>","null","","","","","","",""
"599.225000012666","","image-keyboard-response","584","1134035","0.0-8.0-0.1","","img/green.png","32","trial","null","false","0.4,0.6","4:nogo_d","",""
"null","","html-keyboard-response","585","1135055","0.0-8.0-1.1","","<img src=""img/green-r.png"" border=""10"">","null","trial","null","","0.4,0.6","4:nogo_d","1",""
"null","","html-keyboard-response","586","1136061","0.0-8.0-2.1","","<div style=""font-size:60px;"">+</div>","null","","","","","","",""
"752.7800002135336","","image-keyboard-response","587","1136816","0.0-8.0-0.2","","img/purple.png","32","trial","32","true","0.6,0.4","1:go_a","",""
"null","","html-keyboard-response","588","1137820","0.0-8.0-1.2","","<img src=""img/purple-r.png"" border=""10"">","null","trial","32","","0.6,0.4","1:go_a","1",""
"null","","html-keyboard-response","589","1138838","0.0-8.0-2.2","","<div style=""font-size:60px;"">+</div>","null","","","","","","",""
"549.3100001476705","","image-keyboard-response","590","1139390","0.0-8.0-0.3","","img/yellow.png","32","trial","32","true","0.6,0.4","3:go_c","",""
"null","","html-keyboard-response","591","1140401","0.0-8.0-1.3","","<img src=""img/yellow-r.png"" border=""10"">","null","trial","32","","0.6,0.4","3:go_c","1",""
"null","","html-keyboard-response","592","1141406","0.0-8.0-2.3","","<div style=""font-size:60px;"">+</div>","null","","","","","","",""
"502.11000023409724","","image-keyboard-response","593","1141912","0.0-8.0-0.4","","img/yellow.png","32","trial","32","true","0.6,0.4","3:go_c","",""
"null","","html-keyboard-response","594","1142924","0.0-8.0-1.4","","<img src=""img/yellow-n.png"" border=""10"">","null","trial","32","","0.6,0.4","3:go_c","0",""
"null","","html-keyboard-response","595","1143927","0.0-8.0-2.4","","<div style=""font-size:60px;"">+</div>","null","","","","","","",""
"460.7300003990531","","image-keyboard-response","596","1144389","0.0-8.0-0.5","","img/pink.png","32","trial","null","false","0.4,0.6","2:nogo_b","",""
"null","","html-keyboard-response","597","1145394","0.0-8.0-1.5","","<img src=""img/pink-r.png"" border=""10"">","null","trial","null","","0.4,0.6","2:nogo_b","1",""
"null","","html-keyboard-response","598","1146398","0.0-8.0-2.5","","<div style=""font-size:60px;"">+</div>","null","","","","","","",""
"529.5299999415874","","image-keyboard-response","599","1146929","0.0-8.0-0.6","","img/green.png","32","trial","null","false","0.4,0.6","4:nogo_d","",""
"null","","html-keyboard-response","600","1147942","0.0-8.0-1.6","","<img src=""img/green-r.png"" border=""10"">","null","trial","null","","0.4,0.6","4:nogo_d","1",""
"null","","html-keyboard-response","601","1148946","0.0-8.0-2.6","","<div style=""font-size:60px;"">+</div>","null","","","","","","",""
"569.114999845624","","image-keyboard-response","602","1149518","0.0-8.0-0.7","","img/purple.png","32","trial","32","true","0.6,0.4","1:go_a","",""
"null","","html-keyboard-response","603","1150537","0.0-8.0-1.7","","<img src=""img/purple-n.png"" border=""10"">","null","trial","32","","0.6,0.4","1:go_a","0",""
"null","","html-keyboard-response","604","1151550","0.0-8.0-2.7","","<div style=""font-size:60px;"">+</div>","null","","","","","","",""
"543.2299999520183","","image-keyboard-response","605","1152095","0.0-8.0-0.8","","img/pink.png","32","trial","null","false","0.4,0.6","2:nogo_b","",""
"null","","html-keyboard-response","606","1153102","0.0-8.0-1.8","","<img src=""img/pink-r.png"" border=""10"">","null","trial","null","","0.4,0.6","2:nogo_b","1",""
"null","","html-keyboard-response","607","1154114","0.0-8.0-2.8","","<div style=""font-size:60px;"">+</div>","null","","","","","","",""
"648.8449997268617","","image-keyboard-response","608","1154764","0.0-8.0-0.9","","img/green.png","32","trial","null","false","0.4,0.6","4:nogo_d","",""
"null","","html-keyboard-response","609","1155781","0.0-8.0-1.9","","<img src=""img/green-r.png"" border=""10"">","null","trial","null","","0.4,0.6","4:nogo_d","1",""
"null","","html-keyboard-response","610","1156791","0.0-8.0-2.9","","<div style=""font-size:60px;"">+</div>","null","","","","","","",""
"692.4049998633564","","image-keyboard-response","611","1157485","0.0-8.0-0.10","","img/yellow.png","32","trial","32","true","0.6,0.4","3:go_c","",""
"null","","html-keyboard-response","612","1158505","0.0-8.0-1.10","","<img src=""img/yellow-n.png"" border=""10"">","null","trial","32","","0.6,0.4","3:go_c","0",""
"null","","html-keyboard-response","613","1159514","0.0-8.0-2.10","","<div style=""font-size:60px;"">+</div>","null","","","","","","",""
"502.745000179857","","image-keyboard-response","614","1160020","0.0-8.0-0.11","","img/purple.png","32","trial","32","true","0.6,0.4","1:go_a","",""
"null","","html-keyboard-response","615","1161030","0.0-8.0-1.11","","<img src=""img/purple-r.png"" border=""10"">","null","trial","32","","0.6,0.4","1:go_a","1",""
"null","","html-keyboard-response","616","1162045","0.0-8.0-2.11","","<div style=""font-size:60px;"">+</div>","null","","","","","","",""
"985.1799998432398","","image-keyboard-response","617","1163034","0.0-8.0-0.12","","img/pink.png","32","trial","null","false","0.4,0.6","2:nogo_b","",""
"null","","html-keyboard-response","618","1164042","0.0-8.0-1.12","","<img src=""img/pink-n.png"" border=""10"">","null","trial","null","","0.4,0.6","2:nogo_b","0",""
"null","","html-keyboard-response","619","1165053","0.0-8.0-2.12","","<div style=""font-size:60px;"">+</div>","null","","","","","","",""
"646.7999997548759","","image-keyboard-response","620","1165702","0.0-8.0-0.13","","img/yellow.png","32","trial","32","true","0.6,0.4","3:go_c","",""
"null","","html-keyboard-response","621","1166719","0.0-8.0-1.13","","<img src=""img/yellow-n.png"" border=""10"">","null","trial","32","","0.6,0.4","3:go_c","0",""
"null","","html-keyboard-response","622","1167732","0.0-8.0-2.13","","<div style=""font-size:60px;"">+</div>","null","","","","","","",""
"471.9699998386204","","image-keyboard-response","623","1168206","0.0-8.0-0.14","","img/purple.png","32","trial","32","true","0.6,0.4","1:go_a","",""
"null","","html-keyboard-response","624","1169209","0.0-8.0-1.14","","<img src=""img/purple-r.png"" border=""10"">","null","trial","32","","0.6,0.4","1:go_a","1",""
"null","","html-keyboard-response","625","1170214","0.0-8.0-2.14","","<div style=""font-size:60px;"">+</div>","null","","","","","","",""
"523.6949999816716","","image-keyboard-response","626","1170739","0.0-8.0-0.15","","img/green.png","32","trial","null","false","0.4,0.6","4:nogo_d","",""
"null","","html-keyboard-response","627","1171756","0.0-8.0-1.15","","<img src=""img/green-r.png"" border=""10"">","null","trial","null","","0.4,0.6","4:nogo_d","1",""
"null","","html-keyboard-response","628","1172761","0.0-8.0-2.15","","<div style=""font-size:60px;"">+</div>","null","","","","","","",""
"832.4299999512732","","image-keyboard-response","629","1173595","0.0-8.0-0.16","","img/purple.png","32","trial","32","true","0.6,0.4","1:go_a","",""
"null","","html-keyboard-response","630","1174604","0.0-8.0-1.16","","<img src=""img/purple-r.png"" border=""10"">","null","trial","32","","0.6,0.4","1:go_a","1",""
"null","","html-keyboard-response","631","1175609","0.0-8.0-2.16","","<div style=""font-size:60px;"">+</div>","null","","","","","","",""
"null","","image-keyboard-response","632","1177122","0.0-8.0-0.17","","img/pink.png","null","trial","null","true","0.4,0.6","2:nogo_b","",""
"null","","html-keyboard-response","633","1178131","0.0-8.0-1.17","","<img src=""img/pink-r.png"">","null","trial","null","","0.4,0.6","2:nogo_b","1",""
"null","","html-keyboard-response","634","1179135","0.0-8.0-2.17","","<div style=""font-size:60px;"">+</div>","null","","","","","","",""
"586.1050002276897","","image-keyboard-response","635","1179724","0.0-8.0-0.18","","img/green.png","32","trial","null","false","0.4,0.6","4:nogo_d","",""
"null","","html-keyboard-response","636","1180740","0.0-8.0-1.18","","<img src=""img/green-r.png"" border=""10"">","null","trial","null","","0.4,0.6","4:nogo_d","1",""
"null","","html-keyboard-response","637","1181751","0.0-8.0-2.18","","<div style=""font-size:60px;"">+</div>","null","","","","","","",""
"666.5650000795722","","image-keyboard-response","638","1182419","0.0-8.0-0.19","","img/yellow.png","32","trial","32","true","0.6,0.4","3:go_c","",""
"null","","html-keyboard-response","639","1183424","0.0-8.0-1.19","","<img src=""img/yellow-r.png"" border=""10"">","null","trial","32","","0.6,0.4","3:go_c","1",""
"null","","html-keyboard-response","640","1184439","0.0-8.0-2.19","","<div style=""font-size:60px;"">+</div>","null","","","","","","",""
"555.9350000694394","","image-keyboard-response","641","1184997","0.0-8.0-0.20","","img/yellow.png","32","trial","32","true","0.6,0.4","3:go_c","",""
"null","","html-keyboard-response","642","1186011","0.0-8.0-1.20","","<img src=""img/yellow-r.png"" border=""10"">","null","trial","32","","0.6,0.4","3:go_c","1",""
"null","","html-keyboard-response","643","1187022","0.0-8.0-2.20","","<div style=""font-size:60px;"">+</div>","null","","","","","","",""
"1069.5400000549853","","image-keyboard-response","644","1188094","0.0-8.0-0.21","","img/pink.png","32","trial","null","false","0.4,0.6","2:nogo_b","",""
"null","","html-keyboard-response","645","1189099","0.0-8.0-1.21","","<img src=""img/pink-r.png"" border=""10"">","null","trial","null","","0.4,0.6","2:nogo_b","1",""
"null","","html-keyboard-response","646","1190105","0.0-8.0-2.21","","<div style=""font-size:60px;"">+</div>","null","","","","","","",""
"562.7950001507998","","image-keyboard-response","647","1190669","0.0-8.0-0.22","","img/green.png","32","trial","null","false","0.4,0.6","4:nogo_d","",""
"null","","html-keyboard-response","648","1191688","0.0-8.0-1.22","","<img src=""img/green-n.png"" border=""10"">","null","trial","null","","0.4,0.6","4:nogo_d","0",""
"null","","html-keyboard-response","649","1192696","0.0-8.0-2.22","","<div style=""font-size:60px;"">+</div>","null","","","","","","",""
"487.8899999894202","","image-keyboard-response","650","1193186","0.0-8.0-0.23","","img/purple.png","32","trial","32","true","0.6,0.4","1:go_a","",""
"null","","html-keyboard-response","651","1194206","0.0-8.0-1.23","","<img src=""img/purple-r.png"" border=""10"">","null","trial","32","","0.6,0.4","1:go_a","1",""
"null","","html-keyboard-response","652","1195216","0.0-8.0-2.23","","<div style=""font-size:60px;"">+</div>","null","","","","","","",""
"551.8749998882413","","image-keyboard-response","653","1195770","0.0-8.0-0.24","","img/green.png","32","trial","null","false","0.4,0.6","4:nogo_d","",""
"null","","html-keyboard-response","654","1196786","0.0-8.0-1.24","","<img src=""img/green-n.png"" border=""10"">","null","trial","null","","0.4,0.6","4:nogo_d","0",""
"null","","html-keyboard-response","655","1197802","0.0-8.0-2.24","","<div style=""font-size:60px;"">+</div>","null","","","","","","",""
"470.9350001066923","","image-keyboard-response","656","1198275","0.0-8.0-0.25","","img/purple.png","32","trial","32","true","0.6,0.4","1:go_a","",""
"null","","html-keyboard-response","657","1199291","0.0-8.0-1.25","","<img src=""img/purple-n.png"" border=""10"">","null","trial","32","","0.6,0.4","1:go_a","0",""
"null","","html-keyboard-response","658","1200326","0.0-8.0-2.25","","<div style=""font-size:60px;"">+</div>","null","","","","","","",""
"545.1349997892976","","image-keyboard-response","659","1200883","0.0-8.0-0.26","","img/yellow.png","32","trial","32","true","0.6,0.4","3:go_c","",""
"null","","html-keyboard-response","660","1201892","0.0-8.0-1.26","","<img src=""img/yellow-n.png"" border=""10"">","null","trial","32","","0.6,0.4","3:go_c","0",""
"null","","html-keyboard-response","661","1202906","0.0-8.0-2.26","","<div style=""font-size:60px;"">+</div>","null","","","","","","",""
"485.0200000219047","","image-keyboard-response","662","1203394","0.0-8.0-0.27","","img/pink.png","32","trial","null","false","0.4,0.6","2:nogo_b","",""
"null","","html-keyboard-response","663","1204403","0.0-8.0-1.27","","<img src=""img/pink-n.png"" border=""10"">","null","trial","null","","0.4,0.6","2:nogo_b","0",""
"null","","html-keyboard-response","664","1205420","0.0-8.0-2.27","","<div style=""font-size:60px;"">+</div>","null","","","","","","",""
"445.7550002261996","","image-keyboard-response","665","1205869","0.0-8.0-0.28","","img/yellow.png","32","trial","32","true","0.6,0.4","3:go_c","",""
"null","","html-keyboard-response","666","1206878","0.0-8.0-1.28","","<img src=""img/yellow-n.png"" border=""10"">","null","trial","32","","0.6,0.4","3:go_c","0",""
"null","","html-keyboard-response","667","1207888","0.0-8.0-2.28","","<div style=""font-size:60px;"">+</div>","null","","","","","","",""
"521.2150001898408","","image-keyboard-response","668","1208415","0.0-8.0-0.29","","img/pink.png","32","trial","null","false","0.4,0.6","2:nogo_b","",""
"null","","html-keyboard-response","669","1209419","0.0-8.0-1.29","","<img src=""img/pink-r.png"" border=""10"">","null","trial","null","","0.4,0.6","2:nogo_b","1",""
"null","","html-keyboard-response","670","1210428","0.0-8.0-2.29","","<div style=""font-size:60px;"">+</div>","null","","","","","","",""
"592.6850000396371","","image-keyboard-response","671","1211022","0.0-8.0-0.30","","img/purple.png","32","trial","32","true","0.6,0.4","1:go_a","",""
