"rt","url","trial_type","trial_index","time_elapsed","internal_node_id","view_history","stimulus","key_press","test_part","correct_response","correct","use_rew","which_stim","reward","responses"
"46456.375000067055","consent.html","external-html","0","46630","0.0-0.0","","","","","","","","","",""
"3250171.020000009","","instructions","1","3296804","0.0-1.0","[{""page_index"":0,""viewing_time"":4991.880000103265},{""page_index"":1,""viewing_time"":29245.270000072196},{""page_index"":2,""viewing_time"":33685.459999833256},{""page_index"":3,""viewing_time"":33208.28500017524},{""page_index"":4,""viewing_time"":18575.444999849424},{""page_index"":5,""viewing_time"":10227.300000144169},{""page_index"":6,""viewing_time"":3120236.419999972}]","","","","","","","","",""
"null","","image-keyboard-response","2","3298314","0.0-2.0-0.0","","img/test2.PNG","null","practice","null","true","","","",""
"null","","html-keyboard-response","3","3299319","0.0-2.0-1.0","","<img src=""img/test2-reward.PNG"">","null","","","","","","",""
"null","","html-keyboard-response","4","3300322","0.0-2.0-2.0","","<div style=""font-size:60px;"">+</div>","null","","","","","","",""
"579.5950000174344","","image-keyboard-response","5","3300906","0.0-2.0-0.1","","img/test1.PNG","32","practice","32","true","","","",""
"null","","html-keyboard-response","6","3301911","0.0-2.0-1.1","","<img src=""img/test1-reward.PNG"" border=""10px; grey"">","null","","","","","","",""
"null","","html-keyboard-response","7","3302968","0.0-2.0-2.1","","<div style=""font-size:60px;"">+</div>","null","","","","","","",""
"null","","image-keyboard-response","8","3304471","0.0-2.0-0.2","","img/test3.PNG","null","practice","null","true","","","",""
"null","","html-keyboard-response","9","3305473","0.0-2.0-1.2","","<img src=""img/test3-reward.PNG"">","null","","","","","","",""
"null","","html-keyboard-response","10","3306475","0.0-2.0-2.2","","<div style=""font-size:60px;"">+</div>","null","","","","","","",""
"696.5900000650436","","image-keyboard-response","11","3307173","0.0-2.0-0.3","","img/test1.PNG","32","practice","32","true","","","",""
"null","","html-keyboard-response","12","3308176","0.0-2.0-1.3","","<img src=""img/test1-reward.PNG"" border=""10px; grey"">","null","","","","","","",""
"null","","html-keyboard-response","13","3309178","0.0-2.0-2.3","","<div style=""font-size:60px;"">+</div>","null","","","","","","",""
"null","","image-keyboard-response","14","3310681","0.0-2.0-0.4","","img/test2.PNG","null","practice","null","true","","","",""
"null","","html-keyboard-response","15","3311685","0.0-2.0-1.4","","<img src=""img/test2-reward.PNG"">","null","","","","","","",""
"null","","html-keyboard-response","16","3312692","0.0-2.0-2.4","","<div style=""font-size:60px;"">+</div>","null","","","","","","",""
"null","","image-keyboard-response","17","3314196","0.0-2.0-0.5","","img/test3.PNG","null","practice","null","true","","","",""
"null","","html-keyboard-response","18","3315200","0.0-2.0-1.5","","<img src=""img/test3-reward.PNG"">","null","","","","","","",""
"null","","html-keyboard-response","19","3316203","0.0-2.0-2.5","","<div style=""font-size:60px;"">+</div>","null","","","","","","",""
"null","","image-keyboard-response","20","3317706","0.0-2.0-0.6","","img/test3.PNG","null","practice","null","true","","","",""
"null","","html-keyboard-response","21","3318708","0.0-2.0-1.6","","<img src=""img/test3-reward.PNG"">","null","","","","","","",""
"null","","html-keyboard-response","22","3319710","0.0-2.0-2.6","","<div style=""font-size:60px;"">+</div>","null","","","","","","",""
"null","","image-keyboard-response","23","3321213","0.0-2.0-0.7","","img/test2.PNG","null","practice","null","true","","","",""
"null","","html-keyboard-response","24","3322216","0.0-2.0-1.7","","<img src=""img/test2-reward.PNG"">","null","","","","","","",""
"null","","html-keyboard-response","25","3323218","0.0-2.0-2.7","","<div style=""font-size:60px;"">+</div>","null","","","","","","",""
"513.5200000368059","","image-keyboard-response","26","3323735","0.0-2.0-0.8","","img/test1.PNG","32","practice","32","true","","","",""
"null","","html-keyboard-response","27","3324739","0.0-2.0-1.8","","<img src=""img/test1-reward.PNG"" border=""10px; grey"">","null","","","","","","",""
"null","","html-keyboard-response","28","3325741","0.0-2.0-2.8","","<div style=""font-size:60px;"">+</div>","null","","","","","","",""
"null","","image-keyboard-response","29","3327244","0.0-2.0-0.9","","img/test3.PNG","null","practice","null","true","","","",""
"null","","html-keyboard-response","30","3328246","0.0-2.0-1.9","","<img src=""img/test3-reward.PNG"">","null","","","","","","",""
"null","","html-keyboard-response","31","3329249","0.0-2.0-2.9","","<div style=""font-size:60px;"">+</div>","null","","","","","","",""
"635.5250000488013","","image-keyboard-response","32","3329889","0.0-2.0-0.10","","img/test1.PNG","32","practice","32","true","","","",""
"null","","html-keyboard-response","33","3330892","0.0-2.0-1.10","","<img src=""img/test1-reward.PNG"" border=""10px; grey"">","null","","","","","","",""
"null","","html-keyboard-response","34","3331895","0.0-2.0-2.10","","<div style=""font-size:60px;"">+</div>","null","","","","","","",""
"null","","image-keyboard-response","35","3333399","0.0-2.0-0.11","","img/test2.PNG","null","practice","null","true","","","",""
"null","","html-keyboard-response","36","3334401","0.0-2.0-1.11","","<img src=""img/test2-reward.PNG"">","null","","","","","","",""
"null","","html-keyboard-response","37","3335404","0.0-2.0-2.11","","<div style=""font-size:60px;"">+</div>","null","","","","","","",""
"4985.619999933988","","instructions","38","3340391","0.0-3.0","[{""page_index"":0,""viewing_time"":4985.090000089258}]","","","","","","","","",""
"null","","image-keyboard-response","39","3341894","0.0-4.0-0.0","","img/orange.png","null","trial","null","true","0.2,0.8","2:nogo_b","",""
"null","","html-keyboard-response","40","3342907","0.0-4.0-1.0","","<img src=""img/orange-r.png"">","null","trial","null","","0.2,0.8","2:nogo_b","1",""
"null","","html-keyboard-response","41","3343911","0.0-4.0-2.0","","<div style=""font-size:60px;"">+</div>","null","","","","","","",""
"880.8200000785291","","image-keyboard-response","42","3344794","0.0-4.0-0.1","","img/pink.png","32","trial","32","true","0.8,0.2","1:go_a","",""
"null","","html-keyboard-response","43","3345802","0.0-4.0-1.1","","<img src=""img/pink-n.png"" border=""10"">","null","trial","32","","0.8,0.2","1:go_a","0",""
"null","","html-keyboard-response","44","3346804","0.0-4.0-2.1","","<div style=""font-size:60px;"">+</div>","null","","","","","","",""
"927.0050001796335","","image-keyboard-response","45","3347734","0.0-4.0-0.2","","img/orange.png","32","trial","null","false","0.2,0.8","2:nogo_b","",""
"null","","html-keyboard-response","46","3348738","0.0-4.0-1.2","","<img src=""img/orange-n.png"" border=""10"">","null","trial","null","","0.2,0.8","2:nogo_b","0",""
"null","","html-keyboard-response","47","3349741","0.0-4.0-2.2","","<div style=""font-size:60px;"">+</div>","null","","","","","","",""
"693.44999990426","","image-keyboard-response","48","3350437","0.0-4.0-0.3","","img/pink.png","32","trial","32","true","0.8,0.2","1:go_a","",""
"null","","html-keyboard-response","49","3351442","0.0-4.0-1.3","","<img src=""img/pink-r.png"" border=""10"">","null","trial","32","","0.8,0.2","1:go_a","1",""
"null","","html-keyboard-response","50","3352445","0.0-4.0-2.3","","<div style=""font-size:60px;"">+</div>","null","","","","","","",""
"759.6400000620633","","image-keyboard-response","51","3353207","0.0-4.0-0.4","","img/pink.png","32","trial","32","true","0.8,0.2","1:go_a","",""
"null","","html-keyboard-response","52","3354212","0.0-4.0-1.4","","<img src=""img/pink-r.png"" border=""10"">","null","trial","32","","0.8,0.2","1:go_a","1",""
"null","","html-keyboard-response","53","3355214","0.0-4.0-2.4","","<div style=""font-size:60px;"">+</div>","null","","","","","","",""
"null","","image-keyboard-response","54","3356716","0.0-4.0-0.5","","img/orange.png","null","trial","null","true","0.2,0.8","2:nogo_b","",""
"null","","html-keyboard-response","55","3357721","0.0-4.0-1.5","","<img src=""img/orange-r.png"">","null","trial","null","","0.2,0.8","2:nogo_b","1",""
"null","","html-keyboard-response","56","3358724","0.0-4.0-2.5","","<div style=""font-size:60px;"">+</div>","null","","","","","","",""
"null","","image-keyboard-response","57","3360227","0.0-4.0-0.6","","img/orange.png","null","trial","null","true","0.2,0.8","2:nogo_b","",""
"null","","html-keyboard-response","58","3361231","0.0-4.0-1.6","","<img src=""img/orange-r.png"">","null","trial","null","","0.2,0.8","2:nogo_b","1",""
"null","","html-keyboard-response","59","3362233","0.0-4.0-2.6","","<div style=""font-size:60px;"">+</div>","null","","","","","","",""
"1302.1450000815094","","image-keyboard-response","60","3363537","0.0-4.0-0.7","","img/pink.png","32","trial","32","true","0.8,0.2","1:go_a","",""
"null","","html-keyboard-response","61","3364542","0.0-4.0-1.7","","<img src=""img/pink-r.png"" border=""10"">","null","trial","32","","0.8,0.2","1:go_a","1",""
"null","","html-keyboard-response","62","3365544","0.0-4.0-2.7","","<div style=""font-size:60px;"">+</div>","null","","","","","","",""
"958.5450000595301","","image-keyboard-response","63","3366504","0.0-4.0-0.8","","img/pink.png","32","trial","32","true","0.8,0.2","1:go_a","",""
"null","","html-keyboard-response","64","3367530","0.0-4.0-1.8","","<img src=""img/pink-r.png"" border=""10"">","null","trial","32","","0.8,0.2","1:go_a","1",""
"null","","html-keyboard-response","65","3368533","0.0-4.0-2.8","","<div style=""font-size:60px;"">+</div>","null","","","","","","",""
"1136.3099999725819","","image-keyboard-response","66","3369672","0.0-4.0-0.9","","img/orange.png","32","trial","null","false","0.2,0.8","2:nogo_b","",""
"null","","html-keyboard-response","67","3370676","0.0-4.0-1.9","","<img src=""img/orange-n.png"" border=""10"">","null","trial","null","","0.2,0.8","2:nogo_b","0",""
"null","","html-keyboard-response","68","3371680","0.0-4.0-2.9","","<div style=""font-size:60px;"">+</div>","null","","","","","","",""
"null","","image-keyboard-response","69","3373184","0.0-4.0-0.10","","img/orange.png","null","trial","null","true","0.2,0.8","2:nogo_b","",""
"null","","html-keyboard-response","70","3374195","0.0-4.0-1.10","","<img src=""img/orange-r.png"">","null","trial","null","","0.2,0.8","2:nogo_b","1",""
"null","","html-keyboard-response","71","3375197","0.0-4.0-2.10","","<div style=""font-size:60px;"">+</div>","null","","","","","","",""
"569.615000160411","","image-keyboard-response","72","3375769","0.0-4.0-0.11","","img/pink.png","32","trial","32","true","0.8,0.2","1:go_a","",""
"null","","html-keyboard-response","73","3376775","0.0-4.0-1.11","","<img src=""img/pink-r.png"" border=""10"">","null","trial","32","","0.8,0.2","1:go_a","1",""
"null","","html-keyboard-response","74","3377778","0.0-4.0-2.11","","<div style=""font-size:60px;"">+</div>","null","","","","","","",""
"null","","image-keyboard-response","75","3379280","0.0-4.0-0.12","","img/orange.png","null","trial","null","true","0.2,0.8","2:nogo_b","",""
"null","","html-keyboard-response","76","3380292","0.0-4.0-1.12","","<img src=""img/orange-r.png"">","null","trial","null","","0.2,0.8","2:nogo_b","1",""
"null","","html-keyboard-response","77","3381295","0.0-4.0-2.12","","<div style=""font-size:60px;"">+</div>","null","","","","","","",""
"605.5049998685718","","image-keyboard-response","78","3381903","0.0-4.0-0.13","","img/pink.png","32","trial","32","true","0.8,0.2","1:go_a","",""
"null","","html-keyboard-response","79","3382910","0.0-4.0-1.13","","<img src=""img/pink-r.png"" border=""10"">","null","trial","32","","0.8,0.2","1:go_a","1",""
"null","","html-keyboard-response","80","3383912","0.0-4.0-2.13","","<div style=""font-size:60px;"">+</div>","null","","","","","","",""
"495.15500012785196","","image-keyboard-response","81","3384410","0.0-4.0-0.14","","img/pink.png","32","trial","32","true","0.8,0.2","1:go_a","",""
"null","","html-keyboard-response","82","3385414","0.0-4.0-1.14","","<img src=""img/pink-r.png"" border=""10"">","null","trial","32","","0.8,0.2","1:go_a","1",""
"null","","html-keyboard-response","83","3386418","0.0-4.0-2.14","","<div style=""font-size:60px;"">+</div>","null","","","","","","",""
"719.4750001654029","","image-keyboard-response","84","3387139","0.0-4.0-0.15","","img/orange.png","32","trial","null","false","0.2,0.8","2:nogo_b","",""
"null","","html-keyboard-response","85","3388143","0.0-4.0-1.15","","<img src=""img/orange-r.png"" border=""10"">","null","trial","null","","0.2,0.8","2:nogo_b","1",""
"null","","html-keyboard-response","86","3389145","0.0-4.0-2.15","","<div style=""font-size:60px;"">+</div>","null","","","","","","",""
"588.3199998643249","","image-keyboard-response","87","3389736","0.0-4.0-0.16","","img/pink.png","32","trial","32","true","0.8,0.2","1:go_a","",""
"null","","html-keyboard-response","88","3390742","0.0-4.0-1.16","","<img src=""img/pink-r.png"" border=""10"">","null","trial","32","","0.8,0.2","1:go_a","1",""
"null","","html-keyboard-response","89","3391744","0.0-4.0-2.16","","<div style=""font-size:60px;"">+</div>","null","","","","","","",""
"486.2300001550466","","image-keyboard-response","90","3392233","0.0-4.0-0.17","","img/orange.png","32","trial","null","false","0.2,0.8","2:nogo_b","",""
"null","","html-keyboard-response","91","3393238","0.0-4.0-1.17","","<img src=""img/orange-n.png"" border=""10"">","null","trial","null","","0.2,0.8","2:nogo_b","0",""
"null","","html-keyboard-response","92","3394240","0.0-4.0-2.17","","<div style=""font-size:60px;"">+</div>","null","","","","","","",""
"773.5000001266599","","image-keyboard-response","93","3395016","0.0-4.0-0.18","","img/orange.png","32","trial","null","false","0.2,0.8","2:nogo_b","",""
"null","","html-keyboard-response","94","3396021","0.0-4.0-1.18","","<img src=""img/orange-n.png"" border=""10"">","null","trial","null","","0.2,0.8","2:nogo_b","0",""
"null","","html-keyboard-response","95","3397024","0.0-4.0-2.18","","<div style=""font-size:60px;"">+</div>","null","","","","","","",""
"514.0150000806898","","image-keyboard-response","96","3397540","0.0-4.0-0.19","","img/pink.png","32","trial","32","true","0.8,0.2","1:go_a","",""
"null","","html-keyboard-response","97","3398545","0.0-4.0-1.19","","<img src=""img/pink-n.png"" border=""10"">","null","trial","32","","0.8,0.2","1:go_a","0",""
"null","","html-keyboard-response","98","3399548","0.0-4.0-2.19","","<div style=""font-size:60px;"">+</div>","null","","","","","","",""
"601.3350000139326","","image-keyboard-response","99","3400152","0.0-4.0-0.20","","img/orange.png","32","trial","null","false","0.2,0.8","2:nogo_b","",""
"null","","html-keyboard-response","100","3401157","0.0-4.0-1.20","","<img src=""img/orange-n.png"" border=""10"">","null","trial","null","","0.2,0.8","2:nogo_b","0",""
"null","","html-keyboard-response","101","3402160","0.0-4.0-2.20","","<div style=""font-size:60px;"">+</div>","null","","","","","","",""
"722.1999999601394","","image-keyboard-response","102","3402884","0.0-4.0-0.21","","img/pink.png","32","trial","32","true","0.8,0.2","1:go_a","",""
"null","","html-keyboard-response","103","3403887","0.0-4.0-1.21","","<img src=""img/pink-r.png"" border=""10"">","null","trial","32","","0.8,0.2","1:go_a","1",""
"null","","html-keyboard-response","104","3404890","0.0-4.0-2.21","","<div style=""font-size:60px;"">+</div>","null","","","","","","",""
"null","","image-keyboard-response","105","3406393","0.0-4.0-0.22","","img/orange.png","null","trial","null","true","0.2,0.8","2:nogo_b","",""
"null","","html-keyboard-response","106","3407398","0.0-4.0-1.22","","<img src=""img/orange-r.png"">","null","trial","null","","0.2,0.8","2:nogo_b","1",""
"null","","html-keyboard-response","107","3408401","0.0-4.0-2.22","","<div style=""font-size:60px;"">+</div>","null","","","","","","",""
"574.3499998934567","","image-keyboard-response","108","3408977","0.0-4.0-0.23","","img/pink.png","32","trial","32","true","0.8,0.2","1:go_a","",""
"null","","html-keyboard-response","109","3409980","0.0-4.0-1.23","","<img src=""img/pink-r.png"" border=""10"">","null","trial","32","","0.8,0.2","1:go_a","1",""
"null","","html-keyboard-response","110","3411051","0.0-4.0-2.23","","<div style=""font-size:60px;"">+</div>","null","","","","","","",""
"667.5750000867993","","image-keyboard-response","111","3411721","0.0-4.0-0.24","","img/orange.png","32","trial","null","false","0.2,0.8","2:nogo_b","",""
"null","","html-keyboard-response","112","3412724","0.0-4.0-1.24","","<img src=""img/orange-n.png"" border=""10"">","null","trial","null","","0.2,0.8","2:nogo_b","0",""
"null","","html-keyboard-response","113","3413727","0.0-4.0-2.24","","<div style=""font-size:60px;"">+</div>","null","","","","","","",""
"520.7899999804795","","image-keyboard-response","114","3414250","0.0-4.0-0.25","","img/pink.png","32","trial","32","true","0.8,0.2","1:go_a","",""
"null","","html-keyboard-response","115","3415257","0.0-4.0-1.25","","<img src=""img/pink-r.png"" border=""10"">","null","trial","32","","0.8,0.2","1:go_a","1",""
"null","","html-keyboard-response","116","3416259","0.0-4.0-2.25","","<div style=""font-size:60px;"">+</div>","null","","","","","","",""
"826.4399999752641","","image-keyboard-response","117","3417088","0.0-4.0-0.26","","img/pink.png","32","trial","32","true","0.8,0.2","1:go_a","",""
"null","","html-keyboard-response","118","3418093","0.0-4.0-1.26","","<img src=""img/pink-r.png"" border=""10"">","null","trial","32","","0.8,0.2","1:go_a","1",""
"null","","html-keyboard-response","119","3419097","0.0-4.0-2.26","","<div style=""font-size:60px;"">+</div>","null","","","","","","",""
"null","","image-keyboard-response","120","3420600","0.0-4.0-0.27","","img/orange.png","null","trial","null","true","0.2,0.8","2:nogo_b","",""
"null","","html-keyboard-response","121","3421605","0.0-4.0-1.27","","<img src=""img/orange-n.png"">","null","trial","null","","0.2,0.8","2:nogo_b","0",""
"null","","html-keyboard-response","122","3422607","0.0-4.0-2.27","","<div style=""font-size:60px;"">+</div>","null","","","","","","",""
"null","","image-keyboard-response","123","3424120","0.0-4.0-0.28","","img/orange.png","null","trial","null","true","0.2,0.8","2:nogo_b","",""
"null","","html-keyboard-response","124","3425145","0.0-4.0-1.28","","<img src=""img/orange-r.png"">","null","trial","null","","0.2,0.8","2:nogo_b","1",""
"null","","html-keyboard-response","125","3426146","0.0-4.0-2.28","","<div style=""font-size:60px;"">+</div>","null","","","","","","",""
"506.88000000081956","","image-keyboard-response","126","3426655","0.0-4.0-0.29","","img/pink.png","32","trial","32","true","0.8,0.2","1:go_a","",""
"null","","html-keyboard-response","127","3427658","0.0-4.0-1.29","","<img src=""img/pink-r.png"" border=""10"">","null","trial","32","","0.8,0.2","1:go_a","1",""
"null","","html-keyboard-response","128","3428660","0.0-4.0-2.29","","<div style=""font-size:60px;"">+</div>","null","","","","","","",""
"572.2149999346584","","image-keyboard-response","129","3429234","0.0-4.0-0.30","","img/pink.png","32","trial","32","true","0.8,0.2","1:go_a","",""
"null","","html-keyboard-response","130","3430237","0.0-4.0-1.30","","<img src=""img/pink-n.png"" border=""10"">","null","trial","32","","0.8,0.2","1:go_a","0",""
"null","","html-keyboard-response","131","3431240","0.0-4.0-2.30","","<div style=""font-size:60px;"">+</div>","null","","","","","","",""
"550.8749999571592","","image-keyboard-response","132","3431793","0.0-4.0-0.31","","img/orange.png","32","trial","null","false","0.2,0.8","2:nogo_b","",""
"null","","html-keyboard-response","133","3432798","0.0-4.0-1.31","","<img src=""img/orange-n.png"" border=""10"">","null","trial","null","","0.2,0.8","2:nogo_b","0",""
"null","","html-keyboard-response","134","3433800","0.0-4.0-2.31","","<div style=""font-size:60px;"">+</div>","null","","","","","","",""
"705.9350002091378","","image-keyboard-response","135","3434509","0.0-4.0-0.32","","img/pink.png","32","trial","32","true","0.8,0.2","1:go_a","",""
"null","","html-keyboard-response","136","3435513","0.0-4.0-1.32","","<img src=""img/pink-r.png"" border=""10"">","null","trial","32","","0.8,0.2","1:go_a","1",""
"null","","html-keyboard-response","137","3436515","0.0-4.0-2.32","","<div style=""font-size:60px;"">+</div>","null","","","","","","",""
"null","","image-keyboard-response","138","3438017","0.0-4.0-0.33","","img/orange.png","null","trial","null","true","0.2,0.8","2:nogo_b","",""
"null","","html-keyboard-response","139","3439020","0.0-4.0-1.33","","<img src=""img/orange-n.png"">","null","trial","null","","0.2,0.8","2:nogo_b","0",""
"null","","html-keyboard-response","140","3440022","0.0-4.0-2.33","","<div style=""font-size:60px;"">+</div>","null","","","","","","",""
"null","","image-keyboard-response","141","3441540","0.0-4.0-0.34","","img/orange.png","null","trial","null","true","0.2,0.8","2:nogo_b","",""
"null","","html-keyboard-response","142","3442544","0.0-4.0-1.34","","<img src=""img/orange-r.png"">","null","trial","null","","0.2,0.8","2:nogo_b","1",""
"null","","html-keyboard-response","143","3443547","0.0-4.0-2.34","","<div style=""font-size:60px;"">+</div>","null","","","","","","",""
"775.3899998497218","","image-keyboard-response","144","3444324","0.0-4.0-0.35","","img/pink.png","32","trial","32","true","0.8,0.2","1:go_a","",""
"null","","html-keyboard-response","145","3445330","0.0-4.0-1.35","","<img src=""img/pink-r.png"" border=""10"">","null","trial","32","","0.8,0.2","1:go_a","1",""
"null","","html-keyboard-response","146","3446332","0.0-4.0-2.35","","<div style=""font-size:60px;"">+</div>","null","","","","","","",""
"622.2099999431521","","image-keyboard-response","147","3446957","0.0-4.0-0.36","","img/pink.png","32","trial","32","true","0.8,0.2","1:go_a","",""
"null","","html-keyboard-response","148","3447961","0.0-4.0-1.36","","<img src=""img/pink-n.png"" border=""10"">","null","trial","32","","0.8,0.2","1:go_a","0",""
"null","","html-keyboard-response","149","3448964","0.0-4.0-2.36","","<div style=""font-size:60px;"">+</div>","null","","","","","","",""
"1108.1050001084805","","image-keyboard-response","150","3450075","0.0-4.0-0.37","","img/orange.png","32","trial","null","false","0.2,0.8","2:nogo_b","",""
"null","","html-keyboard-response","151","3451079","0.0-4.0-1.37","","<img src=""img/orange-n.png"" border=""10"">","null","trial","null","","0.2,0.8","2:nogo_b","0",""
"null","","html-keyboard-response","152","3452082","0.0-4.0-2.37","","<div style=""font-size:60px;"">+</div>","null","","","","","","",""
"699.0000000223517","","image-keyboard-response","153","3452783","0.0-4.0-0.38","","img/pink.png","32","trial","32","true","0.8,0.2","1:go_a","",""
"null","","html-keyboard-response","154","3453788","0.0-4.0-1.38","","<img src=""img/pink-r.png"" border=""10"">","null","trial","32","","0.8,0.2","1:go_a","1",""
"null","","html-keyboard-response","155","3454799","0.0-4.0-2.38","","<div style=""font-size:60px;"">+</div>","null","","","","","","",""
"800.9099999908358","","image-keyboard-response","156","3455602","0.0-4.0-0.39","","img/orange.png","32","trial","null","false","0.2,0.8","2:nogo_b","",""
"null","","html-keyboard-response","157","3456610","0.0-4.0-1.39","","<img src=""img/orange-n.png"" border=""10"">","null","trial","null","","0.2,0.8","2:nogo_b","0",""
"null","","html-keyboard-response","158","3457614","0.0-4.0-2.39","","<div style=""font-size:60px;"">+</div>","null","","","","","","",""
"545.6950000952929","","image-keyboard-response","159","3458162","0.0-4.0-0.40","","img/pink.png","32","trial","32","true","0.8,0.2","1:go_a","",""
"null","","html-keyboard-response","160","3459167","0.0-4.0-1.40","","<img src=""img/pink-r.png"" border=""10"">","null","trial","32","","0.8,0.2","1:go_a","1",""
"null","","html-keyboard-response","161","3460170","0.0-4.0-2.40","","<div style=""font-size:60px;"">+</div>","null","","","","","","",""
"null","","image-keyboard-response","162","3461673","0.0-4.0-0.41","","img/orange.png","null","trial","null","true","0.2,0.8","2:nogo_b","",""
"null","","html-keyboard-response","163","3462679","0.0-4.0-1.41","","<img src=""img/orange-r.png"">","null","trial","null","","0.2,0.8","2:nogo_b","1",""
"null","","html-keyboard-response","164","3463684","0.0-4.0-2.41","","<div style=""font-size:60px;"">+</div>","null","","","","","","",""
"535.2499999571592","","image-keyboard-response","165","3464221","0.0-4.0-0.42","","img/pink.png","32","trial","32","true","0.8,0.2","1:go_a","",""
"null","","html-keyboard-response","166","3465226","0.0-4.0-1.42","","<img src=""img/pink-r.png"" border=""10"">","null","trial","32","","0.8,0.2","1:go_a","1",""
"null","","html-keyboard-response","167","3466228","0.0-4.0-2.42","","<div style=""font-size:60px;"">+</div>","null","","","","","","",""
"485.61000009067357","","image-keyboard-response","168","3466716","0.0-4.0-0.43","","img/orange.png","32","trial","null","false","0.2,0.8","2:nogo_b","",""
"null","","html-keyboard-response","169","3467720","0.0-4.0-1.43","","<img src=""img/orange-n.png"" border=""10"">","null","trial","null","","0.2,0.8","2:nogo_b","0",""
"null","","html-keyboard-response","170","3468723","0.0-4.0-2.43","","<div style=""font-size:60px;"">+</div>","null","","","","","","",""
"484.40499999560416","","image-keyboard-response","171","3469210","0.0-4.0-0.44","","img/pink.png","32","trial","32","true","0.8,0.2","1:go_a","",""
"null","","html-keyboard-response","172","3470215","0.0-4.0-1.44","","<img src=""img/pink-r.png"" border=""10"">","null","trial","32","","0.8,0.2","1:go_a","1",""
"null","","html-keyboard-response","173","3471218","0.0-4.0-2.44","","<div style=""font-size:60px;"">+</div>","null","","","","","","",""
"null","","image-keyboard-response","174","3472720","0.0-4.0-0.45","","img/orange.png","null","trial","null","true","0.2,0.8","2:nogo_b","",""
"null","","html-keyboard-response","175","3473725","0.0-4.0-1.45","","<img src=""img/orange-r.png"">","null","trial","null","","0.2,0.8","2:nogo_b","1",""
"null","","html-keyboard-response","176","3474728","0.0-4.0-2.45","","<div style=""font-size:60px;"">+</div>","null","","","","","","",""
"587.1650001499802","","image-keyboard-response","177","3475318","0.0-4.0-0.46","","img/orange.png","32","trial","null","false","0.2,0.8","2:nogo_b","",""
"null","","html-keyboard-response","178","3476321","0.0-4.0-1.46","","<img src=""img/orange-n.png"" border=""10"">","null","trial","null","","0.2,0.8","2:nogo_b","0",""
"null","","html-keyboard-response","179","3477325","0.0-4.0-2.46","","<div style=""font-size:60px;"">+</div>","null","","","","","","",""
"506.7249999847263","","image-keyboard-response","180","3477834","0.0-4.0-0.47","","img/pink.png","32","trial","32","true","0.8,0.2","1:go_a","",""
"null","","html-keyboard-response","181","3478838","0.0-4.0-1.47","","<img src=""img/pink-r.png"" border=""10"">","null","trial","32","","0.8,0.2","1:go_a","1",""
"null","","html-keyboard-response","182","3479840","0.0-4.0-2.47","","<div style=""font-size:60px;"">+</div>","null","","","","","","",""
"472.5750000216067","","image-keyboard-response","183","3480316","0.0-4.0-0.48","","img/pink.png","32","trial","32","true","0.8,0.2","1:go_a","",""
"null","","html-keyboard-response","184","3481320","0.0-4.0-1.48","","<img src=""img/pink-r.png"" border=""10"">","null","trial","32","","0.8,0.2","1:go_a","1",""
"null","","html-keyboard-response","185","3482323","0.0-4.0-2.48","","<div style=""font-size:60px;"">+</div>","null","","","","","","",""
"620.5400000326335","","image-keyboard-response","186","3482945","0.0-4.0-0.49","","img/orange.png","32","trial","null","false","0.2,0.8","2:nogo_b","",""
"null","","html-keyboard-response","187","3483951","0.0-4.0-1.49","","<img src=""img/orange-n.png"" border=""10"">","null","trial","null","","0.2,0.8","2:nogo_b","0",""
"null","","html-keyboard-response","188","3484953","0.0-4.0-2.49","","<div style=""font-size:60px;"">+</div>","null","","","","","","",""
"478.2300000078976","","image-keyboard-response","189","3485434","0.0-4.0-0.50","","img/pink.png","32","trial","32","true","0.8,0.2","1:go_a","",""
"null","","html-keyboard-response","190","3486438","0.0-4.0-1.50","","<img src=""img/pink-r.png"" border=""10"">","null","trial","32","","0.8,0.2","1:go_a","1",""
"null","","html-keyboard-response","191","3487441","0.0-4.0-2.50","","<div style=""font-size:60px;"">+</div>","null","","","","","","",""
"546.3400001171976","","image-keyboard-response","192","3487990","0.0-4.0-0.51","","img/orange.png","32","trial","null","false","0.2,0.8","2:nogo_b","",""
"null","","html-keyboard-response","193","3488994","0.0-4.0-1.51","","<img src=""img/orange-n.png"" border=""10"">","null","trial","null","","0.2,0.8","2:nogo_b","0",""
"null","","html-keyboard-response","194","3489997","0.0-4.0-2.51","","<div style=""font-size:60px;"">+</div>","null","","","","","","",""
"472.12000004947186","","image-keyboard-response","195","3490471","0.0-4.0-0.52","","img/orange.png","32","trial","null","false","0.2,0.8","2:nogo_b","",""
"null","","html-keyboard-response","196","3491476","0.0-4.0-1.52","","<img src=""img/orange-r.png"" border=""10"">","null","trial","null","","0.2,0.8","2:nogo_b","1",""
"null","","html-keyboard-response","197","3492479","0.0-4.0-2.52","","<div style=""font-size:60px;"">+</div>","null","","","","","","",""
"609.6200000029057","","image-keyboard-response","198","3493091","0.0-4.0-0.53","","img/pink.png","32","trial","32","true","0.8,0.2","1:go_a","",""
"null","","html-keyboard-response","199","3494096","0.0-4.0-1.53","","<img src=""img/pink-r.png"" border=""10"">","null","trial","32","","0.8,0.2","1:go_a","1",""
"null","","html-keyboard-response","200","3495100","0.0-4.0-2.53","","<div style=""font-size:60px;"">+</div>","null","","","","","","",""
"596.9950000289828","","image-keyboard-response","201","3495699","0.0-4.0-0.54","","img/pink.png","32","trial","32","true","0.8,0.2","1:go_a","",""
"null","","html-keyboard-response","202","3496703","0.0-4.0-1.54","","<img src=""img/pink-r.png"" border=""10"">","null","trial","32","","0.8,0.2","1:go_a","1",""
"null","","html-keyboard-response","203","3497706","0.0-4.0-2.54","","<div style=""font-size:60px;"">+</div>","null","","","","","","",""
"689.5500000100583","","image-keyboard-response","204","3498398","0.0-4.0-0.55","","img/orange.png","32","trial","null","false","0.2,0.8","2:nogo_b","",""
"null","","html-keyboard-response","205","3499402","0.0-4.0-1.55","","<img src=""img/orange-r.png"" border=""10"">","null","trial","null","","0.2,0.8","2:nogo_b","1",""
"null","","html-keyboard-response","206","3500405","0.0-4.0-2.55","","<div style=""font-size:60px;"">+</div>","null","","","","","","",""
"607.6650000177324","","image-keyboard-response","207","3501014","0.0-4.0-0.56","","img/pink.png","32","trial","32","true","0.8,0.2","1:go_a","",""
"null","","html-keyboard-response","208","3502018","0.0-4.0-1.56","","<img src=""img/pink-n.png"" border=""10"">","null","trial","32","","0.8,0.2","1:go_a","0",""
"null","","html-keyboard-response","209","3503021","0.0-4.0-2.56","","<div style=""font-size:60px;"">+</div>","null","","","","","","",""
"807.5800000224262","","image-keyboard-response","210","3503831","0.0-4.0-0.57","","img/orange.png","32","trial","null","false","0.2,0.8","2:nogo_b","",""
"null","","html-keyboard-response","211","3504835","0.0-4.0-1.57","","<img src=""img/orange-r.png"" border=""10"">","null","trial","null","","0.2,0.8","2:nogo_b","1",""
"null","","html-keyboard-response","212","3505839","0.0-4.0-2.57","","<div style=""font-size:60px;"">+</div>","null","","","","","","",""
"759.8300001118332","","image-keyboard-response","213","3506601","0.0-4.0-0.58","","img/orange.png","32","trial","null","false","0.2,0.8","2:nogo_b","",""
"null","","html-keyboard-response","214","3507606","0.0-4.0-1.58","","<img src=""img/orange-r.png"" border=""10"">","null","trial","null","","0.2,0.8","2:nogo_b","1",""
"null","","html-keyboard-response","215","3508609","0.0-4.0-2.58","","<div style=""font-size:60px;"">+</div>","null","","","","","","",""
"null","","image-keyboard-response","216","3510112","0.0-4.0-0.59","","img/pink.png","null","trial","32","false","0.8,0.2","1:go_a","",""
"null","","html-keyboard-response","217","3511116","0.0-4.0-1.59","","<img src=""img/pink-n.png"">","null","trial","32","","0.8,0.2","1:go_a","0",""
"null","","html-keyboard-response","218","3512118","0.0-4.0-2.59","","<div style=""font-size:60px;"">+</div>","null","","","","","","",""
"5720.179999945685","","instructions","219","3517840","0.0-5.0","[{""page_index"":0,""viewing_time"":5719.430000055581}]","","","","","","","","",""
"null","","image-keyboard-response","220","3519344","0.0-6.0-0.0","","img/grey.png","null","trial","null","true","0.4,0.6","4:nogo_d","",""
"null","","html-keyboard-response","221","3520350","0.0-6.0-1.0","","<img src=""img/grey-n.png"">","null","trial","null","","0.4,0.6","4:nogo_d","0",""
"null","","html-keyboard-response","222","3521352","0.0-6.0-2.0","","<div style=""font-size:60px;"">+</div>","null","","","","","","",""
"649.2000001017004","","image-keyboard-response","223","3522003","0.0-6.0-0.1","","img/purple.png","32","trial","32","true","0.8,0.2","1:go_a","",""
"null","","html-keyboard-response","224","3523007","0.0-6.0-1.1","","<img src=""img/purple-r.png"" border=""10"">","null","trial","32","","0.8,0.2","1:go_a","1",""
"null","","html-keyboard-response","225","3524010","0.0-6.0-2.1","","<div style=""font-size:60px;"">+</div>","null","","","","","","",""
"890.079999808222","","image-keyboard-response","226","3524902","0.0-6.0-0.2","","img/pink.png","32","trial","null","false","0.2,0.8","2:nogo_b","",""
"null","","html-keyboard-response","227","3525906","0.0-6.0-1.2","","<img src=""img/pink-n.png"" border=""10"">","null","trial","null","","0.2,0.8","2:nogo_b","0",""
"null","","html-keyboard-response","228","3526910","0.0-6.0-2.2","","<div style=""font-size:60px;"">+</div>","null","","","","","","",""
"872.4100000690669","","image-keyboard-response","229","3527784","0.0-6.0-0.3","","img/green.png","32","trial","32","true","0.6,0.4","3:go_c","",""
"null","","html-keyboard-response","230","3528789","0.0-6.0-1.3","","<img src=""img/green-r.png"" border=""10"">","null","trial","32","","0.6,0.4","3:go_c","1",""
"null","","html-keyboard-response","231","3529792","0.0-6.0-2.3","","<div style=""font-size:60px;"">+</div>","null","","","","","","",""
"null","","image-keyboard-response","232","3531295","0.0-6.0-0.4","","img/pink.png","null","trial","null","true","0.2,0.8","2:nogo_b","",""
"null","","html-keyboard-response","233","3532300","0.0-6.0-1.4","","<img src=""img/pink-r.png"">","null","trial","null","","0.2,0.8","2:nogo_b","1",""
"null","","html-keyboard-response","234","3533303","0.0-6.0-2.4","","<div style=""font-size:60px;"">+</div>","null","","","","","","",""
"908.32499996759","","image-keyboard-response","235","3534213","0.0-6.0-0.5","","img/grey.png","32","trial","null","false","0.4,0.6","4:nogo_d","",""
"null","","html-keyboard-response","236","3535218","0.0-6.0-1.5","","<img src=""img/grey-n.png"" border=""10"">","null","trial","null","","0.4,0.6","4:nogo_d","0",""
"null","","html-keyboard-response","237","3536221","0.0-6.0-2.5","","<div style=""font-size:60px;"">+</div>","null","","","","","","",""
"584.7599999979138","","image-keyboard-response","238","3536808","0.0-6.0-0.6","","img/green.png","32","trial","32","true","0.6,0.4","3:go_c","",""
"null","","html-keyboard-response","239","3537813","0.0-6.0-1.6","","<img src=""img/green-r.png"" border=""10"">","null","trial","32","","0.6,0.4","3:go_c","1",""
"null","","html-keyboard-response","240","3538815","0.0-6.0-2.6","","<div style=""font-size:60px;"">+</div>","null","","","","","","",""
"null","","image-keyboard-response","241","3540320","0.0-6.0-0.7","","img/purple.png","null","trial","32","false","0.8,0.2","1:go_a","",""
"null","","html-keyboard-response","242","3541325","0.0-6.0-1.7","","<img src=""img/purple-r.png"">","null","trial","32","","0.8,0.2","1:go_a","1",""
"null","","html-keyboard-response","243","3542335","0.0-6.0-2.7","","<div style=""font-size:60px;"">+</div>","null","","","","","","",""
"null","","image-keyboard-response","244","3543838","0.0-6.0-0.8","","img/grey.png","null","trial","null","true","0.4,0.6","4:nogo_d","",""
"null","","html-keyboard-response","245","3544843","0.0-6.0-1.8","","<img src=""img/grey-r.png"">","null","trial","null","","0.4,0.6","4:nogo_d","1",""
"null","","html-keyboard-response","246","3545845","0.0-6.0-2.8","","<div style=""font-size:60px;"">+</div>","null","","","","","","",""
"635.6249998789281","","image-keyboard-response","247","3546483","0.0-6.0-0.9","","img/pink.png","32","trial","null","false","0.2,0.8","2:nogo_b","",""
"null","","html-keyboard-response","248","3547487","0.0-6.0-1.9","","<img src=""img/pink-n.png"" border=""10"">","null","trial","null","","0.2,0.8","2:nogo_b","0",""
"null","","html-keyboard-response","249","3548489","0.0-6.0-2.9","","<div style=""font-size:60px;"">+</div>","null","","","","","","",""
"503.2399999909103","","image-keyboard-response","250","3548995","0.0-6.0-0.10","","img/green.png","32","trial","32","true","0.6,0.4","3:go_c","",""
"null","","html-keyboard-response","251","3550001","0.0-6.0-1.10","","<img src=""img/green-r.png"" border=""10"">","null","trial","32","","0.6,0.4","3:go_c","1",""
"null","","html-keyboard-response","252","3551004","0.0-6.0-2.10","","<div style=""font-size:60px;"">+</div>","null","","","","","","",""
"695.9649999625981","","image-keyboard-response","253","3551703","0.0-6.0-0.11","","img/purple.png","32","trial","32","true","0.8,0.2","1:go_a","",""
"null","","html-keyboard-response","254","3552707","0.0-6.0-1.11","","<img src=""img/purple-r.png"" border=""10"">","null","trial","32","","0.8,0.2","1:go_a","1",""
"null","","html-keyboard-response","255","3553710","0.0-6.0-2.11","","<div style=""font-size:60px;"">+</div>","null","","","","","","",""
"685.1000001188368","","image-keyboard-response","256","3554398","0.0-6.0-0.12","","img/green.png","32","trial","32","true","0.6,0.4","3:go_c","",""
"null","","html-keyboard-response","257","3555402","0.0-6.0-1.12","","<img src=""img/green-r.png"" border=""10"">","null","trial","32","","0.6,0.4","3:go_c","1",""
"null","","html-keyboard-response","258","3556406","0.0-6.0-2.12","","<div style=""font-size:60px;"">+</div>","null","","","","","","",""
"841.6949999518692","","image-keyboard-response","259","3557250","0.0-6.0-0.13","","img/pink.png","32","trial","null","false","0.2,0.8","2:nogo_b","",""
"null","","html-keyboard-response","260","3558254","0.0-6.0-1.13","","<img src=""img/pink-n.png"" border=""10"">","null","trial","null","","0.2,0.8","2:nogo_b","0",""
"null","","html-keyboard-response","261","3559257","0.0-6.0-2.13","","<div style=""font-size:60px;"">+</div>","null","","","","","","",""
"675.529999891296","","image-keyboard-response","262","3559935","0.0-6.0-0.14","","img/purple.png","32","trial","32","true","0.8,0.2","1:go_a","",""
"null","","html-keyboard-response","263","3560940","0.0-6.0-1.14","","<img src=""img/purple-n.png"" border=""10"">","null","trial","32","","0.8,0.2","1:go_a","0",""
"null","","html-keyboard-response","264","3561944","0.0-6.0-2.14","","<div style=""font-size:60px;"">+</div>","null","","","","","","",""
"705.8650001417845","","image-keyboard-response","265","3562653","0.0-6.0-0.15","","img/grey.png","32","trial","null","false","0.4,0.6","4:nogo_d","",""
"null","","html-keyboard-response","266","3563657","0.0-6.0-1.15","","<img src=""img/grey-n.png"" border=""10"">","null","trial","null","","0.4,0.6","4:nogo_d","0",""
"null","","html-keyboard-response","267","3564659","0.0-6.0-2.15","","<div style=""font-size:60px;"">+</div>","null","","","","","","",""
"586.1400000285357","","image-keyboard-response","268","3565247","0.0-6.0-0.16","","img/purple.png","32","trial","32","true","0.8,0.2","1:go_a","",""
"null","","html-keyboard-response","269","3566251","0.0-6.0-1.16","","<img src=""img/purple-r.png"" border=""10"">","null","trial","32","","0.8,0.2","1:go_a","1",""
"null","","html-keyboard-response","270","3567254","0.0-6.0-2.16","","<div style=""font-size:60px;"">+</div>","null","","","","","","",""
"null","","image-keyboard-response","271","3568757","0.0-6.0-0.17","","img/grey.png","null","trial","null","true","0.4,0.6","4:nogo_d","",""
"null","","html-keyboard-response","272","3569761","0.0-6.0-1.17","","<img src=""img/grey-r.png"">","null","trial","null","","0.4,0.6","4:nogo_d","1",""
"null","","html-keyboard-response","273","3570764","0.0-6.0-2.17","","<div style=""font-size:60px;"">+</div>","null","","","","","","",""
"640.2200001757592","","image-keyboard-response","274","3571406","0.0-6.0-0.18","","img/green.png","32","trial","32","true","0.6,0.4","3:go_c","",""
"null","","html-keyboard-response","275","3572410","0.0-6.0-1.18","","<img src=""img/green-n.png"" border=""10"">","null","trial","32","","0.6,0.4","3:go_c","0",""
"null","","html-keyboard-response","276","3573412","0.0-6.0-2.18","","<div style=""font-size:60px;"">+</div>","null","","","","","","",""
"655.5949999019504","","image-keyboard-response","277","3574071","0.0-6.0-0.19","","img/pink.png","32","trial","null","false","0.2,0.8","2:nogo_b","",""
"null","","html-keyboard-response","278","3575075","0.0-6.0-1.19","","<img src=""img/pink-n.png"" border=""10"">","null","trial","null","","0.2,0.8","2:nogo_b","0",""
"null","","html-keyboard-response","279","3576078","0.0-6.0-2.19","","<div style=""font-size:60px;"">+</div>","null","","","","","","",""
"586.4349999465048","","image-keyboard-response","280","3576667","0.0-6.0-0.20","","img/purple.png","32","trial","32","true","0.8,0.2","1:go_a","",""
"null","","html-keyboard-response","281","3577671","0.0-6.0-1.20","","<img src=""img/purple-r.png"" border=""10"">","null","trial","32","","0.8,0.2","1:go_a","1",""
"null","","html-keyboard-response","282","3578675","0.0-6.0-2.20","","<div style=""font-size:60px;"">+</div>","null","","","","","","",""
"858.6900001391768","","image-keyboard-response","283","3579535","0.0-6.0-0.21","","img/green.png","32","trial","32","true","0.6,0.4","3:go_c","",""
"null","","html-keyboard-response","284","3580545","0.0-6.0-1.21","","<img src=""img/green-r.png"" border=""10"">","null","trial","32","","0.6,0.4","3:go_c","1",""
"null","","html-keyboard-response","285","3581547","0.0-6.0-2.21","","<div style=""font-size:60px;"">+</div>","null","","","","","","",""
"null","","image-keyboard-response","286","3583050","0.0-6.0-0.22","","img/pink.png","null","trial","null","true","0.2,0.8","2:nogo_b","",""
"null","","html-keyboard-response","287","3584055","0.0-6.0-1.22","","<img src=""img/pink-r.png"">","null","trial","null","","0.2,0.8","2:nogo_b","1",""
"null","","html-keyboard-response","288","3585058","0.0-6.0-2.22","","<div style=""font-size:60px;"">+</div>","null","","","","","","",""
"null","","image-keyboard-response","289","3586562","0.0-6.0-0.23","","img/grey.png","null","trial","null","true","0.4,0.6","4:nogo_d","",""
"null","","html-keyboard-response","290","3587566","0.0-6.0-1.23","","<img src=""img/grey-r.png"">","null","trial","null","","0.4,0.6","4:nogo_d","1",""
"null","","html-keyboard-response","291","3588569","0.0-6.0-2.23","","<div style=""font-size:60px;"">+</div>","null","","","","","","",""
"610.0149999838322","","image-keyboard-response","292","3589182","0.0-6.0-0.24","","img/purple.png","32","trial","32","true","0.8,0.2","1:go_a","",""
"null","","html-keyboard-response","293","3590187","0.0-6.0-1.24","","<img src=""img/purple-r.png"" border=""10"">","null","trial","32","","0.8,0.2","1:go_a","1",""
"null","","html-keyboard-response","294","3591190","0.0-6.0-2.24","","<div style=""font-size:60px;"">+</div>","null","","","","","","",""
"697.090000147","","image-keyboard-response","295","3591890","0.0-6.0-0.25","","img/green.png","32","trial","32","true","0.6,0.4","3:go_c","",""
"null","","html-keyboard-response","296","3592894","0.0-6.0-1.25","","<img src=""img/green-n.png"" border=""10"">","null","trial","32","","0.6,0.4","3:go_c","0",""
"null","","html-keyboard-response","297","3593897","0.0-6.0-2.25","","<div style=""font-size:60px;"">+</div>","null","","","","","","",""
"545.7500000484288","","image-keyboard-response","298","3594446","0.0-6.0-0.26","","img/pink.png","32","trial","null","false","0.2,0.8","2:nogo_b","",""
"null","","html-keyboard-response","299","3595450","0.0-6.0-1.26","","<img src=""img/pink-n.png"" border=""10"">","null","trial","null","","0.2,0.8","2:nogo_b","0",""
"null","","html-keyboard-response","300","3596453","0.0-6.0-2.26","","<div style=""font-size:60px;"">+</div>","null","","","","","","",""
"660.4349999688566","","image-keyboard-response","301","3597116","0.0-6.0-0.27","","img/grey.png","32","trial","null","false","0.4,0.6","4:nogo_d","",""
"null","","html-keyboard-response","302","3598121","0.0-6.0-1.27","","<img src=""img/grey-n.png"" border=""10"">","null","trial","null","","0.4,0.6","4:nogo_d","0",""
"null","","html-keyboard-response","303","3599124","0.0-6.0-2.27","","<div style=""font-size:60px;"">+</div>","null","","","","","","",""
"549.7099999338388","","image-keyboard-response","304","3599679","0.0-6.0-0.28","","img/purple.png","32","trial","32","true","0.8,0.2","1:go_a","",""
"null","","html-keyboard-response","305","3600684","0.0-6.0-1.28","","<img src=""img/purple-r.png"" border=""10"">","null","trial","32","","0.8,0.2","1:go_a","1",""
"null","","html-keyboard-response","306","3601686","0.0-6.0-2.28","","<div style=""font-size:60px;"">+</div>","null","","","","","","",""
"1111.5399999544024","","image-keyboard-response","307","3602801","0.0-6.0-0.29","","img/pink.png","32","trial","null","false","0.2,0.8","2:nogo_b","",""
"null","","html-keyboard-response","308","3603805","0.0-6.0-1.29","","<img src=""img/pink-n.png"" border=""10"">","null","trial","null","","0.2,0.8","2:nogo_b","0",""
"null","","html-keyboard-response","309","3604808","0.0-6.0-2.29","","<div style=""font-size:60px;"">+</div>","null","","","","","","",""
"907.1899999398738","","image-keyboard-response","310","3605717","0.0-6.0-0.30","","img/grey.png","32","trial","null","false","0.4,0.6","4:nogo_d","",""
"null","","html-keyboard-response","311","3606722","0.0-6.0-1.30","","<img src=""img/grey-r.png"" border=""10"">","null","trial","null","","0.4,0.6","4:nogo_d","1",""
"null","","html-keyboard-response","312","3607724","0.0-6.0-2.30","","<div style=""font-size:60px;"">+</div>","null","","","","","","",""
"895.4800001811236","","image-keyboard-response","313","3608622","0.0-6.0-0.31","","img/green.png","32","trial","32","true","0.6,0.4","3:go_c","",""
"null","","html-keyboard-response","314","3609626","0.0-6.0-1.31","","<img src=""img/green-r.png"" border=""10"">","null","trial","32","","0.6,0.4","3:go_c","1",""
"null","","html-keyboard-response","315","3610630","0.0-6.0-2.31","","<div style=""font-size:60px;"">+</div>","null","","","","","","",""
"714.8599999491125","","image-keyboard-response","316","3611347","0.0-6.0-0.32","","img/green.png","32","trial","32","true","0.6,0.4","3:go_c","",""
"null","","html-keyboard-response","317","3612351","0.0-6.0-1.32","","<img src=""img/green-r.png"" border=""10"">","null","trial","32","","0.6,0.4","3:go_c","1",""
"null","","html-keyboard-response","318","3613355","0.0-6.0-2.32","","<div style=""font-size:60px;"">+</div>","null","","","","","","",""
"652.3000001907349","","image-keyboard-response","319","3614010","0.0-6.0-0.33","","img/purple.png","32","trial","32","true","0.8,0.2","1:go_a","",""
"null","","html-keyboard-response","320","3615016","0.0-6.0-1.33","","<img src=""img/purple-r.png"" border=""10"">","null","trial","32","","0.8,0.2","1:go_a","1",""
"null","","html-keyboard-response","321","3616019","0.0-6.0-2.33","","<div style=""font-size:60px;"">+</div>","null","","","","","","",""
"1015.4349999502301","","image-keyboard-response","322","3617037","0.0-6.0-0.34","","img/grey.png","32","trial","null","false","0.4,0.6","4:nogo_d","",""
"null","","html-keyboard-response","323","3618041","0.0-6.0-1.34","","<img src=""img/grey-n.png"" border=""10"">","null","trial","null","","0.4,0.6","4:nogo_d","0",""
"null","","html-keyboard-response","324","3619045","0.0-6.0-2.34","","<div style=""font-size:60px;"">+</div>","null","","","","","","",""
"null","","image-keyboard-response","325","3620548","0.0-6.0-0.35","","img/pink.png","null","trial","null","true","0.2,0.8","2:nogo_b","",""
"null","","html-keyboard-response","326","3621552","0.0-6.0-1.35","","<img src=""img/pink-r.png"">","null","trial","null","","0.2,0.8","2:nogo_b","1",""
"null","","html-keyboard-response","327","3622556","0.0-6.0-2.35","","<div style=""font-size:60px;"">+</div>","null","","","","","","",""
"956.3700000289828","","image-keyboard-response","328","3623514","0.0-6.0-0.36","","img/grey.png","32","trial","null","false","0.4,0.6","4:nogo_d","",""
"null","","html-keyboard-response","329","3624520","0.0-6.0-1.36","","<img src=""img/grey-n.png"" border=""10"">","null","trial","null","","0.4,0.6","4:nogo_d","0",""
"null","","html-keyboard-response","330","3625523","0.0-6.0-2.36","","<div style=""font-size:60px;"">+</div>","null","","","","","","",""
"508.07999982498586","","image-keyboard-response","331","3626039","0.0-6.0-0.37","","img/green.png","32","trial","32","true","0.6,0.4","3:go_c","",""
"null","","html-keyboard-response","332","3627044","0.0-6.0-1.37","","<img src=""img/green-r.png"" border=""10"">","null","trial","32","","0.6,0.4","3:go_c","1",""
"null","","html-keyboard-response","333","3628047","0.0-6.0-2.37","","<div style=""font-size:60px;"">+</div>","null","","","","","","",""
"870.6099998671561","","image-keyboard-response","334","3628920","0.0-6.0-0.38","","img/pink.png","32","trial","null","false","0.2,0.8","2:nogo_b","",""
"null","","html-keyboard-response","335","3629924","0.0-6.0-1.38","","<img src=""img/pink-n.png"" border=""10"">","null","trial","null","","0.2,0.8","2:nogo_b","0",""
"null","","html-keyboard-response","336","3630928","0.0-6.0-2.38","","<div style=""font-size:60px;"">+</div>","null","","","","","","",""
"556.5049999859184","","image-keyboard-response","337","3631487","0.0-6.0-0.39","","img/purple.png","32","trial","32","true","0.8,0.2","1:go_a","",""
"null","","html-keyboard-response","338","3632492","0.0-6.0-1.39","","<img src=""img/purple-r.png"" border=""10"">","null","trial","32","","0.8,0.2","1:go_a","1",""
"null","","html-keyboard-response","339","3633494","0.0-6.0-2.39","","<div style=""font-size:60px;"">+</div>","null","","","","","","",""
"null","","image-keyboard-response","340","3634997","0.0-6.0-0.40","","img/pink.png","null","trial","null","true","0.2,0.8","2:nogo_b","",""
"null","","html-keyboard-response","341","3636002","0.0-6.0-1.40","","<img src=""img/pink-n.png"">","null","trial","null","","0.2,0.8","2:nogo_b","0",""
"null","","html-keyboard-response","342","3637004","0.0-6.0-2.40","","<div style=""font-size:60px;"">+</div>","null","","","","","","",""
"819.5199999026954","","image-keyboard-response","343","3637826","0.0-6.0-0.41","","img/grey.png","32","trial","null","false","0.4,0.6","4:nogo_d","",""
"null","","html-keyboard-response","344","3638830","0.0-6.0-1.41","","<img src=""img/grey-n.png"" border=""10"">","null","trial","null","","0.4,0.6","4:nogo_d","0",""
"null","","html-keyboard-response","345","3639834","0.0-6.0-2.41","","<div style=""font-size:60px;"">+</div>","null","","","","","","",""
"616.1299999803305","","image-keyboard-response","346","3640455","0.0-6.0-0.42","","img/purple.png","32","trial","32","true","0.8,0.2","1:go_a","",""
"null","","html-keyboard-response","347","3641461","0.0-6.0-1.42","","<img src=""img/purple-r.png"" border=""10"">","null","trial","32","","0.8,0.2","1:go_a","1",""
"null","","html-keyboard-response","348","3642464","0.0-6.0-2.42","","<div style=""font-size:60px;"">+</div>","null","","","","","","",""
"603.6449999082834","","image-keyboard-response","349","3643070","0.0-6.0-0.43","","img/green.png","32","trial","32","true","0.6,0.4","3:go_c","",""
"null","","html-keyboard-response","350","3644075","0.0-6.0-1.43","","<img src=""img/green-r.png"" border=""10"">","null","trial","32","","0.6,0.4","3:go_c","1",""
"null","","html-keyboard-response","351","3645078","0.0-6.0-2.43","","<div style=""font-size:60px;"">+</div>","null","","","","","","",""
"null","","image-keyboard-response","352","3646581","0.0-6.0-0.44","","img/grey.png","null","trial","null","true","0.4,0.6","4:nogo_d","",""
"null","","html-keyboard-response","353","3647585","0.0-6.0-1.44","","<img src=""img/grey-n.png"">","null","trial","null","","0.4,0.6","4:nogo_d","0",""
"null","","html-keyboard-response","354","3648588","0.0-6.0-2.44","","<div style=""font-size:60px;"">+</div>","null","","","","","","",""
"null","","image-keyboard-response","355","3650092","0.0-6.0-0.45","","img/pink.png","null","trial","null","true","0.2,0.8","2:nogo_b","",""
"null","","html-keyboard-response","356","3651097","0.0-6.0-1.45","","<img src=""img/pink-r.png"">","null","trial","null","","0.2,0.8","2:nogo_b","1",""
"null","","html-keyboard-response","357","3652099","0.0-6.0-2.45","","<div style=""font-size:60px;"">+</div>","null","","","","","","",""
"634.5699999947101","","image-keyboard-response","358","3652736","0.0-6.0-0.46","","img/purple.png","32","trial","32","true","0.8,0.2","1:go_a","",""
"null","","html-keyboard-response","359","3653741","0.0-6.0-1.46","","<img src=""img/purple-r.png"" border=""10"">","null","trial","32","","0.8,0.2","1:go_a","1",""
"null","","html-keyboard-response","360","3654744","0.0-6.0-2.46","","<div style=""font-size:60px;"">+</div>","null","","","","","","",""
"690.330000128597","","image-keyboard-response","361","3655437","0.0-6.0-0.47","","img/green.png","32","trial","32","true","0.6,0.4","3:go_c","",""
"null","","html-keyboard-response","362","3656442","0.0-6.0-1.47","","<img src=""img/green-r.png"" border=""10"">","null","trial","32","","0.6,0.4","3:go_c","1",""
"null","","html-keyboard-response","363","3657445","0.0-6.0-2.47","","<div style=""font-size:60px;"">+</div>","null","","","","","","",""
"746.4250000193715","","image-keyboard-response","364","3658194","0.0-6.0-0.48","","img/purple.png","32","trial","32","true","0.8,0.2","1:go_a","",""
"null","","html-keyboard-response","365","3659200","0.0-6.0-1.48","","<img src=""img/purple-r.png"" border=""10"">","null","trial","32","","0.8,0.2","1:go_a","1",""
"null","","html-keyboard-response","366","3660203","0.0-6.0-2.48","","<div style=""font-size:60px;"">+</div>","null","","","","","","",""
"null","","image-keyboard-response","367","3661707","0.0-6.0-0.49","","img/grey.png","null","trial","null","true","0.4,0.6","4:nogo_d","",""
"null","","html-keyboard-response","368","3662712","0.0-6.0-1.49","","<img src=""img/grey-r.png"">","null","trial","null","","0.4,0.6","4:nogo_d","1",""
"null","","html-keyboard-response","369","3663714","0.0-6.0-2.49","","<div style=""font-size:60px;"">+</div>","null","","","","","","",""
"756.6499998793006","","image-keyboard-response","370","3664473","0.0-6.0-0.50","","img/green.png","32","trial","32","true","0.6,0.4","3:go_c","",""
"null","","html-keyboard-response","371","3665478","0.0-6.0-1.50","","<img src=""img/green-r.png"" border=""10"">","null","trial","32","","0.6,0.4","3:go_c","1",""
"null","","html-keyboard-response","372","3666481","0.0-6.0-2.50","","<div style=""font-size:60px;"">+</div>","null","","","","","","",""
"614.6599999628961","","image-keyboard-response","373","3667098","0.0-6.0-0.51","","img/pink.png","32","trial","null","false","0.2,0.8","2:nogo_b","",""
"null","","html-keyboard-response","374","3668103","0.0-6.0-1.51","","<img src=""img/pink-n.png"" border=""10"">","null","trial","null","","0.2,0.8","2:nogo_b","0",""
"null","","html-keyboard-response","375","3669106","0.0-6.0-2.51","","<div style=""font-size:60px;"">+</div>","null","","","","","","",""
"737.0249999221414","","image-keyboard-response","376","3669846","0.0-6.0-0.52","","img/grey.png","32","trial","null","false","0.4,0.6","4:nogo_d","",""
"null","","html-keyboard-response","377","3670851","0.0-6.0-1.52","","<img src=""img/grey-n.png"" border=""10"">","null","trial","null","","0.4,0.6","4:nogo_d","0",""
"null","","html-keyboard-response","378","3671853","0.0-6.0-2.52","","<div style=""font-size:60px;"">+</div>","null","","","","","","",""
"570.0000000651926","","image-keyboard-response","379","3672425","0.0-6.0-0.53","","img/purple.png","32","trial","32","true","0.8,0.2","1:go_a","",""
"null","","html-keyboard-response","380","3673428","0.0-6.0-1.53","","<img src=""img/purple-r.png"" border=""10"">","null","trial","32","","0.8,0.2","1:go_a","1",""
"null","","html-keyboard-response","381","3674431","0.0-6.0-2.53","","<div style=""font-size:60px;"">+</div>","null","","","","","","",""
"595.5550000071526","","image-keyboard-response","382","3675029","0.0-6.0-0.54","","img/green.png","32","trial","32","true","0.6,0.4","3:go_c","",""
"null","","html-keyboard-response","383","3676034","0.0-6.0-1.54","","<img src=""img/green-n.png"" border=""10"">","null","trial","32","","0.6,0.4","3:go_c","0",""
"null","","html-keyboard-response","384","3677037","0.0-6.0-2.54","","<div style=""font-size:60px;"">+</div>","null","","","","","","",""
"729.0900000371039","","image-keyboard-response","385","3677768","0.0-6.0-0.55","","img/pink.png","32","trial","null","false","0.2,0.8","2:nogo_b","",""
"null","","html-keyboard-response","386","3678773","0.0-6.0-1.55","","<img src=""img/pink-n.png"" border=""10"">","null","trial","null","","0.2,0.8","2:nogo_b","0",""
"null","","html-keyboard-response","387","3679776","0.0-6.0-2.55","","<div style=""font-size:60px;"">+</div>","null","","","","","","",""
"574.8850000090897","","image-keyboard-response","388","3680353","0.0-6.0-0.56","","img/purple.png","32","trial","32","true","0.8,0.2","1:go_a","",""
"null","","html-keyboard-response","389","3681358","0.0-6.0-1.56","","<img src=""img/purple-r.png"" border=""10"">","null","trial","32","","0.8,0.2","1:go_a","1",""
"null","","html-keyboard-response","390","3682362","0.0-6.0-2.56","","<div style=""font-size:60px;"">+</div>","null","","","","","","",""
"913.9600000344217","","image-keyboard-response","391","3683281","0.0-6.0-0.57","","img/grey.png","32","trial","null","false","0.4,0.6","4:nogo_d","",""
"null","","html-keyboard-response","392","3684285","0.0-6.0-1.57","","<img src=""img/grey-r.png"" border=""10"">","null","trial","null","","0.4,0.6","4:nogo_d","1",""
"null","","html-keyboard-response","393","3685288","0.0-6.0-2.57","","<div style=""font-size:60px;"">+</div>","null","","","","","","",""
"null","","image-keyboard-response","394","3686791","0.0-6.0-0.58","","img/pink.png","null","trial","null","true","0.2,0.8","2:nogo_b","",""
"null","","html-keyboard-response","395","3687799","0.0-6.0-1.58","","<img src=""img/pink-n.png"">","null","trial","null","","0.2,0.8","2:nogo_b","0",""
"null","","html-keyboard-response","396","3688801","0.0-6.0-2.58","","<div style=""font-size:60px;"">+</div>","null","","","","","","",""
"666.9700001366436","","image-keyboard-response","397","3689470","0.0-6.0-0.59","","img/green.png","32","trial","32","true","0.6,0.4","3:go_c","",""
"null","","html-keyboard-response","398","3690474","0.0-6.0-1.59","","<img src=""img/green-n.png"" border=""10"">","null","trial","32","","0.6,0.4","3:go_c","0",""
"null","","html-keyboard-response","399","3691477","0.0-6.0-2.59","","<div style=""font-size:60px;"">+</div>","null","","","","","","",""
"644.8950001504272","","image-keyboard-response","400","3692125","0.0-6.0-0.60","","img/pink.png","32","trial","null","false","0.2,0.8","2:nogo_b","",""
"null","","html-keyboard-response","401","3693130","0.0-6.0-1.60","","<img src=""img/pink-n.png"" border=""10"">","null","trial","null","","0.2,0.8","2:nogo_b","0",""
"null","","html-keyboard-response","402","3694132","0.0-6.0-2.60","","<div style=""font-size:60px;"">+</div>","null","","","","","","",""
"709.874999942258","","image-keyboard-response","403","3694844","0.0-6.0-0.61","","img/purple.png","32","trial","32","true","0.8,0.2","1:go_a","",""
"null","","html-keyboard-response","404","3695849","0.0-6.0-1.61","","<img src=""img/purple-n.png"" border=""10"">","null","trial","32","","0.8,0.2","1:go_a","0",""
"null","","html-keyboard-response","405","3696851","0.0-6.0-2.61","","<div style=""font-size:60px;"">+</div>","null","","","","","","",""
"656.3999999780208","","image-keyboard-response","406","3697510","0.0-6.0-0.62","","img/green.png","32","trial","32","true","0.6,0.4","3:go_c","",""
"null","","html-keyboard-response","407","3698514","0.0-6.0-1.62","","<img src=""img/green-n.png"" border=""10"">","null","trial","32","","0.6,0.4","3:go_c","0",""
"null","","html-keyboard-response","408","3699518","0.0-6.0-2.62","","<div style=""font-size:60px;"">+</div>","null","","","","","","",""
"806.2299999874085","","image-keyboard-response","409","3700326","0.0-6.0-0.63","","img/grey.png","32","trial","null","false","0.4,0.6","4:nogo_d","",""
"null","","html-keyboard-response","410","3701330","0.0-6.0-1.63","","<img src=""img/grey-r.png"" border=""10"">","null","trial","null","","0.4,0.6","4:nogo_d","1",""
"null","","html-keyboard-response","411","3702333","0.0-6.0-2.63","","<div style=""font-size:60px;"">+</div>","null","","","","","","",""
"null","","image-keyboard-response","412","3703835","0.0-6.0-0.64","","img/pink.png","null","trial","null","true","0.2,0.8","2:nogo_b","",""
"null","","html-keyboard-response","413","3704837","0.0-6.0-1.64","","<img src=""img/pink-r.png"">","null","trial","null","","0.2,0.8","2:nogo_b","1",""
"null","","html-keyboard-response","414","3705840","0.0-6.0-2.64","","<div style=""font-size:60px;"">+</div>","null","","","","","","",""
"760.550000006333","","image-keyboard-response","415","3706603","0.0-6.0-0.65","","img/grey.png","32","trial","null","false","0.4,0.6","4:nogo_d","",""
"null","","html-keyboard-response","416","3707610","0.0-6.0-1.65","","<img src=""img/grey-n.png"" border=""10"">","null","trial","null","","0.4,0.6","4:nogo_d","0",""
"null","","html-keyboard-response","417","3708614","0.0-6.0-2.65","","<div style=""font-size:60px;"">+</div>","null","","","","","","",""
"573.3350000809878","","image-keyboard-response","418","3709190","0.0-6.0-0.66","","img/purple.png","32","trial","32","true","0.8,0.2","1:go_a","",""
"null","","html-keyboard-response","419","3710193","0.0-6.0-1.66","","<img src=""img/purple-r.png"" border=""10"">","null","trial","32","","0.8,0.2","1:go_a","1",""
"null","","html-keyboard-response","420","3711197","0.0-6.0-2.66","","<div style=""font-size:60px;"">+</div>","null","","","","","","",""
"710.6299998704344","","image-keyboard-response","421","3711910","0.0-6.0-0.67","","img/green.png","32","trial","32","true","0.6,0.4","3:go_c","",""
"null","","html-keyboard-response","422","3712914","0.0-6.0-1.67","","<img src=""img/green-r.png"" border=""10"">","null","trial","32","","0.6,0.4","3:go_c","1",""
"null","","html-keyboard-response","423","3713917","0.0-6.0-2.67","","<div style=""font-size:60px;"">+</div>","null","","","","","","",""
"1012.7799999900162","","image-keyboard-response","424","3714932","0.0-6.0-0.68","","img/purple.png","32","trial","32","true","0.8,0.2","1:go_a","",""
"null","","html-keyboard-response","425","3715936","0.0-6.0-1.68","","<img src=""img/purple-r.png"" border=""10"">","null","trial","32","","0.8,0.2","1:go_a","1",""
"null","","html-keyboard-response","426","3716940","0.0-6.0-2.68","","<div style=""font-size:60px;"">+</div>","null","","","","","","",""
"1260.5449999682605","","image-keyboard-response","427","3718203","0.0-6.0-0.69","","img/grey.png","32","trial","null","false","0.4,0.6","4:nogo_d","",""
"null","","html-keyboard-response","428","3719207","0.0-6.0-1.69","","<img src=""img/grey-r.png"" border=""10"">","null","trial","null","","0.4,0.6","4:nogo_d","1",""
"null","","html-keyboard-response","429","3720211","0.0-6.0-2.69","","<div style=""font-size:60px;"">+</div>","null","","","","","","",""
"null","","image-keyboard-response","430","3721714","0.0-6.0-0.70","","img/pink.png","null","trial","null","true","0.2,0.8","2:nogo_b","",""
"null","","html-keyboard-response","431","3722718","0.0-6.0-1.70","","<img src=""img/pink-r.png"">","null","trial","null","","0.2,0.8","2:nogo_b","1",""
"null","","html-keyboard-response","432","3723722","0.0-6.0-2.70","","<div style=""font-size:60px;"">+</div>","null","","","","","","",""
"694.6650000754744","","image-keyboard-response","433","3724419","0.0-6.0-0.71","","img/green.png","32","trial","32","true","0.6,0.4","3:go_c","",""
"null","","html-keyboard-response","434","3725423","0.0-6.0-1.71","","<img src=""img/green-n.png"" border=""10"">","null","trial","32","","0.6,0.4","3:go_c","0",""
"null","","html-keyboard-response","435","3726425","0.0-6.0-2.71","","<div style=""font-size:60px;"">+</div>","null","","","","","","",""
"615.6150000169873","","image-keyboard-response","436","3727043","0.0-6.0-0.72","","img/pink.png","32","trial","null","false","0.2,0.8","2:nogo_b","",""
"null","","html-keyboard-response","437","3728049","0.0-6.0-1.72","","<img src=""img/pink-n.png"" border=""10"">","null","trial","null","","0.2,0.8","2:nogo_b","0",""
"null","","html-keyboard-response","438","3729053","0.0-6.0-2.72","","<div style=""font-size:60px;"">+</div>","null","","","","","","",""
"624.7449999209493","","image-keyboard-response","439","3729680","0.0-6.0-0.73","","img/green.png","32","trial","32","true","0.6,0.4","3:go_c","",""
"null","","html-keyboard-response","440","3730684","0.0-6.0-1.73","","<img src=""img/green-r.png"" border=""10"">","null","trial","32","","0.6,0.4","3:go_c","1",""
"null","","html-keyboard-response","441","3731688","0.0-6.0-2.73","","<div style=""font-size:60px;"">+</div>","null","","","","","","",""
"637.2400000691414","","image-keyboard-response","442","3732328","0.0-6.0-0.74","","img/purple.png","32","trial","32","true","0.8,0.2","1:go_a","",""
"null","","html-keyboard-response","443","3733332","0.0-6.0-1.74","","<img src=""img/purple-r.png"" border=""10"">","null","trial","32","","0.8,0.2","1:go_a","1",""
"null","","html-keyboard-response","444","3734335","0.0-6.0-2.74","","<div style=""font-size:60px;"">+</div>","null","","","","","","",""
"1115.9350001253188","","image-keyboard-response","445","3735453","0.0-6.0-0.75","","img/grey.png","32","trial","null","false","0.4,0.6","4:nogo_d","",""
"null","","html-keyboard-response","446","3736459","0.0-6.0-1.75","","<img src=""img/grey-r.png"" border=""10"">","null","trial","null","","0.4,0.6","4:nogo_d","1",""
"null","","html-keyboard-response","447","3737462","0.0-6.0-2.75","","<div style=""font-size:60px;"">+</div>","null","","","","","","",""
"null","","image-keyboard-response","448","3738969","0.0-6.0-0.76","","img/pink.png","null","trial","null","true","0.2,0.8","2:nogo_b","",""
"null","","html-keyboard-response","449","3739974","0.0-6.0-1.76","","<img src=""img/pink-n.png"">","null","trial","null","","0.2,0.8","2:nogo_b","0",""
"null","","html-keyboard-response","450","3740977","0.0-6.0-2.76","","<div style=""font-size:60px;"">+</div>","null","","","","","","",""
"739.5150000229478","","image-keyboard-response","451","3741719","0.0-6.0-0.77","","img/grey.png","32","trial","null","false","0.4,0.6","4:nogo_d","",""
"null","","html-keyboard-response","452","3742724","0.0-6.0-1.77","","<img src=""img/grey-r.png"" border=""10"">","null","trial","null","","0.4,0.6","4:nogo_d","1",""
"null","","html-keyboard-response","453","3743728","0.0-6.0-2.77","","<div style=""font-size:60px;"">+</div>","null","","","","","","",""
"650.4100000020117","","image-keyboard-response","454","3744381","0.0-6.0-0.78","","img/green.png","32","trial","32","true","0.6,0.4","3:go_c","",""
"null","","html-keyboard-response","455","3745385","0.0-6.0-1.78","","<img src=""img/green-r.png"" border=""10"">","null","trial","32","","0.6,0.4","3:go_c","1",""
"null","","html-keyboard-response","456","3746389","0.0-6.0-2.78","","<div style=""font-size:60px;"">+</div>","null","","","","","","",""
"682.4150001630187","","image-keyboard-response","457","3747074","0.0-6.0-0.79","","img/purple.png","32","trial","32","true","0.8,0.2","1:go_a","",""
"null","","html-keyboard-response","458","3748079","0.0-6.0-1.79","","<img src=""img/purple-r.png"" border=""10"">","null","trial","32","","0.8,0.2","1:go_a","1",""
"null","","html-keyboard-response","459","3749082","0.0-6.0-2.79","","<div style=""font-size:60px;"">+</div>","null","","","","","","",""
"844.7149998974055","","image-keyboard-response","460","3749929","0.0-6.0-0.80","","img/purple.png","32","trial","32","true","0.8,0.2","1:go_a","",""
"null","","html-keyboard-response","461","3750934","0.0-6.0-1.80","","<img src=""img/purple-r.png"" border=""10"">","null","trial","32","","0.8,0.2","1:go_a","1",""
"null","","html-keyboard-response","462","3751937","0.0-6.0-2.80","","<div style=""font-size:60px;"">+</div>","null","","","","","","",""
"null","","image-keyboard-response","463","3753440","0.0-6.0-0.81","","img/pink.png","null","trial","null","true","0.2,0.8","2:nogo_b","",""
"null","","html-keyboard-response","464","3754444","0.0-6.0-1.81","","<img src=""img/pink-r.png"">","null","trial","null","","0.2,0.8","2:nogo_b","1",""
"null","","html-keyboard-response","465","3755447","0.0-6.0-2.81","","<div style=""font-size:60px;"">+</div>","null","","","","","","",""
"null","","image-keyboard-response","466","3756950","0.0-6.0-0.82","","img/grey.png","null","trial","null","true","0.4,0.6","4:nogo_d","",""
"null","","html-keyboard-response","467","3757956","0.0-6.0-1.82","","<img src=""img/grey-r.png"">","null","trial","null","","0.4,0.6","4:nogo_d","1",""
"null","","html-keyboard-response","468","3758959","0.0-6.0-2.82","","<div style=""font-size:60px;"">+</div>","null","","","","","","",""
"567.4499999731779","","image-keyboard-response","469","3759530","0.0-6.0-0.83","","img/green.png","32","trial","32","true","0.6,0.4","3:go_c","",""
"null","","html-keyboard-response","470","3760535","0.0-6.0-1.83","","<img src=""img/green-r.png"" border=""10"">","null","trial","32","","0.6,0.4","3:go_c","1",""
"null","","html-keyboard-response","471","3761537","0.0-6.0-2.83","","<div style=""font-size:60px;"">+</div>","null","","","","","","",""
"664.9650000035763","","image-keyboard-response","472","3762205","0.0-6.0-0.84","","img/grey.png","32","trial","null","false","0.4,0.6","4:nogo_d","",""
"null","","html-keyboard-response","473","3763210","0.0-6.0-1.84","","<img src=""img/grey-n.png"" border=""10"">","null","trial","null","","0.4,0.6","4:nogo_d","0",""
"null","","html-keyboard-response","474","3764212","0.0-6.0-2.84","","<div style=""font-size:60px;"">+</div>","null","","","","","","",""
"684.7599998582155","","image-keyboard-response","475","3764900","0.0-6.0-0.85","","img/green.png","32","trial","32","true","0.6,0.4","3:go_c","",""
"null","","html-keyboard-response","476","3765904","0.0-6.0-1.85","","<img src=""img/green-n.png"" border=""10"">","null","trial","32","","0.6,0.4","3:go_c","0",""
"null","","html-keyboard-response","477","3766907","0.0-6.0-2.85","","<div style=""font-size:60px;"">+</div>","null","","","","","","",""
"621.064999839291","","image-keyboard-response","478","3767530","0.0-6.0-0.86","","img/purple.png","32","trial","32","true","0.8,0.2","1:go_a","",""
"null","","html-keyboard-response","479","3768534","0.0-6.0-1.86","","<img src=""img/purple-r.png"" border=""10"">","null","trial","32","","0.8,0.2","1:go_a","1",""
"null","","html-keyboard-response","480","3769537","0.0-6.0-2.86","","<div style=""font-size:60px;"">+</div>","null","","","","","","",""
"779.5200000982732","","image-keyboard-response","481","3770320","0.0-6.0-0.87","","img/pink.png","32","trial","null","false","0.2,0.8","2:nogo_b","",""
"null","","html-keyboard-response","482","3771324","0.0-6.0-1.87","","<img src=""img/pink-n.png"" border=""10"">","null","trial","null","","0.2,0.8","2:nogo_b","0",""
"null","","html-keyboard-response","483","3772327","0.0-6.0-2.87","","<div style=""font-size:60px;"">+</div>","null","","","","","","",""
"750.9200000204146","","image-keyboard-response","484","3773079","0.0-6.0-0.88","","img/purple.png","32","trial","32","true","0.8,0.2","1:go_a","",""
"null","","html-keyboard-response","485","3774082","0.0-6.0-1.88","","<img src=""img/purple-r.png"" border=""10"">","null","trial","32","","0.8,0.2","1:go_a","1",""
"null","","html-keyboard-response","486","3775085","0.0-6.0-2.88","","<div style=""font-size:60px;"">+</div>","null","","","","","","",""
"1073.7600000575185","","image-keyboard-response","487","3776161","0.0-6.0-0.89","","img/grey.png","32","trial","null","false","0.4,0.6","4:nogo_d","",""
"null","","html-keyboard-response","488","3777166","0.0-6.0-1.89","","<img src=""img/grey-n.png"" border=""10"">","null","trial","null","","0.4,0.6","4:nogo_d","0",""
"null","","html-keyboard-response","489","3778169","0.0-6.0-2.89","","<div style=""font-size:60px;"">+</div>","null","","","","","","",""
"697.734999936074","","image-keyboard-response","490","3778870","0.0-6.0-0.90","","img/green.png","32","trial","32","true","0.6,0.4","3:go_c","",""
"null","","html-keyboard-response","491","3779874","0.0-6.0-1.90","","<img src=""img/green-n.png"" border=""10"">","null","trial","32","","0.6,0.4","3:go_c","0",""
"null","","html-keyboard-response","492","3780877","0.0-6.0-2.90","","<div style=""font-size:60px;"">+</div>","null","","","","","","",""
"640.5800001230091","","image-keyboard-response","493","3781520","0.0-6.0-0.91","","img/pink.png","32","trial","null","false","0.2,0.8","2:nogo_b","",""
"null","","html-keyboard-response","494","3782525","0.0-6.0-1.91","","<img src=""img/pink-n.png"" border=""10"">","null","trial","null","","0.2,0.8","2:nogo_b","0",""
"null","","html-keyboard-response","495","3783527","0.0-6.0-2.91","","<div style=""font-size:60px;"">+</div>","null","","","","","","",""
"579.6799999661744","","image-keyboard-response","496","3784110","0.0-6.0-0.92","","img/grey.png","32","trial","null","false","0.4,0.6","4:nogo_d","",""
"null","","html-keyboard-response","497","3785117","0.0-6.0-1.92","","<img src=""img/grey-n.png"" border=""10"">","null","trial","null","","0.4,0.6","4:nogo_d","0",""
"null","","html-keyboard-response","498","3786120","0.0-6.0-2.92","","<div style=""font-size:60px;"">+</div>","null","","","","","","",""
"618.565000128001","","image-keyboard-response","499","3786741","0.0-6.0-0.93","","img/pink.png","32","trial","null","false","0.2,0.8","2:nogo_b","",""
"null","","html-keyboard-response","500","3787745","0.0-6.0-1.93","","<img src=""img/pink-n.png"" border=""10"">","null","trial","null","","0.2,0.8","2:nogo_b","0",""
"null","","html-keyboard-response","501","3788748","0.0-6.0-2.93","","<div style=""font-size:60px;"">+</div>","null","","","","","","",""
"609.5649998169392","","image-keyboard-response","502","3789361","0.0-6.0-0.94","","img/green.png","32","trial","32","true","0.6,0.4","3:go_c","",""
"null","","html-keyboard-response","503","3790365","0.0-6.0-1.94","","<img src=""img/green-n.png"" border=""10"">","null","trial","32","","0.6,0.4","3:go_c","0",""
"null","","html-keyboard-response","504","3791368","0.0-6.0-2.94","","<div style=""font-size:60px;"">+</div>","null","","","","","","",""
"622.6049999240786","","image-keyboard-response","505","3791994","0.0-6.0-0.95","","img/purple.png","32","trial","32","true","0.8,0.2","1:go_a","",""
"null","","html-keyboard-response","506","3792999","0.0-6.0-1.95","","<img src=""img/purple-r.png"" border=""10"">","null","trial","32","","0.8,0.2","1:go_a","1",""
"null","","html-keyboard-response","507","3794002","0.0-6.0-2.95","","<div style=""font-size:60px;"">+</div>","null","","","","","","",""
"null","","image-keyboard-response","508","3795505","0.0-6.0-0.96","","img/grey.png","null","trial","null","true","0.4,0.6","4:nogo_d","",""
"null","","html-keyboard-response","509","3796510","0.0-6.0-1.96","","<img src=""img/grey-r.png"">","null","trial","null","","0.4,0.6","4:nogo_d","1",""
"null","","html-keyboard-response","510","3797512","0.0-6.0-2.96","","<div style=""font-size:60px;"">+</div>","null","","","","","","",""
"506.5049999393523","","image-keyboard-response","511","3798022","0.0-6.0-0.97","","img/purple.png","32","trial","32","true","0.8,0.2","1:go_a","",""
"null","","html-keyboard-response","512","3799027","0.0-6.0-1.97","","<img src=""img/purple-r.png"" border=""10"">","null","trial","32","","0.8,0.2","1:go_a","1",""
"null","","html-keyboard-response","513","3800030","0.0-6.0-2.97","","<div style=""font-size:60px;"">+</div>","null","","","","","","",""
"598.9349998999387","","image-keyboard-response","514","3800632","0.0-6.0-0.98","","img/green.png","32","trial","32","true","0.6,0.4","3:go_c","",""
"null","","html-keyboard-response","515","3801637","0.0-6.0-1.98","","<img src=""img/green-r.png"" border=""10"">","null","trial","32","","0.6,0.4","3:go_c","1",""
"null","","html-keyboard-response","516","3802640","0.0-6.0-2.98","","<div style=""font-size:60px;"">+</div>","null","","","","","","",""
"669.0899999812245","","image-keyboard-response","517","3803312","0.0-6.0-0.99","","img/pink.png","32","trial","null","false","0.2,0.8","2:nogo_b","",""
"null","","html-keyboard-response","518","3804323","0.0-6.0-1.99","","<img src=""img/pink-n.png"" border=""10"">","null","trial","null","","0.2,0.8","2:nogo_b","0",""
"null","","html-keyboard-response","519","3805326","0.0-6.0-2.99","","<div style=""font-size:60px;"">+</div>","null","","","","","","",""
"1098.6549998633564","","image-keyboard-response","520","3806427","0.0-6.0-0.100","","img/grey.png","32","trial","null","false","0.4,0.6","4:nogo_d","",""
"null","","html-keyboard-response","521","3807431","0.0-6.0-1.100","","<img src=""img/grey-n.png"" border=""10"">","null","trial","null","","0.4,0.6","4:nogo_d","0",""
"null","","html-keyboard-response","522","3808435","0.0-6.0-2.100","","<div style=""font-size:60px;"">+</div>","null","","","","","","",""
"553.9599999319762","","image-keyboard-response","523","3808991","0.0-6.0-0.101","","img/purple.png","32","trial","32","true","0.8,0.2","1:go_a","",""
"null","","html-keyboard-response","524","3809996","0.0-6.0-1.101","","<img src=""img/purple-r.png"" border=""10"">","null","trial","32","","0.8,0.2","1:go_a","1",""
"null","","html-keyboard-response","525","3810999","0.0-6.0-2.101","","<div style=""font-size:60px;"">+</div>","null","","","","","","",""
"null","","image-keyboard-response","526","3812505","0.0-6.0-0.102","","img/green.png","null","trial","32","false","0.6,0.4","3:go_c","",""
"null","","html-keyboard-response","527","3813510","0.0-6.0-1.102","","<img src=""img/green-n.png"">","null","trial","32","","0.6,0.4","3:go_c","0",""
"null","","html-keyboard-response","528","3814514","0.0-6.0-2.102","","<div style=""font-size:60px;"">+</div>","null","","","","","","",""
"null","","image-keyboard-response","529","3816017","0.0-6.0-0.103","","img/pink.png","null","trial","null","true","0.2,0.8","2:nogo_b","",""
"null","","html-keyboard-response","530","3817025","0.0-6.0-1.103","","<img src=""img/pink-n.png"">","null","trial","null","","0.2,0.8","2:nogo_b","0",""
"null","","html-keyboard-response","531","3818028","0.0-6.0-2.103","","<div style=""font-size:60px;"">+</div>","null","","","","","","",""
"1107.8449999913573","","image-keyboard-response","532","3819138","0.0-6.0-0.104","","img/grey.png","32","trial","null","false","0.4,0.6","4:nogo_d","",""
"null","","html-keyboard-response","533","3820142","0.0-6.0-1.104","","<img src=""img/grey-n.png"" border=""10"">","null","trial","null","","0.4,0.6","4:nogo_d","0",""
"null","","html-keyboard-response","534","3821146","0.0-6.0-2.104","","<div style=""font-size:60px;"">+</div>","null","","","","","","",""
"497.0350000075996","","image-keyboard-response","535","3821645","0.0-6.0-0.105","","img/purple.png","32","trial","32","true","0.8,0.2","1:go_a","",""
"null","","html-keyboard-response","536","3822650","0.0-6.0-1.105","","<img src=""img/purple-n.png"" border=""10"">","null","trial","32","","0.8,0.2","1:go_a","0",""
"null","","html-keyboard-response","537","3823654","0.0-6.0-2.105","","<div style=""font-size:60px;"">+</div>","null","","","","","","",""
"751.5999998431653","","image-keyboard-response","538","3824407","0.0-6.0-0.106","","img/green.png","32","trial","32","true","0.6,0.4","3:go_c","",""
"null","","html-keyboard-response","539","3825412","0.0-6.0-1.106","","<img src=""img/green-r.png"" border=""10"">","null","trial","32","","0.6,0.4","3:go_c","1",""
"null","","html-keyboard-response","540","3826415","0.0-6.0-2.106","","<div style=""font-size:60px;"">+</div>","null","","","","","","",""
"null","","image-keyboard-response","541","3827918","0.0-6.0-0.107","","img/pink.png","null","trial","null","true","0.2,0.8","2:nogo_b","",""
"null","","html-keyboard-response","542","3828925","0.0-6.0-1.107","","<img src=""img/pink-r.png"">","null","trial","null","","0.2,0.8","2:nogo_b","1",""
"null","","html-keyboard-response","543","3829928","0.0-6.0-2.107","","<div style=""font-size:60px;"">+</div>","null","","","","","","",""
"634.8699999507517","","image-keyboard-response","544","3830565","0.0-6.0-0.108","","img/pink.png","32","trial","null","false","0.2,0.8","2:nogo_b","",""
"null","","html-keyboard-response","545","3831570","0.0-6.0-1.108","","<img src=""img/pink-n.png"" border=""10"">","null","trial","null","","0.2,0.8","2:nogo_b","0",""
"null","","html-keyboard-response","546","3832574","0.0-6.0-2.108","","<div style=""font-size:60px;"">+</div>","null","","","","","","",""
"555.2350000943989","","image-keyboard-response","547","3833131","0.0-6.0-0.109","","img/purple.png","32","trial","32","true","0.8,0.2","1:go_a","",""
"null","","html-keyboard-response","548","3834136","0.0-6.0-1.109","","<img src=""img/purple-r.png"" border=""10"">","null","trial","32","","0.8,0.2","1:go_a","1",""
"null","","html-keyboard-response","549","3835140","0.0-6.0-2.109","","<div style=""font-size:60px;"">+</div>","null","","","","","","",""
"793.9300001598895","","image-keyboard-response","550","3835936","0.0-6.0-0.110","","img/green.png","32","trial","32","true","0.6,0.4","3:go_c","",""
"null","","html-keyboard-response","551","3836941","0.0-6.0-1.110","","<img src=""img/green-r.png"" border=""10"">","null","trial","32","","0.6,0.4","3:go_c","1",""
"null","","html-keyboard-response","552","3837944","0.0-6.0-2.110","","<div style=""font-size:60px;"">+</div>","null","","","","","","",""
"null","","image-keyboard-response","553","3839447","0.0-6.0-0.111","","img/grey.png","null","trial","null","true","0.4,0.6","4:nogo_d","",""
"null","","html-keyboard-response","554","3840451","0.0-6.0-1.111","","<img src=""img/grey-n.png"">","null","trial","null","","0.4,0.6","4:nogo_d","0",""
"null","","html-keyboard-response","555","3841454","0.0-6.0-2.111","","<div style=""font-size:60px;"">+</div>","null","","","","","","",""
"820.8099999465048","","image-keyboard-response","556","3842277","0.0-6.0-0.112","","img/green.png","32","trial","32","true","0.6,0.4","3:go_c","",""
"null","","html-keyboard-response","557","3843284","0.0-6.0-1.112","","<img src=""img/green-r.png"" border=""10"">","null","trial","32","","0.6,0.4","3:go_c","1",""
"null","","html-keyboard-response","558","3844287","0.0-6.0-2.112","","<div style=""font-size:60px;"">+</div>","null","","","","","","",""
"1251.0150000452995","","image-keyboard-response","559","3845540","0.0-6.0-0.113","","img/pink.png","32","trial","null","false","0.2,0.8","2:nogo_b","",""
"null","","html-keyboard-response","560","3846544","0.0-6.0-1.113","","<img src=""img/pink-n.png"" border=""10"">","null","trial","null","","0.2,0.8","2:nogo_b","0",""
"null","","html-keyboard-response","561","3847547","0.0-6.0-2.113","","<div style=""font-size:60px;"">+</div>","null","","","","","","",""
"1094.1700001712888","","image-keyboard-response","562","3848643","0.0-6.0-0.114","","img/grey.png","32","trial","null","false","0.4,0.6","4:nogo_d","",""
"null","","html-keyboard-response","563","3849648","0.0-6.0-1.114","","<img src=""img/grey-n.png"" border=""10"">","null","trial","null","","0.4,0.6","4:nogo_d","0",""
"null","","html-keyboard-response","564","3850651","0.0-6.0-2.114","","<div style=""font-size:60px;"">+</div>","null","","","","","","",""
"868.4900000225753","","image-keyboard-response","565","3851522","0.0-6.0-0.115","","img/purple.png","32","trial","32","true","0.8,0.2","1:go_a","",""
"null","","html-keyboard-response","566","3852531","0.0-6.0-1.115","","<img src=""img/purple-n.png"" border=""10"">","null","trial","32","","0.8,0.2","1:go_a","0",""
"null","","html-keyboard-response","567","3853534","0.0-6.0-2.115","","<div style=""font-size:60px;"">+</div>","null","","","","","","",""
"883.1249999348074","","image-keyboard-response","568","3854420","0.0-6.0-0.116","","img/purple.png","32","trial","32","true","0.8,0.2","1:go_a","",""
"null","","html-keyboard-response","569","3855425","0.0-6.0-1.116","","<img src=""img/purple-r.png"" border=""10"">","null","trial","32","","0.8,0.2","1:go_a","1",""
"null","","html-keyboard-response","570","3856429","0.0-6.0-2.116","","<div style=""font-size:60px;"">+</div>","null","","","","","","",""
"null","","image-keyboard-response","571","3857933","0.0-6.0-0.117","","img/grey.png","null","trial","null","true","0.4,0.6","4:nogo_d","",""
"null","","html-keyboard-response","572","3858940","0.0-6.0-1.117","","<img src=""img/grey-r.png"">","null","trial","null","","0.4,0.6","4:nogo_d","1",""
"null","","html-keyboard-response","573","3859943","0.0-6.0-2.117","","<div style=""font-size:60px;"">+</div>","null","","","","","","",""
"null","","image-keyboard-response","574","3861445","0.0-6.0-0.118","","img/pink.png","null","trial","null","true","0.2,0.8","2:nogo_b","",""
"null","","html-keyboard-response","575","3862467","0.0-6.0-1.118","","<img src=""img/pink-r.png"">","null","trial","null","","0.2,0.8","2:nogo_b","1",""
"null","","html-keyboard-response","576","3863471","0.0-6.0-2.118","","<div style=""font-size:60px;"">+</div>","null","","","","","","",""
"739.9299999233335","","image-keyboard-response","577","3864214","0.0-6.0-0.119","","img/green.png","32","trial","32","true","0.6,0.4","3:go_c","",""
"null","","html-keyboard-response","578","3865219","0.0-6.0-1.119","","<img src=""img/green-n.png"" border=""10"">","null","trial","32","","0.6,0.4","3:go_c","0",""
"null","","html-keyboard-response","579","3866222","0.0-6.0-2.119","","<div style=""font-size:60px;"">+</div>","null","","","","","","",""
"5279.1299999225885","","instructions","580","3871502","0.0-7.0","[{""page_index"":0,""viewing_time"":5278.570000082254}]","","","","","","","","",""
"null","","image-keyboard-response","581","3873007","0.0-8.0-0.0","","img/red.png","null","trial","null","true","0.2,0.8","2:nogo_b","",""
"null","","html-keyboard-response","582","3874012","0.0-8.0-1.0","","<img src=""img/red-r.png"">","null","trial","null","","0.2,0.8","2:nogo_b","1",""
"null","","html-keyboard-response","583","3875014","0.0-8.0-2.0","","<div style=""font-size:60px;"">+</div>","null","","","","","","",""
"758.1849999260157","","image-keyboard-response","584","3875774","0.0-8.0-0.1","","img/blue.png","32","trial","32","true","1,0","3:go_c","",""
"null","","html-keyboard-response","585","3876778","0.0-8.0-1.1","","<img src=""img/blue-r.png"" border=""10"">","null","trial","32","","1,0","3:go_c","1",""
"null","","html-keyboard-response","586","3877781","0.0-8.0-2.1","","<div style=""font-size:60px;"">+</div>","null","","","","","","",""
"668.33999985829","","image-keyboard-response","587","3878452","0.0-8.0-0.2","","img/green.png","32","trial","null","false","0,1","4:nogo_d","",""
"null","","html-keyboard-response","588","3879457","0.0-8.0-1.2","","<img src=""img/green-n.png"" border=""10"">","null","trial","null","","0,1","4:nogo_d","0",""
"null","","html-keyboard-response","589","3880461","0.0-8.0-2.2","","<div style=""font-size:60px;"">+</div>","null","","","","","","",""
"723.1900000479072","","image-keyboard-response","590","3881186","0.0-8.0-0.3","","img/purple.png","32","trial","32","true","0.8,0.2","1:go_a","",""
"null","","html-keyboard-response","591","3882191","0.0-8.0-1.3","","<img src=""img/purple-n.png"" border=""10"">","null","trial","32","","0.8,0.2","1:go_a","0",""
"null","","html-keyboard-response","592","3883194","0.0-8.0-2.3","","<div style=""font-size:60px;"">+</div>","null","","","","","","",""
"639.1950000543147","","image-keyboard-response","593","3883836","0.0-8.0-0.4","","img/blue.png","32","trial","32","true","1,0","3:go_c","",""
"null","","html-keyboard-response","594","3884841","0.0-8.0-1.4","","<img src=""img/blue-r.png"" border=""10"">","null","trial","32","","1,0","3:go_c","1",""
"null","","html-keyboard-response","595","3885844","0.0-8.0-2.4","","<div style=""font-size:60px;"">+</div>","null","","","","","","",""
"null","","image-keyboard-response","596","3887347","0.0-8.0-0.5","","img/purple.png","null","trial","32","false","0.8,0.2","1:go_a","",""
"null","","html-keyboard-response","597","3888352","0.0-8.0-1.5","","<img src=""img/purple-n.png"">","null","trial","32","","0.8,0.2","1:go_a","0",""
"null","","html-keyboard-response","598","3889355","0.0-8.0-2.5","","<div style=""font-size:60px;"">+</div>","null","","","","","","",""
"650.4050001967698","","image-keyboard-response","599","3890008","0.0-8.0-0.6","","img/red.png","32","trial","null","false","0.2,0.8","2:nogo_b","",""
"null","","html-keyboard-response","600","3891013","0.0-8.0-1.6","","<img src=""img/red-n.png"" border=""10"">","null","trial","null","","0.2,0.8","2:nogo_b","0",""
"null","","html-keyboard-response","601","3892017","0.0-8.0-2.6","","<div style=""font-size:60px;"">+</div>","null","","","","","","",""
"null","","image-keyboard-response","602","3893520","0.0-8.0-0.7","","img/green.png","null","trial","null","true","0,1","4:nogo_d","",""
"null","","html-keyboard-response","603","3894525","0.0-8.0-1.7","","<img src=""img/green-r.png"">","null","trial","null","","0,1","4:nogo_d","1",""
"null","","html-keyboard-response","604","3895528","0.0-8.0-2.7","","<div style=""font-size:60px;"">+</div>","null","","","","","","",""
"650.8500000927597","","image-keyboard-response","605","3896181","0.0-8.0-0.8","","img/red.png","32","trial","null","false","0.2,0.8","2:nogo_b","",""
"null","","html-keyboard-response","606","3897186","0.0-8.0-1.8","","<img src=""img/red-n.png"" border=""10"">","null","trial","null","","0.2,0.8","2:nogo_b","0",""
"null","","html-keyboard-response","607","3898190","0.0-8.0-2.8","","<div style=""font-size:60px;"">+</div>","null","","","","","","",""
"605.5350000970066","","image-keyboard-response","608","3898798","0.0-8.0-0.9","","img/purple.png","32","trial","32","true","0.8,0.2","1:go_a","",""
"null","","html-keyboard-response","609","3899803","0.0-8.0-1.9","","<img src=""img/purple-n.png"" border=""10"">","null","trial","32","","0.8,0.2","1:go_a","0",""
"null","","html-keyboard-response","610","3900807","0.0-8.0-2.9","","<div style=""font-size:60px;"">+</div>","null","","","","","","",""
"618.0499999318272","","image-keyboard-response","611","3901427","0.0-8.0-0.10","","img/blue.png","32","trial","32","true","1,0","3:go_c","",""
"null","","html-keyboard-response","612","3902432","0.0-8.0-1.10","","<img src=""img/blue-r.png"" border=""10"">","null","trial","32","","1,0","3:go_c","1",""
"null","","html-keyboard-response","613","3903435","0.0-8.0-2.10","","<div style=""font-size:60px;"">+</div>","null","","","","","","",""
"1049.254999961704","","image-keyboard-response","614","3904489","0.0-8.0-0.11","","img/green.png","32","trial","null","false","0,1","4:nogo_d","",""
"null","","html-keyboard-response","615","3905494","0.0-8.0-1.11","","<img src=""img/green-n.png"" border=""10"">","null","trial","null","","0,1","4:nogo_d","0",""
"null","","html-keyboard-response","616","3906496","0.0-8.0-2.11","","<div style=""font-size:60px;"">+</div>","null","","","","","","",""
"576.0050001554191","","image-keyboard-response","617","3907075","0.0-8.0-0.12","","img/red.png","32","trial","null","false","0.2,0.8","2:nogo_b","",""
"null","","html-keyboard-response","618","3908080","0.0-8.0-1.12","","<img src=""img/red-n.png"" border=""10"">","null","trial","null","","0.2,0.8","2:nogo_b","0",""
"null","","html-keyboard-response","619","3909083","0.0-8.0-2.12","","<div style=""font-size:60px;"">+</div>","null","","","","","","",""
"605.9449999593198","","image-keyboard-response","620","3909692","0.0-8.0-0.13","","img/blue.png","32","trial","32","true","1,0","3:go_c","",""
"null","","html-keyboard-response","621","3910697","0.0-8.0-1.13","","<img src=""img/blue-r.png"" border=""10"">","null","trial","32","","1,0","3:go_c","1",""
"null","","html-keyboard-response","622","3911701","0.0-8.0-2.13","","<div style=""font-size:60px;"">+</div>","null","","","","","","",""
"null","","image-keyboard-response","623","3913205","0.0-8.0-0.14","","img/purple.png","null","trial","32","false","0.8,0.2","1:go_a","",""
"null","","html-keyboard-response","624","3914221","0.0-8.0-1.14","","<img src=""img/purple-r.png"">","null","trial","32","","0.8,0.2","1:go_a","1",""
"null","","html-keyboard-response","625","3915223","0.0-8.0-2.14","","<div style=""font-size:60px;"">+</div>","null","","","","","","",""
"1270.9550000727177","","image-keyboard-response","626","3916497","0.0-8.0-0.15","","img/green.png","32","trial","null","false","0,1","4:nogo_d","",""
"null","","html-keyboard-response","627","3917501","0.0-8.0-1.15","","<img src=""img/green-n.png"" border=""10"">","null","trial","null","","0,1","4:nogo_d","0",""
"null","","html-keyboard-response","628","3918504","0.0-8.0-2.15","","<div style=""font-size:60px;"">+</div>","null","","","","","","",""
"814.0450001228601","","image-keyboard-response","629","3919320","0.0-8.0-0.16","","img/purple.png","32","trial","32","true","0.8,0.2","1:go_a","",""
"null","","html-keyboard-response","630","3920325","0.0-8.0-1.16","","<img src=""img/purple-r.png"" border=""10"">","null","trial","32","","0.8,0.2","1:go_a","1",""
"null","","html-keyboard-response","631","3921328","0.0-8.0-2.16","","<div style=""font-size:60px;"">+</div>","null","","","","","","",""
"660.9950000420213","","image-keyboard-response","632","3921992","0.0-8.0-0.17","","img/red.png","32","trial","null","false","0.2,0.8","2:nogo_b","",""
"null","","html-keyboard-response","633","3922996","0.0-8.0-1.17","","<img src=""img/red-n.png"" border=""10"">","null","trial","null","","0.2,0.8","2:nogo_b","0",""
"null","","html-keyboard-response","634","3923999","0.0-8.0-2.17","","<div style=""font-size:60px;"">+</div>","null","","","","","","",""
"594.7600000072271","","image-keyboard-response","635","3924596","0.0-8.0-0.18","","img/blue.png","32","trial","32","true","1,0","3:go_c","",""
"null","","html-keyboard-response","636","3925601","0.0-8.0-1.18","","<img src=""img/blue-r.png"" border=""10"">","null","trial","32","","1,0","3:go_c","1",""
"null","","html-keyboard-response","637","3926605","0.0-8.0-2.18","","<div style=""font-size:60px;"">+</div>","null","","","","","","",""
"1286.5149998106062","","image-keyboard-response","638","3927894","0.0-8.0-0.19","","img/green.png","32","trial","null","false","0,1","4:nogo_d","",""
"null","","html-keyboard-response","639","3928898","0.0-8.0-1.19","","<img src=""img/green-n.png"" border=""10"">","null","trial","null","","0,1","4:nogo_d","0",""
"null","","html-keyboard-response","640","3929901","0.0-8.0-2.19","","<div style=""font-size:60px;"">+</div>","null","","","","","","",""
"590.0949998758733","","image-keyboard-response","641","3930493","0.0-8.0-0.20","","img/blue.png","32","trial","32","true","1,0","3:go_c","",""
"null","","html-keyboard-response","642","3931498","0.0-8.0-1.20","","<img src=""img/blue-r.png"" border=""10"">","null","trial","32","","1,0","3:go_c","1",""
"null","","html-keyboard-response","643","3932502","0.0-8.0-2.20","","<div style=""font-size:60px;"">+</div>","null","","","","","","",""
"null","","image-keyboard-response","644","3934005","0.0-8.0-0.21","","img/green.png","null","trial","null","true","0,1","4:nogo_d","",""
"null","","html-keyboard-response","645","3935009","0.0-8.0-1.21","","<img src=""img/green-r.png"">","null","trial","null","","0,1","4:nogo_d","1",""
"null","","html-keyboard-response","646","3936012","0.0-8.0-2.21","","<div style=""font-size:60px;"">+</div>","null","","","","","","",""
"761.9050000794232","","image-keyboard-response","647","3936776","0.0-8.0-0.22","","img/red.png","32","trial","null","false","0.2,0.8","2:nogo_b","",""
"null","","html-keyboard-response","648","3937781","0.0-8.0-1.22","","<img src=""img/red-n.png"" border=""10"">","null","trial","null","","0.2,0.8","2:nogo_b","0",""
"null","","html-keyboard-response","649","3938784","0.0-8.0-2.22","","<div style=""font-size:60px;"">+</div>","null","","","","","","",""
"610.4399999603629","","image-keyboard-response","650","3939397","0.0-8.0-0.23","","img/purple.png","32","trial","32","true","0.8,0.2","1:go_a","",""
"null","","html-keyboard-response","651","3940402","0.0-8.0-1.23","","<img src=""img/purple-r.png"" border=""10"">","null","trial","32","","0.8,0.2","1:go_a","1",""
"null","","html-keyboard-response","652","3941405","0.0-8.0-2.23","","<div style=""font-size:60px;"">+</div>","null","","","","","","",""
"848.9000000990927","","image-keyboard-response","653","3942255","0.0-8.0-0.24","","img/green.png","32","trial","null","false","0,1","4:nogo_d","",""
"null","","html-keyboard-response","654","3943259","0.0-8.0-1.24","","<img src=""img/green-n.png"" border=""10"">","null","trial","null","","0,1","4:nogo_d","0",""
"null","","html-keyboard-response","655","3944263","0.0-8.0-2.24","","<div style=""font-size:60px;"">+</div>","null","","","","","","",""
"629.8800001386553","","image-keyboard-response","656","3944897","0.0-8.0-0.25","","img/blue.png","32","trial","32","true","1,0","3:go_c","",""
"null","","html-keyboard-response","657","3945902","0.0-8.0-1.25","","<img src=""img/blue-r.png"" border=""10"">","null","trial","32","","1,0","3:go_c","1",""
"null","","html-keyboard-response","658","3946904","0.0-8.0-2.25","","<div style=""font-size:60px;"">+</div>","null","","","","","","",""
"null","","image-keyboard-response","659","3948408","0.0-8.0-0.26","","img/red.png","null","trial","null","true","0.2,0.8","2:nogo_b","",""
"null","","html-keyboard-response","660","3949413","0.0-8.0-1.26","","<img src=""img/red-r.png"">","null","trial","null","","0.2,0.8","2:nogo_b","1",""
"null","","html-keyboard-response","661","3950416","0.0-8.0-2.26","","<div style=""font-size:60px;"">+</div>","null","","","","","","",""
"1050.8300000801682","","image-keyboard-response","662","3951468","0.0-8.0-0.27","","img/purple.png","32","trial","32","true","0.8,0.2","1:go_a","",""
"null","","html-keyboard-response","663","3952472","0.0-8.0-1.27","","<img src=""img/purple-r.png"" border=""10"">","null","trial","32","","0.8,0.2","1:go_a","1",""
"null","","html-keyboard-response","664","3953476","0.0-8.0-2.27","","<div style=""font-size:60px;"">+</div>","null","","","","","","",""
"738.3900000713766","","image-keyboard-response","665","3954217","0.0-8.0-0.28","","img/purple.png","32","trial","32","true","0.8,0.2","1:go_a","",""
"null","","html-keyboard-response","666","3955232","0.0-8.0-1.28","","<img src=""img/purple-r.png"" border=""10"">","null","trial","32","","0.8,0.2","1:go_a","1",""
"null","","html-keyboard-response","667","3956239","0.0-8.0-2.28","","<div style=""font-size:60px;"">+</div>","null","","","","","","",""
