"rt","url","trial_type","trial_index","time_elapsed","internal_node_id","view_history","stimulus","key_press","test_part","correct_response","correct","use_rew","which_stim","reward","responses"
"15352.289999980712","consent.html","external-html","0","15418","0.0-0.0","","","","","","","","","",""
"110572.32999999542","","instructions","1","125991","0.0-1.0","[{""page_index"":0,""viewing_time"":4478.490000008605},{""page_index"":1,""viewing_time"":30333.370000007562},{""page_index"":2,""viewing_time"":7430.094999988796},{""page_index"":3,""viewing_time"":29641.99999999255},{""page_index"":4,""viewing_time"":17506.08000002103},{""page_index"":5,""viewing_time"":10193.779999972321},{""page_index"":6,""viewing_time"":10988.01500000991}]","","","","","","","","",""
"555.2800000004936","","image-keyboard-response","2","126548","0.0-2.0-0.0","","img/test1.PNG","32","practice","32","true","","","",""
"null","","html-keyboard-response","3","127556","0.0-2.0-1.0","","<img src=""img/test1-reward.PNG"" border=""10px; grey"">","null","","","","","","",""
"null","","html-keyboard-response","4","128557","0.0-2.0-2.0","","<div style=""font-size:60px;"">+</div>","null","","","","","","",""
"550.0799999863375","","image-keyboard-response","5","129107","0.0-2.0-0.1","","img/test3.PNG","32","practice","null","false","","","",""
"null","","html-keyboard-response","6","130124","0.0-2.0-1.1","","<img src=""img/test3-neutral.PNG"" border=""10px; grey"">","null","","","","","","",""
"null","","html-keyboard-response","7","131136","0.0-2.0-2.1","","<div style=""font-size:60px;"">+</div>","null","","","","","","",""
"null","","image-keyboard-response","8","132641","0.0-2.0-0.2","","img/test2.PNG","null","practice","null","true","","","",""
"null","","html-keyboard-response","9","133655","0.0-2.0-1.2","","<img src=""img/test2-reward.PNG"">","null","","","","","","",""
"null","","html-keyboard-response","10","134667","0.0-2.0-2.2","","<div style=""font-size:60px;"">+</div>","null","","","","","","",""
"487.54999999073334","","image-keyboard-response","11","135155","0.0-2.0-0.3","","img/test2.PNG","32","practice","null","false","","","",""
"null","","html-keyboard-response","12","136160","0.0-2.0-1.3","","<img src=""img/test2-neutral.PNG"" border=""10px; grey"">","null","","","","","","",""
"null","","html-keyboard-response","13","137171","0.0-2.0-2.3","","<div style=""font-size:60px;"">+</div>","null","","","","","","",""
"519.5899999816902","","image-keyboard-response","14","137691","0.0-2.0-0.4","","img/test3.PNG","32","practice","null","false","","","",""
"null","","html-keyboard-response","15","138693","0.0-2.0-1.4","","<img src=""img/test3-neutral.PNG"" border=""10px; grey"">","null","","","","","","",""
"null","","html-keyboard-response","16","139704","0.0-2.0-2.4","","<div style=""font-size:60px;"">+</div>","null","","","","","","",""
"786.4849999896251","","image-keyboard-response","17","140491","0.0-2.0-0.5","","img/test1.PNG","32","practice","32","true","","","",""
"null","","html-keyboard-response","18","141499","0.0-2.0-1.5","","<img src=""img/test1-reward.PNG"" border=""10px; grey"">","null","","","","","","",""
"null","","html-keyboard-response","19","142514","0.0-2.0-2.5","","<div style=""font-size:60px;"">+</div>","null","","","","","","",""
"520.3800000017509","","image-keyboard-response","20","143035","0.0-2.0-0.6","","img/test3.PNG","32","practice","null","false","","","",""
"null","","html-keyboard-response","21","144051","0.0-2.0-1.6","","<img src=""img/test3-neutral.PNG"" border=""10px; grey"">","null","","","","","","",""
"null","","html-keyboard-response","22","145052","0.0-2.0-2.6","","<div style=""font-size:60px;"">+</div>","null","","","","","","",""
"567.0249999966472","","image-keyboard-response","23","145619","0.0-2.0-0.7","","img/test1.PNG","32","practice","32","true","","","",""
"null","","html-keyboard-response","24","146622","0.0-2.0-1.7","","<img src=""img/test1-reward.PNG"" border=""10px; grey"">","null","","","","","","",""
"null","","html-keyboard-response","25","147626","0.0-2.0-2.7","","<div style=""font-size:60px;"">+</div>","null","","","","","","",""
"609.1899999883026","","image-keyboard-response","26","148236","0.0-2.0-0.8","","img/test2.PNG","32","practice","null","false","","","",""
"null","","html-keyboard-response","27","149237","0.0-2.0-1.8","","<img src=""img/test2-neutral.PNG"" border=""10px; grey"">","null","","","","","","",""
"null","","html-keyboard-response","28","150251","0.0-2.0-2.8","","<div style=""font-size:60px;"">+</div>","null","","","","","","",""
"551.9100000092294","","image-keyboard-response","29","150803","0.0-2.0-0.9","","img/test1.PNG","32","practice","32","true","","","",""
"null","","html-keyboard-response","30","151806","0.0-2.0-1.9","","<img src=""img/test1-reward.PNG"" border=""10px; grey"">","null","","","","","","",""
"null","","html-keyboard-response","31","152807","0.0-2.0-2.9","","<div style=""font-size:60px;"">+</div>","null","","","","","","",""
"null","","image-keyboard-response","32","154321","0.0-2.0-0.10","","img/test2.PNG","null","practice","null","true","","","",""
"null","","html-keyboard-response","33","155322","0.0-2.0-1.10","","<img src=""img/test2-reward.PNG"">","null","","","","","","",""
"null","","html-keyboard-response","34","156336","0.0-2.0-2.10","","<div style=""font-size:60px;"">+</div>","null","","","","","","",""
"null","","image-keyboard-response","35","157843","0.0-2.0-0.11","","img/test3.PNG","null","practice","null","true","","","",""
"null","","html-keyboard-response","36","158846","0.0-2.0-1.11","","<img src=""img/test3-reward.PNG"">","null","","","","","","",""
"null","","html-keyboard-response","37","159852","0.0-2.0-2.11","","<div style=""font-size:60px;"">+</div>","null","","","","","","",""
"2240.9199999819975","","instructions","38","162093","0.0-3.0","[{""page_index"":0,""viewing_time"":2240.8099999884143}]","","","","","","","","",""
"685.4900000034831","","image-keyboard-response","39","162779","0.0-4.0-0.0","","img/yellow.png","32","trial","32","true","0.8,0.2","1:go_a","",""
"null","","html-keyboard-response","40","163781","0.0-4.0-1.0","","<img src=""img/yellow-r.png"" border=""10"">","null","trial","32","","0.8,0.2","1:go_a","1",""
"null","","html-keyboard-response","41","164792","0.0-4.0-2.0","","<div style=""font-size:60px;"">+</div>","null","","","","","","",""
"827.2149999975227","","image-keyboard-response","42","165619","0.0-4.0-0.1","","img/green.png","32","trial","null","false","0.2,0.8","2:nogo_b","",""
"null","","html-keyboard-response","43","166633","0.0-4.0-1.1","","<img src=""img/green-r.png"" border=""10"">","null","trial","null","","0.2,0.8","2:nogo_b","1",""
"null","","html-keyboard-response","44","167638","0.0-4.0-2.1","","<div style=""font-size:60px;"">+</div>","null","","","","","","",""
"796.8800000089686","","image-keyboard-response","45","168435","0.0-4.0-0.2","","img/green.png","32","trial","null","false","0.2,0.8","2:nogo_b","",""
"null","","html-keyboard-response","46","169448","0.0-4.0-1.2","","<img src=""img/green-r.png"" border=""10"">","null","trial","null","","0.2,0.8","2:nogo_b","1",""
"null","","html-keyboard-response","47","170452","0.0-4.0-2.2","","<div style=""font-size:60px;"">+</div>","null","","","","","","",""
"638.5150000278372","","image-keyboard-response","48","171091","0.0-4.0-0.3","","img/yellow.png","32","trial","32","true","0.8,0.2","1:go_a","",""
"null","","html-keyboard-response","49","172093","0.0-4.0-1.3","","<img src=""img/yellow-n.png"" border=""10"">","null","trial","32","","0.8,0.2","1:go_a","0",""
"null","","html-keyboard-response","50","173098","0.0-4.0-2.3","","<div style=""font-size:60px;"">+</div>","null","","","","","","",""
"632.5899999937974","","image-keyboard-response","51","173731","0.0-4.0-0.4","","img/green.png","32","trial","null","false","0.2,0.8","2:nogo_b","",""
"null","","html-keyboard-response","52","174739","0.0-4.0-1.4","","<img src=""img/green-r.png"" border=""10"">","null","trial","null","","0.2,0.8","2:nogo_b","1",""
"null","","html-keyboard-response","53","175741","0.0-4.0-2.4","","<div style=""font-size:60px;"">+</div>","null","","","","","","",""
"869.3950000160839","","image-keyboard-response","54","176611","0.0-4.0-0.5","","img/yellow.png","32","trial","32","true","0.8,0.2","1:go_a","",""
"null","","html-keyboard-response","55","177624","0.0-4.0-1.5","","<img src=""img/yellow-r.png"" border=""10"">","null","trial","32","","0.8,0.2","1:go_a","1",""
"null","","html-keyboard-response","56","178629","0.0-4.0-2.5","","<div style=""font-size:60px;"">+</div>","null","","","","","","",""
"1070.3250000078697","","image-keyboard-response","57","179699","0.0-4.0-0.6","","img/yellow.png","32","trial","32","true","0.8,0.2","1:go_a","",""
"null","","html-keyboard-response","58","180700","0.0-4.0-1.6","","<img src=""img/yellow-r.png"" border=""10"">","null","trial","32","","0.8,0.2","1:go_a","1",""
"null","","html-keyboard-response","59","181704","0.0-4.0-2.6","","<div style=""font-size:60px;"">+</div>","null","","","","","","",""
"546.0199999797624","","image-keyboard-response","60","182250","0.0-4.0-0.7","","img/green.png","32","trial","null","false","0.2,0.8","2:nogo_b","",""
"null","","html-keyboard-response","61","183260","0.0-4.0-1.7","","<img src=""img/green-n.png"" border=""10"">","null","trial","null","","0.2,0.8","2:nogo_b","0",""
"null","","html-keyboard-response","62","184266","0.0-4.0-2.7","","<div style=""font-size:60px;"">+</div>","null","","","","","","",""
"null","","image-keyboard-response","63","185782","0.0-4.0-0.8","","img/yellow.png","null","trial","32","false","0.8,0.2","1:go_a","",""
"null","","html-keyboard-response","64","186785","0.0-4.0-1.8","","<img src=""img/yellow-r.png"">","null","trial","32","","0.8,0.2","1:go_a","1",""
"null","","html-keyboard-response","65","187788","0.0-4.0-2.8","","<div style=""font-size:60px;"">+</div>","null","","","","","","",""
"405.83500001230277","","image-keyboard-response","66","188195","0.0-4.0-0.9","","img/green.png","32","trial","null","false","0.2,0.8","2:nogo_b","",""
"null","","html-keyboard-response","67","189209","0.0-4.0-1.9","","<img src=""img/green-n.png"" border=""10"">","null","trial","null","","0.2,0.8","2:nogo_b","0",""
"null","","html-keyboard-response","68","190214","0.0-4.0-2.9","","<div style=""font-size:60px;"">+</div>","null","","","","","","",""
"null","","image-keyboard-response","69","191729","0.0-4.0-0.10","","img/green.png","null","trial","null","true","0.2,0.8","2:nogo_b","",""
"null","","html-keyboard-response","70","192733","0.0-4.0-1.10","","<img src=""img/green-r.png"">","null","trial","null","","0.2,0.8","2:nogo_b","1",""
"null","","html-keyboard-response","71","193736","0.0-4.0-2.10","","<div style=""font-size:60px;"">+</div>","null","","","","","","",""
"745.7049999793526","","image-keyboard-response","72","194483","0.0-4.0-0.11","","img/yellow.png","32","trial","32","true","0.8,0.2","1:go_a","",""
"null","","html-keyboard-response","73","195488","0.0-4.0-1.11","","<img src=""img/yellow-n.png"" border=""10"">","null","trial","32","","0.8,0.2","1:go_a","0",""
"null","","html-keyboard-response","74","196489","0.0-4.0-2.11","","<div style=""font-size:60px;"">+</div>","null","","","","","","",""
"400.93000000342727","","image-keyboard-response","75","196890","0.0-4.0-0.12","","img/green.png","32","trial","null","false","0.2,0.8","2:nogo_b","",""
"null","","html-keyboard-response","76","197901","0.0-4.0-1.12","","<img src=""img/green-r.png"" border=""10"">","null","trial","null","","0.2,0.8","2:nogo_b","1",""
"null","","html-keyboard-response","77","198907","0.0-4.0-2.12","","<div style=""font-size:60px;"">+</div>","null","","","","","","",""
"null","","image-keyboard-response","78","200416","0.0-4.0-0.13","","img/yellow.png","null","trial","32","false","0.8,0.2","1:go_a","",""
"null","","html-keyboard-response","79","201421","0.0-4.0-1.13","","<img src=""img/yellow-n.png"">","null","trial","32","","0.8,0.2","1:go_a","0",""
"null","","html-keyboard-response","80","202426","0.0-4.0-2.13","","<div style=""font-size:60px;"">+</div>","null","","","","","","",""
"807.9350000189152","","image-keyboard-response","81","203235","0.0-4.0-0.14","","img/yellow.png","32","trial","32","true","0.8,0.2","1:go_a","",""
"null","","html-keyboard-response","82","204249","0.0-4.0-1.14","","<img src=""img/yellow-n.png"" border=""10"">","null","trial","32","","0.8,0.2","1:go_a","0",""
"null","","html-keyboard-response","83","205255","0.0-4.0-2.14","","<div style=""font-size:60px;"">+</div>","null","","","","","","",""
"643.6249999969732","","image-keyboard-response","84","205899","0.0-4.0-0.15","","img/green.png","32","trial","null","false","0.2,0.8","2:nogo_b","",""
"null","","html-keyboard-response","85","206902","0.0-4.0-1.15","","<img src=""img/green-r.png"" border=""10"">","null","trial","null","","0.2,0.8","2:nogo_b","1",""
"null","","html-keyboard-response","86","207904","0.0-4.0-2.15","","<div style=""font-size:60px;"">+</div>","null","","","","","","",""
"null","","image-keyboard-response","87","209415","0.0-4.0-0.16","","img/green.png","null","trial","null","true","0.2,0.8","2:nogo_b","",""
"null","","html-keyboard-response","88","210421","0.0-4.0-1.16","","<img src=""img/green-n.png"">","null","trial","null","","0.2,0.8","2:nogo_b","0",""
"null","","html-keyboard-response","89","211424","0.0-4.0-2.16","","<div style=""font-size:60px;"">+</div>","null","","","","","","",""
"490.0350000243634","","image-keyboard-response","90","211915","0.0-4.0-0.17","","img/yellow.png","32","trial","32","true","0.8,0.2","1:go_a","",""
"null","","html-keyboard-response","91","212921","0.0-4.0-1.17","","<img src=""img/yellow-n.png"" border=""10"">","null","trial","32","","0.8,0.2","1:go_a","0",""
"null","","html-keyboard-response","92","213926","0.0-4.0-2.17","","<div style=""font-size:60px;"">+</div>","null","","","","","","",""
"739.8950000060722","","image-keyboard-response","93","214667","0.0-4.0-0.18","","img/green.png","32","trial","null","false","0.2,0.8","2:nogo_b","",""
"null","","html-keyboard-response","94","215680","0.0-4.0-1.18","","<img src=""img/green-n.png"" border=""10"">","null","trial","null","","0.2,0.8","2:nogo_b","0",""
"null","","html-keyboard-response","95","216692","0.0-4.0-2.18","","<div style=""font-size:60px;"">+</div>","null","","","","","","",""
"806.2600000121165","","image-keyboard-response","96","217498","0.0-4.0-0.19","","img/yellow.png","32","trial","32","true","0.8,0.2","1:go_a","",""
"null","","html-keyboard-response","97","218501","0.0-4.0-1.19","","<img src=""img/yellow-r.png"" border=""10"">","null","trial","32","","0.8,0.2","1:go_a","1",""
"null","","html-keyboard-response","98","219510","0.0-4.0-2.19","","<div style=""font-size:60px;"">+</div>","null","","","","","","",""
"771.9449999858625","","image-keyboard-response","99","220283","0.0-4.0-0.20","","img/green.png","32","trial","null","false","0.2,0.8","2:nogo_b","",""
"null","","html-keyboard-response","100","221288","0.0-4.0-1.20","","<img src=""img/green-n.png"" border=""10"">","null","trial","null","","0.2,0.8","2:nogo_b","0",""
"null","","html-keyboard-response","101","222298","0.0-4.0-2.20","","<div style=""font-size:60px;"">+</div>","null","","","","","","",""
"584.0399999869987","","image-keyboard-response","102","222882","0.0-4.0-0.21","","img/yellow.png","32","trial","32","true","0.8,0.2","1:go_a","",""
"null","","html-keyboard-response","103","223886","0.0-4.0-1.21","","<img src=""img/yellow-r.png"" border=""10"">","null","trial","32","","0.8,0.2","1:go_a","1",""
"null","","html-keyboard-response","104","224893","0.0-4.0-2.21","","<div style=""font-size:60px;"">+</div>","null","","","","","","",""
"645.2100000169594","","image-keyboard-response","105","225539","0.0-4.0-0.22","","img/yellow.png","32","trial","32","true","0.8,0.2","1:go_a","",""
"null","","html-keyboard-response","106","226548","0.0-4.0-1.22","","<img src=""img/yellow-n.png"" border=""10"">","null","trial","32","","0.8,0.2","1:go_a","0",""
"null","","html-keyboard-response","107","227559","0.0-4.0-2.22","","<div style=""font-size:60px;"">+</div>","null","","","","","","",""
"595.035000005737","","image-keyboard-response","108","228155","0.0-4.0-0.23","","img/green.png","32","trial","null","false","0.2,0.8","2:nogo_b","",""
"null","","html-keyboard-response","109","229169","0.0-4.0-1.23","","<img src=""img/green-n.png"" border=""10"">","null","trial","null","","0.2,0.8","2:nogo_b","0",""
"null","","html-keyboard-response","110","230184","0.0-4.0-2.23","","<div style=""font-size:60px;"">+</div>","null","","","","","","",""
"721.9099999929313","","image-keyboard-response","111","230907","0.0-4.0-0.24","","img/yellow.png","32","trial","32","true","0.8,0.2","1:go_a","",""
"null","","html-keyboard-response","112","231920","0.0-4.0-1.24","","<img src=""img/yellow-r.png"" border=""10"">","null","trial","32","","0.8,0.2","1:go_a","1",""
"null","","html-keyboard-response","113","232923","0.0-4.0-2.24","","<div style=""font-size:60px;"">+</div>","null","","","","","","",""
"null","","image-keyboard-response","114","234432","0.0-4.0-0.25","","img/green.png","null","trial","null","true","0.2,0.8","2:nogo_b","",""
"null","","html-keyboard-response","115","235433","0.0-4.0-1.25","","<img src=""img/green-r.png"">","null","trial","null","","0.2,0.8","2:nogo_b","1",""
"null","","html-keyboard-response","116","236445","0.0-4.0-2.25","","<div style=""font-size:60px;"">+</div>","null","","","","","","",""
"588.9850000094157","","image-keyboard-response","117","237035","0.0-4.0-0.26","","img/green.png","32","trial","null","false","0.2,0.8","2:nogo_b","",""
"null","","html-keyboard-response","118","238048","0.0-4.0-1.26","","<img src=""img/green-n.png"" border=""10"">","null","trial","null","","0.2,0.8","2:nogo_b","0",""
"null","","html-keyboard-response","119","239055","0.0-4.0-2.26","","<div style=""font-size:60px;"">+</div>","null","","","","","","",""
"466.8600000150036","","image-keyboard-response","120","239522","0.0-4.0-0.27","","img/yellow.png","32","trial","32","true","0.8,0.2","1:go_a","",""
"null","","html-keyboard-response","121","240536","0.0-4.0-1.27","","<img src=""img/yellow-r.png"" border=""10"">","null","trial","32","","0.8,0.2","1:go_a","1",""
"null","","html-keyboard-response","122","241547","0.0-4.0-2.27","","<div style=""font-size:60px;"">+</div>","null","","","","","","",""
"775.9900000237394","","image-keyboard-response","123","242324","0.0-4.0-0.28","","img/green.png","32","trial","null","false","0.2,0.8","2:nogo_b","",""
"null","","html-keyboard-response","124","243338","0.0-4.0-1.28","","<img src=""img/green-n.png"" border=""10"">","null","trial","null","","0.2,0.8","2:nogo_b","0",""
"null","","html-keyboard-response","125","244343","0.0-4.0-2.28","","<div style=""font-size:60px;"">+</div>","null","","","","","","",""
"771.8150000146125","","image-keyboard-response","126","245115","0.0-4.0-0.29","","img/yellow.png","32","trial","32","true","0.8,0.2","1:go_a","",""
"null","","html-keyboard-response","127","246117","0.0-4.0-1.29","","<img src=""img/yellow-r.png"" border=""10"">","null","trial","32","","0.8,0.2","1:go_a","1",""
"null","","html-keyboard-response","128","247124","0.0-4.0-2.29","","<div style=""font-size:60px;"">+</div>","null","","","","","","",""
"1055.6849999993574","","image-keyboard-response","129","248180","0.0-4.0-0.30","","img/yellow.png","32","trial","32","true","0.8,0.2","1:go_a","",""
"null","","html-keyboard-response","130","249184","0.0-4.0-1.30","","<img src=""img/yellow-r.png"" border=""10"">","null","trial","32","","0.8,0.2","1:go_a","1",""
"null","","html-keyboard-response","131","250199","0.0-4.0-2.30","","<div style=""font-size:60px;"">+</div>","null","","","","","","",""
"null","","image-keyboard-response","132","251710","0.0-4.0-0.31","","img/green.png","null","trial","null","true","0.2,0.8","2:nogo_b","",""
"null","","html-keyboard-response","133","252718","0.0-4.0-1.31","","<img src=""img/green-r.png"">","null","trial","null","","0.2,0.8","2:nogo_b","1",""
"null","","html-keyboard-response","134","253728","0.0-4.0-2.31","","<div style=""font-size:60px;"">+</div>","null","","","","","","",""
"491.21999999624677","","image-keyboard-response","135","254219","0.0-4.0-0.32","","img/green.png","32","trial","null","false","0.2,0.8","2:nogo_b","",""
"null","","html-keyboard-response","136","255232","0.0-4.0-1.32","","<img src=""img/green-n.png"" border=""10"">","null","trial","null","","0.2,0.8","2:nogo_b","0",""
"null","","html-keyboard-response","137","256247","0.0-4.0-2.32","","<div style=""font-size:60px;"">+</div>","null","","","","","","",""
"732.3000000033062","","image-keyboard-response","138","256979","0.0-4.0-0.33","","img/yellow.png","32","trial","32","true","0.8,0.2","1:go_a","",""
"null","","html-keyboard-response","139","257990","0.0-4.0-1.33","","<img src=""img/yellow-n.png"" border=""10"">","null","trial","32","","0.8,0.2","1:go_a","0",""
"null","","html-keyboard-response","140","258994","0.0-4.0-2.33","","<div style=""font-size:60px;"">+</div>","null","","","","","","",""
"465.4500000178814","","image-keyboard-response","141","259460","0.0-4.0-0.34","","img/green.png","32","trial","null","false","0.2,0.8","2:nogo_b","",""
"null","","html-keyboard-response","142","260472","0.0-4.0-1.34","","<img src=""img/green-n.png"" border=""10"">","null","trial","null","","0.2,0.8","2:nogo_b","0",""
"null","","html-keyboard-response","143","261475","0.0-4.0-2.34","","<div style=""font-size:60px;"">+</div>","null","","","","","","",""
"784.0649999852758","","image-keyboard-response","144","262260","0.0-4.0-0.35","","img/yellow.png","32","trial","32","true","0.8,0.2","1:go_a","",""
"null","","html-keyboard-response","145","263261","0.0-4.0-1.35","","<img src=""img/yellow-r.png"" border=""10"">","null","trial","32","","0.8,0.2","1:go_a","1",""
"null","","html-keyboard-response","146","264276","0.0-4.0-2.35","","<div style=""font-size:60px;"">+</div>","null","","","","","","",""
"null","","image-keyboard-response","147","265792","0.0-4.0-0.36","","img/yellow.png","null","trial","32","false","0.8,0.2","1:go_a","",""
"null","","html-keyboard-response","148","266807","0.0-4.0-1.36","","<img src=""img/yellow-n.png"">","null","trial","32","","0.8,0.2","1:go_a","0",""
"null","","html-keyboard-response","149","267817","0.0-4.0-2.36","","<div style=""font-size:60px;"">+</div>","null","","","","","","",""
"481.8899999954738","","image-keyboard-response","150","268300","0.0-4.0-0.37","","img/green.png","32","trial","null","false","0.2,0.8","2:nogo_b","",""
"null","","html-keyboard-response","151","269301","0.0-4.0-1.37","","<img src=""img/green-n.png"" border=""10"">","null","trial","null","","0.2,0.8","2:nogo_b","0",""
"null","","html-keyboard-response","152","270308","0.0-4.0-2.37","","<div style=""font-size:60px;"">+</div>","null","","","","","","",""
"943.5450000164565","","image-keyboard-response","153","271252","0.0-4.0-0.38","","img/yellow.png","32","trial","32","true","0.8,0.2","1:go_a","",""
"null","","html-keyboard-response","154","272253","0.0-4.0-1.38","","<img src=""img/yellow-r.png"" border=""10"">","null","trial","32","","0.8,0.2","1:go_a","1",""
"null","","html-keyboard-response","155","273269","0.0-4.0-2.38","","<div style=""font-size:60px;"">+</div>","null","","","","","","",""
"null","","image-keyboard-response","156","274781","0.0-4.0-0.39","","img/green.png","null","trial","null","true","0.2,0.8","2:nogo_b","",""
"null","","html-keyboard-response","157","275794","0.0-4.0-1.39","","<img src=""img/green-r.png"">","null","trial","null","","0.2,0.8","2:nogo_b","1",""
"null","","html-keyboard-response","158","276807","0.0-4.0-2.39","","<div style=""font-size:60px;"">+</div>","null","","","","","","",""
"null","","image-keyboard-response","159","278316","0.0-4.0-0.40","","img/green.png","null","trial","null","true","0.2,0.8","2:nogo_b","",""
"null","","html-keyboard-response","160","279321","0.0-4.0-1.40","","<img src=""img/green-r.png"">","null","trial","null","","0.2,0.8","2:nogo_b","1",""
"null","","html-keyboard-response","161","280337","0.0-4.0-2.40","","<div style=""font-size:60px;"">+</div>","null","","","","","","",""
"617.934999987483","","image-keyboard-response","162","280956","0.0-4.0-0.41","","img/yellow.png","32","trial","32","true","0.8,0.2","1:go_a","",""
"null","","html-keyboard-response","163","281970","0.0-4.0-1.41","","<img src=""img/yellow-r.png"" border=""10"">","null","trial","32","","0.8,0.2","1:go_a","1",""
"null","","html-keyboard-response","164","282981","0.0-4.0-2.41","","<div style=""font-size:60px;"">+</div>","null","","","","","","",""
"726.0050000040792","","image-keyboard-response","165","283708","0.0-4.0-0.42","","img/green.png","32","trial","null","false","0.2,0.8","2:nogo_b","",""
"null","","html-keyboard-response","166","284714","0.0-4.0-1.42","","<img src=""img/green-n.png"" border=""10"">","null","trial","null","","0.2,0.8","2:nogo_b","0",""
"null","","html-keyboard-response","167","285716","0.0-4.0-2.42","","<div style=""font-size:60px;"">+</div>","null","","","","","","",""
"647.3100000002887","","image-keyboard-response","168","286364","0.0-4.0-0.43","","img/yellow.png","32","trial","32","true","0.8,0.2","1:go_a","",""
"null","","html-keyboard-response","169","287379","0.0-4.0-1.43","","<img src=""img/yellow-r.png"" border=""10"">","null","trial","32","","0.8,0.2","1:go_a","1",""
"null","","html-keyboard-response","170","288388","0.0-4.0-2.43","","<div style=""font-size:60px;"">+</div>","null","","","","","","",""
"606.9950000091922","","image-keyboard-response","171","288996","0.0-4.0-0.44","","img/green.png","32","trial","null","false","0.2,0.8","2:nogo_b","",""
"null","","html-keyboard-response","172","290003","0.0-4.0-1.44","","<img src=""img/green-n.png"" border=""10"">","null","trial","null","","0.2,0.8","2:nogo_b","0",""
"null","","html-keyboard-response","173","291004","0.0-4.0-2.44","","<div style=""font-size:60px;"">+</div>","null","","","","","","",""
"1022.8449999995064","","image-keyboard-response","174","292028","0.0-4.0-0.45","","img/yellow.png","32","trial","32","true","0.8,0.2","1:go_a","",""
"null","","html-keyboard-response","175","293042","0.0-4.0-1.45","","<img src=""img/yellow-r.png"" border=""10"">","null","trial","32","","0.8,0.2","1:go_a","1",""
"null","","html-keyboard-response","176","294055","0.0-4.0-2.45","","<div style=""font-size:60px;"">+</div>","null","","","","","","",""
"null","","image-keyboard-response","177","295562","0.0-4.0-0.46","","img/green.png","null","trial","null","true","0.2,0.8","2:nogo_b","",""
"null","","html-keyboard-response","178","296571","0.0-4.0-1.46","","<img src=""img/green-r.png"">","null","trial","null","","0.2,0.8","2:nogo_b","1",""
"null","","html-keyboard-response","179","297586","0.0-4.0-2.46","","<div style=""font-size:60px;"">+</div>","null","","","","","","",""
"617.3499999858905","","image-keyboard-response","180","298204","0.0-4.0-0.47","","img/yellow.png","32","trial","32","true","0.8,0.2","1:go_a","",""
"null","","html-keyboard-response","181","299210","0.0-4.0-1.47","","<img src=""img/yellow-n.png"" border=""10"">","null","trial","32","","0.8,0.2","1:go_a","0",""
"null","","html-keyboard-response","182","300223","0.0-4.0-2.47","","<div style=""font-size:60px;"">+</div>","null","","","","","","",""
"660.0049999833573","","image-keyboard-response","183","300884","0.0-4.0-0.48","","img/yellow.png","32","trial","32","true","0.8,0.2","1:go_a","",""
"null","","html-keyboard-response","184","301896","0.0-4.0-1.48","","<img src=""img/yellow-r.png"" border=""10"">","null","trial","32","","0.8,0.2","1:go_a","1",""
"null","","html-keyboard-response","185","302898","0.0-4.0-2.48","","<div style=""font-size:60px;"">+</div>","null","","","","","","",""
"705.2350000012666","","image-keyboard-response","186","303603","0.0-4.0-0.49","","img/green.png","32","trial","null","false","0.2,0.8","2:nogo_b","",""
"null","","html-keyboard-response","187","304615","0.0-4.0-1.49","","<img src=""img/green-n.png"" border=""10"">","null","trial","null","","0.2,0.8","2:nogo_b","0",""
"null","","html-keyboard-response","188","305616","0.0-4.0-2.49","","<div style=""font-size:60px;"">+</div>","null","","","","","","",""
"1227.2850000008475","","image-keyboard-response","189","306843","0.0-4.0-0.50","","img/green.png","32","trial","null","false","0.2,0.8","2:nogo_b","",""
"null","","html-keyboard-response","190","307857","0.0-4.0-1.50","","<img src=""img/green-r.png"" border=""10"">","null","trial","null","","0.2,0.8","2:nogo_b","1",""
"null","","html-keyboard-response","191","308867","0.0-4.0-2.50","","<div style=""font-size:60px;"">+</div>","null","","","","","","",""
"1111.5500000014435","","image-keyboard-response","192","309979","0.0-4.0-0.51","","img/yellow.png","32","trial","32","true","0.8,0.2","1:go_a","",""
"null","","html-keyboard-response","193","310985","0.0-4.0-1.51","","<img src=""img/yellow-r.png"" border=""10"">","null","trial","32","","0.8,0.2","1:go_a","1",""
"null","","html-keyboard-response","194","311987","0.0-4.0-2.51","","<div style=""font-size:60px;"">+</div>","null","","","","","","",""
"null","","image-keyboard-response","195","313501","0.0-4.0-0.52","","img/green.png","null","trial","null","true","0.2,0.8","2:nogo_b","",""
"null","","html-keyboard-response","196","314515","0.0-4.0-1.52","","<img src=""img/green-r.png"">","null","trial","null","","0.2,0.8","2:nogo_b","1",""
"null","","html-keyboard-response","197","315520","0.0-4.0-2.52","","<div style=""font-size:60px;"">+</div>","null","","","","","","",""
"603.3799999859184","","image-keyboard-response","198","316124","0.0-4.0-0.53","","img/yellow.png","32","trial","32","true","0.8,0.2","1:go_a","",""
"null","","html-keyboard-response","199","317139","0.0-4.0-1.53","","<img src=""img/yellow-r.png"" border=""10"">","null","trial","32","","0.8,0.2","1:go_a","1",""
"null","","html-keyboard-response","200","318154","0.0-4.0-2.53","","<div style=""font-size:60px;"">+</div>","null","","","","","","",""
"null","","image-keyboard-response","201","319660","0.0-4.0-0.54","","img/green.png","null","trial","null","true","0.2,0.8","2:nogo_b","",""
"null","","html-keyboard-response","202","320675","0.0-4.0-1.54","","<img src=""img/green-r.png"">","null","trial","null","","0.2,0.8","2:nogo_b","1",""
"null","","html-keyboard-response","203","321681","0.0-4.0-2.54","","<div style=""font-size:60px;"">+</div>","null","","","","","","",""
"625.6149999971967","","image-keyboard-response","204","322307","0.0-4.0-0.55","","img/yellow.png","32","trial","32","true","0.8,0.2","1:go_a","",""
"null","","html-keyboard-response","205","323309","0.0-4.0-1.55","","<img src=""img/yellow-r.png"" border=""10"">","null","trial","32","","0.8,0.2","1:go_a","1",""
"null","","html-keyboard-response","206","324314","0.0-4.0-2.55","","<div style=""font-size:60px;"">+</div>","null","","","","","","",""
"784.654999995837","","image-keyboard-response","207","325099","0.0-4.0-0.56","","img/green.png","32","trial","null","false","0.2,0.8","2:nogo_b","",""
"null","","html-keyboard-response","208","326110","0.0-4.0-1.56","","<img src=""img/green-n.png"" border=""10"">","null","trial","null","","0.2,0.8","2:nogo_b","0",""
"null","","html-keyboard-response","209","327121","0.0-4.0-2.56","","<div style=""font-size:60px;"">+</div>","null","","","","","","",""
"761.3899999996647","","image-keyboard-response","210","327883","0.0-4.0-0.57","","img/yellow.png","32","trial","32","true","0.8,0.2","1:go_a","",""
"null","","html-keyboard-response","211","328889","0.0-4.0-1.57","","<img src=""img/yellow-n.png"" border=""10"">","null","trial","32","","0.8,0.2","1:go_a","0",""
"null","","html-keyboard-response","212","329895","0.0-4.0-2.57","","<div style=""font-size:60px;"">+</div>","null","","","","","","",""
"507.63500001630746","","image-keyboard-response","213","330403","0.0-4.0-0.58","","img/green.png","32","trial","null","false","0.2,0.8","2:nogo_b","",""
"null","","html-keyboard-response","214","331407","0.0-4.0-1.58","","<img src=""img/green-n.png"" border=""10"">","null","trial","null","","0.2,0.8","2:nogo_b","0",""
"null","","html-keyboard-response","215","332423","0.0-4.0-2.58","","<div style=""font-size:60px;"">+</div>","null","","","","","","",""
"null","","image-keyboard-response","216","333937","0.0-4.0-0.59","","img/yellow.png","null","trial","32","false","0.8,0.2","1:go_a","",""
"null","","html-keyboard-response","217","334939","0.0-4.0-1.59","","<img src=""img/yellow-r.png"">","null","trial","32","","0.8,0.2","1:go_a","1",""
"null","","html-keyboard-response","218","335955","0.0-4.0-2.59","","<div style=""font-size:60px;"">+</div>","null","","","","","","",""
"6184.4099999871105","","instructions","219","342139","0.0-5.0","[{""page_index"":0,""viewing_time"":6184.255000000121}]","","","","","","","","",""
"671.4549999742303","","image-keyboard-response","220","342811","0.0-6.0-0.0","","img/yellow.png","32","trial","32","true","0.6,0.4","3:go_c","",""
"null","","html-keyboard-response","221","343817","0.0-6.0-1.0","","<img src=""img/yellow-r.png"" border=""10"">","null","trial","32","","0.6,0.4","3:go_c","1",""
"null","","html-keyboard-response","222","344818","0.0-6.0-2.0","","<div style=""font-size:60px;"">+</div>","null","","","","","","",""
"361.06500000460073","","image-keyboard-response","223","345180","0.0-6.0-0.1","","img/green.png","32","trial","null","false","0.2,0.8","2:nogo_b","",""
"null","","html-keyboard-response","224","346184","0.0-6.0-1.1","","<img src=""img/green-n.png"" border=""10"">","null","trial","null","","0.2,0.8","2:nogo_b","0",""
"null","","html-keyboard-response","225","347186","0.0-6.0-2.1","","<div style=""font-size:60px;"">+</div>","null","","","","","","",""
"712.5500000256579","","image-keyboard-response","226","347899","0.0-6.0-0.2","","img/blue.png","32","trial","null","false","0.4,0.6","4:nogo_d","",""
"null","","html-keyboard-response","227","348908","0.0-6.0-1.2","","<img src=""img/blue-n.png"" border=""10"">","null","trial","null","","0.4,0.6","4:nogo_d","0",""
"null","","html-keyboard-response","228","349922","0.0-6.0-2.2","","<div style=""font-size:60px;"">+</div>","null","","","","","","",""
"1032.600000005914","","image-keyboard-response","229","350955","0.0-6.0-0.3","","img/purple.png","32","trial","32","true","0.8,0.2","1:go_a","",""
"null","","html-keyboard-response","230","351970","0.0-6.0-1.3","","<img src=""img/purple-r.png"" border=""10"">","null","trial","32","","0.8,0.2","1:go_a","1",""
"null","","html-keyboard-response","231","352973","0.0-6.0-2.3","","<div style=""font-size:60px;"">+</div>","null","","","","","","",""
"null","","image-keyboard-response","232","354489","0.0-6.0-0.4","","img/green.png","null","trial","null","true","0.2,0.8","2:nogo_b","",""
"null","","html-keyboard-response","233","355504","0.0-6.0-1.4","","<img src=""img/green-n.png"">","null","trial","null","","0.2,0.8","2:nogo_b","0",""
"null","","html-keyboard-response","234","356519","0.0-6.0-2.4","","<div style=""font-size:60px;"">+</div>","null","","","","","","",""
"708.5650000080932","","image-keyboard-response","235","357228","0.0-6.0-0.5","","img/purple.png","32","trial","32","true","0.8,0.2","1:go_a","",""
"null","","html-keyboard-response","236","358239","0.0-6.0-1.5","","<img src=""img/purple-r.png"" border=""10"">","null","trial","32","","0.8,0.2","1:go_a","1",""
"null","","html-keyboard-response","237","359254","0.0-6.0-2.5","","<div style=""font-size:60px;"">+</div>","null","","","","","","",""
"1052.720000006957","","image-keyboard-response","238","360308","0.0-6.0-0.6","","img/yellow.png","32","trial","32","true","0.6,0.4","3:go_c","",""
"null","","html-keyboard-response","239","361315","0.0-6.0-1.6","","<img src=""img/yellow-n.png"" border=""10"">","null","trial","32","","0.6,0.4","3:go_c","0",""
"null","","html-keyboard-response","240","362320","0.0-6.0-2.6","","<div style=""font-size:60px;"">+</div>","null","","","","","","",""
"530.9249999991152","","image-keyboard-response","241","362851","0.0-6.0-0.7","","img/blue.png","32","trial","null","false","0.4,0.6","4:nogo_d","",""
"null","","html-keyboard-response","242","363861","0.0-6.0-1.7","","<img src=""img/blue-n.png"" border=""10"">","null","trial","null","","0.4,0.6","4:nogo_d","0",""
"null","","html-keyboard-response","243","364866","0.0-6.0-2.7","","<div style=""font-size:60px;"">+</div>","null","","","","","","",""
"872.8450000053272","","image-keyboard-response","244","365740","0.0-6.0-0.8","","img/yellow.png","32","trial","32","true","0.6,0.4","3:go_c","",""
"null","","html-keyboard-response","245","366756","0.0-6.0-1.8","","<img src=""img/yellow-r.png"" border=""10"">","null","trial","32","","0.6,0.4","3:go_c","1",""
"null","","html-keyboard-response","246","367758","0.0-6.0-2.8","","<div style=""font-size:60px;"">+</div>","null","","","","","","",""
"null","","image-keyboard-response","247","369269","0.0-6.0-0.9","","img/blue.png","null","trial","null","true","0.4,0.6","4:nogo_d","",""
"null","","html-keyboard-response","248","370275","0.0-6.0-1.9","","<img src=""img/blue-r.png"">","null","trial","null","","0.4,0.6","4:nogo_d","1",""
"null","","html-keyboard-response","249","371290","0.0-6.0-2.9","","<div style=""font-size:60px;"">+</div>","null","","","","","","",""
"561.0250000027008","","image-keyboard-response","250","371852","0.0-6.0-0.10","","img/green.png","32","trial","null","false","0.2,0.8","2:nogo_b","",""
"null","","html-keyboard-response","251","372868","0.0-6.0-1.10","","<img src=""img/green-n.png"" border=""10"">","null","trial","null","","0.2,0.8","2:nogo_b","0",""
"null","","html-keyboard-response","252","373873","0.0-6.0-2.10","","<div style=""font-size:60px;"">+</div>","null","","","","","","",""
"665.8600000082515","","image-keyboard-response","253","374539","0.0-6.0-0.11","","img/purple.png","32","trial","32","true","0.8,0.2","1:go_a","",""
"null","","html-keyboard-response","254","375555","0.0-6.0-1.11","","<img src=""img/purple-r.png"" border=""10"">","null","trial","32","","0.8,0.2","1:go_a","1",""
"null","","html-keyboard-response","255","376556","0.0-6.0-2.11","","<div style=""font-size:60px;"">+</div>","null","","","","","","",""
"null","","image-keyboard-response","256","378071","0.0-6.0-0.12","","img/purple.png","null","trial","32","false","0.8,0.2","1:go_a","",""
"null","","html-keyboard-response","257","379076","0.0-6.0-1.12","","<img src=""img/purple-n.png"">","null","trial","32","","0.8,0.2","1:go_a","0",""
"null","","html-keyboard-response","258","380092","0.0-6.0-2.12","","<div style=""font-size:60px;"">+</div>","null","","","","","","",""
"662.5099999946542","","image-keyboard-response","259","380755","0.0-6.0-0.13","","img/blue.png","32","trial","null","false","0.4,0.6","4:nogo_d","",""
"null","","html-keyboard-response","260","381759","0.0-6.0-1.13","","<img src=""img/blue-n.png"" border=""10"">","null","trial","null","","0.4,0.6","4:nogo_d","0",""
"null","","html-keyboard-response","261","382768","0.0-6.0-2.13","","<div style=""font-size:60px;"">+</div>","null","","","","","","",""
"746.675000002142","","image-keyboard-response","262","383515","0.0-6.0-0.14","","img/green.png","32","trial","null","false","0.2,0.8","2:nogo_b","",""
"null","","html-keyboard-response","263","384525","0.0-6.0-1.14","","<img src=""img/green-r.png"" border=""10"">","null","trial","null","","0.2,0.8","2:nogo_b","1",""
"null","","html-keyboard-response","264","385530","0.0-6.0-2.14","","<div style=""font-size:60px;"">+</div>","null","","","","","","",""
"null","","image-keyboard-response","265","387045","0.0-6.0-0.15","","img/yellow.png","null","trial","32","false","0.6,0.4","3:go_c","",""
"null","","html-keyboard-response","266","388058","0.0-6.0-1.15","","<img src=""img/yellow-r.png"">","null","trial","32","","0.6,0.4","3:go_c","1",""
"null","","html-keyboard-response","267","389074","0.0-6.0-2.15","","<div style=""font-size:60px;"">+</div>","null","","","","","","",""
"633.5600000165869","","image-keyboard-response","268","389708","0.0-6.0-0.16","","img/purple.png","32","trial","32","true","0.8,0.2","1:go_a","",""
"null","","html-keyboard-response","269","390715","0.0-6.0-1.16","","<img src=""img/purple-n.png"" border=""10"">","null","trial","32","","0.8,0.2","1:go_a","0",""
"null","","html-keyboard-response","270","391716","0.0-6.0-2.16","","<div style=""font-size:60px;"">+</div>","null","","","","","","",""
"566.9300000008661","","image-keyboard-response","271","392283","0.0-6.0-0.17","","img/green.png","32","trial","null","false","0.2,0.8","2:nogo_b","",""
"null","","html-keyboard-response","272","393290","0.0-6.0-1.17","","<img src=""img/green-r.png"" border=""10"">","null","trial","null","","0.2,0.8","2:nogo_b","1",""
"null","","html-keyboard-response","273","394293","0.0-6.0-2.17","","<div style=""font-size:60px;"">+</div>","null","","","","","","",""
"606.2249999959022","","image-keyboard-response","274","394900","0.0-6.0-0.18","","img/yellow.png","32","trial","32","true","0.6,0.4","3:go_c","",""
"null","","html-keyboard-response","275","395907","0.0-6.0-1.18","","<img src=""img/yellow-n.png"" border=""10"">","null","trial","32","","0.6,0.4","3:go_c","0",""
"null","","html-keyboard-response","276","396923","0.0-6.0-2.18","","<div style=""font-size:60px;"">+</div>","null","","","","","","",""
"656.0799999861047","","image-keyboard-response","277","397579","0.0-6.0-0.19","","img/blue.png","32","trial","null","false","0.4,0.6","4:nogo_d","",""
"null","","html-keyboard-response","278","398589","0.0-6.0-1.19","","<img src=""img/blue-n.png"" border=""10"">","null","trial","null","","0.4,0.6","4:nogo_d","0",""
"null","","html-keyboard-response","279","399593","0.0-6.0-2.19","","<div style=""font-size:60px;"">+</div>","null","","","","","","",""
"666.4199999941047","","image-keyboard-response","280","400259","0.0-6.0-0.20","","img/purple.png","32","trial","32","true","0.8,0.2","1:go_a","",""
"null","","html-keyboard-response","281","401264","0.0-6.0-1.20","","<img src=""img/purple-r.png"" border=""10"">","null","trial","32","","0.8,0.2","1:go_a","1",""
"null","","html-keyboard-response","282","402269","0.0-6.0-2.20","","<div style=""font-size:60px;"">+</div>","null","","","","","","",""
"null","","image-keyboard-response","283","403779","0.0-6.0-0.21","","img/yellow.png","null","trial","32","false","0.6,0.4","3:go_c","",""
"null","","html-keyboard-response","284","404781","0.0-6.0-1.21","","<img src=""img/yellow-n.png"">","null","trial","32","","0.6,0.4","3:go_c","0",""
"null","","html-keyboard-response","285","405782","0.0-6.0-2.21","","<div style=""font-size:60px;"">+</div>","null","","","","","","",""
"null","","image-keyboard-response","286","407293","0.0-6.0-0.22","","img/blue.png","null","trial","null","true","0.4,0.6","4:nogo_d","",""
"null","","html-keyboard-response","287","408298","0.0-6.0-1.22","","<img src=""img/blue-r.png"">","null","trial","null","","0.4,0.6","4:nogo_d","1",""
"null","","html-keyboard-response","288","409302","0.0-6.0-2.22","","<div style=""font-size:60px;"">+</div>","null","","","","","","",""
"629.3449999939185","","image-keyboard-response","289","409931","0.0-6.0-0.23","","img/green.png","32","trial","null","false","0.2,0.8","2:nogo_b","",""
"null","","html-keyboard-response","290","410945","0.0-6.0-1.23","","<img src=""img/green-n.png"" border=""10"">","null","trial","null","","0.2,0.8","2:nogo_b","0",""
"null","","html-keyboard-response","291","411951","0.0-6.0-2.23","","<div style=""font-size:60px;"">+</div>","null","","","","","","",""
"516.3699999975506","","image-keyboard-response","292","412467","0.0-6.0-0.24","","img/purple.png","32","trial","32","true","0.8,0.2","1:go_a","",""
"null","","html-keyboard-response","293","413471","0.0-6.0-1.24","","<img src=""img/purple-n.png"" border=""10"">","null","trial","32","","0.8,0.2","1:go_a","0",""
"null","","html-keyboard-response","294","414482","0.0-6.0-2.24","","<div style=""font-size:60px;"">+</div>","null","","","","","","",""
"481.14499999792315","","image-keyboard-response","295","414963","0.0-6.0-0.25","","img/blue.png","32","trial","null","false","0.4,0.6","4:nogo_d","",""
"null","","html-keyboard-response","296","415972","0.0-6.0-1.25","","<img src=""img/blue-n.png"" border=""10"">","null","trial","null","","0.4,0.6","4:nogo_d","0",""
"null","","html-keyboard-response","297","416977","0.0-6.0-2.25","","<div style=""font-size:60px;"">+</div>","null","","","","","","",""
"817.9450000170618","","image-keyboard-response","298","417796","0.0-6.0-0.26","","img/yellow.png","32","trial","32","true","0.6,0.4","3:go_c","",""
"null","","html-keyboard-response","299","418810","0.0-6.0-1.26","","<img src=""img/yellow-r.png"" border=""10"">","null","trial","32","","0.6,0.4","3:go_c","1",""
"null","","html-keyboard-response","300","419816","0.0-6.0-2.26","","<div style=""font-size:60px;"">+</div>","null","","","","","","",""
"659.4050000130665","","image-keyboard-response","301","420476","0.0-6.0-0.27","","img/green.png","32","trial","null","false","0.2,0.8","2:nogo_b","",""
"null","","html-keyboard-response","302","421489","0.0-6.0-1.27","","<img src=""img/green-r.png"" border=""10"">","null","trial","null","","0.2,0.8","2:nogo_b","1",""
"null","","html-keyboard-response","303","422504","0.0-6.0-2.27","","<div style=""font-size:60px;"">+</div>","null","","","","","","",""
"594.9950000212993","","image-keyboard-response","304","423100","0.0-6.0-0.28","","img/green.png","32","trial","null","false","0.2,0.8","2:nogo_b","",""
"null","","html-keyboard-response","305","424103","0.0-6.0-1.28","","<img src=""img/green-n.png"" border=""10"">","null","trial","null","","0.2,0.8","2:nogo_b","0",""
"null","","html-keyboard-response","306","425105","0.0-6.0-2.28","","<div style=""font-size:60px;"">+</div>","null","","","","","","",""
"506.1400000122376","","image-keyboard-response","307","425611","0.0-6.0-0.29","","img/blue.png","32","trial","null","false","0.4,0.6","4:nogo_d","",""
"null","","html-keyboard-response","308","426622","0.0-6.0-1.29","","<img src=""img/blue-r.png"" border=""10"">","null","trial","null","","0.4,0.6","4:nogo_d","1",""
"null","","html-keyboard-response","309","427630","0.0-6.0-2.29","","<div style=""font-size:60px;"">+</div>","null","","","","","","",""
"660.9500000195112","","image-keyboard-response","310","428291","0.0-6.0-0.30","","img/purple.png","32","trial","32","true","0.8,0.2","1:go_a","",""
"null","","html-keyboard-response","311","429306","0.0-6.0-1.30","","<img src=""img/purple-r.png"" border=""10"">","null","trial","32","","0.8,0.2","1:go_a","1",""
"null","","html-keyboard-response","312","430316","0.0-6.0-2.30","","<div style=""font-size:60px;"">+</div>","null","","","","","","",""
"951.0100000188686","","image-keyboard-response","313","431268","0.0-6.0-0.31","","img/yellow.png","32","trial","32","true","0.6,0.4","3:go_c","",""
"null","","html-keyboard-response","314","432276","0.0-6.0-1.31","","<img src=""img/yellow-r.png"" border=""10"">","null","trial","32","","0.6,0.4","3:go_c","1",""
"null","","html-keyboard-response","315","433286","0.0-6.0-2.31","","<div style=""font-size:60px;"">+</div>","null","","","","","","",""
"null","","image-keyboard-response","316","434789","0.0-6.0-0.32","","img/green.png","null","trial","null","true","0.2,0.8","2:nogo_b","",""
"null","","html-keyboard-response","317","435799","0.0-6.0-1.32","","<img src=""img/green-r.png"">","null","trial","null","","0.2,0.8","2:nogo_b","1",""
"null","","html-keyboard-response","318","436810","0.0-6.0-2.32","","<div style=""font-size:60px;"">+</div>","null","","","","","","",""
"null","","image-keyboard-response","319","438312","0.0-6.0-0.33","","img/blue.png","null","trial","null","true","0.4,0.6","4:nogo_d","",""
"null","","html-keyboard-response","320","439323","0.0-6.0-1.33","","<img src=""img/blue-n.png"">","null","trial","null","","0.4,0.6","4:nogo_d","0",""
"null","","html-keyboard-response","321","440335","0.0-6.0-2.33","","<div style=""font-size:60px;"">+</div>","null","","","","","","",""
"null","","image-keyboard-response","322","441838","0.0-6.0-0.34","","img/purple.png","null","trial","32","false","0.8,0.2","1:go_a","",""
"null","","html-keyboard-response","323","442839","0.0-6.0-1.34","","<img src=""img/purple-n.png"">","null","trial","32","","0.8,0.2","1:go_a","0",""
"null","","html-keyboard-response","324","443842","0.0-6.0-2.34","","<div style=""font-size:60px;"">+</div>","null","","","","","","",""
"473.5799999907613","","image-keyboard-response","325","444316","0.0-6.0-0.35","","img/yellow.png","32","trial","32","true","0.6,0.4","3:go_c","",""
"null","","html-keyboard-response","326","445320","0.0-6.0-1.35","","<img src=""img/yellow-r.png"" border=""10"">","null","trial","32","","0.6,0.4","3:go_c","1",""
"null","","html-keyboard-response","327","446321","0.0-6.0-2.35","","<div style=""font-size:60px;"">+</div>","null","","","","","","",""
"673.880000016652","","image-keyboard-response","328","446996","0.0-6.0-0.36","","img/yellow.png","32","trial","32","true","0.6,0.4","3:go_c","",""
"null","","html-keyboard-response","329","448000","0.0-6.0-1.36","","<img src=""img/yellow-n.png"" border=""10"">","null","trial","32","","0.6,0.4","3:go_c","0",""
"null","","html-keyboard-response","330","449015","0.0-6.0-2.36","","<div style=""font-size:60px;"">+</div>","null","","","","","","",""
"627.7949999785051","","image-keyboard-response","331","449644","0.0-6.0-0.37","","img/purple.png","32","trial","32","true","0.8,0.2","1:go_a","",""
"null","","html-keyboard-response","332","450656","0.0-6.0-1.37","","<img src=""img/purple-r.png"" border=""10"">","null","trial","32","","0.8,0.2","1:go_a","1",""
"null","","html-keyboard-response","333","451661","0.0-6.0-2.37","","<div style=""font-size:60px;"">+</div>","null","","","","","","",""
"597.6249999948777","","image-keyboard-response","334","452260","0.0-6.0-0.38","","img/green.png","32","trial","null","false","0.2,0.8","2:nogo_b","",""
"null","","html-keyboard-response","335","453275","0.0-6.0-1.38","","<img src=""img/green-n.png"" border=""10"">","null","trial","null","","0.2,0.8","2:nogo_b","0",""
"null","","html-keyboard-response","336","454291","0.0-6.0-2.38","","<div style=""font-size:60px;"">+</div>","null","","","","","","",""
"672.0050000003539","","image-keyboard-response","337","454964","0.0-6.0-0.39","","img/blue.png","32","trial","null","false","0.4,0.6","4:nogo_d","",""
"null","","html-keyboard-response","338","455978","0.0-6.0-1.39","","<img src=""img/blue-r.png"" border=""10"">","null","trial","null","","0.4,0.6","4:nogo_d","1",""
"null","","html-keyboard-response","339","456994","0.0-6.0-2.39","","<div style=""font-size:60px;"">+</div>","null","","","","","","",""
"null","","image-keyboard-response","340","458499","0.0-6.0-0.40","","img/purple.png","null","trial","32","false","0.8,0.2","1:go_a","",""
"null","","html-keyboard-response","341","459503","0.0-6.0-1.40","","<img src=""img/purple-n.png"">","null","trial","32","","0.8,0.2","1:go_a","0",""
"null","","html-keyboard-response","342","460508","0.0-6.0-2.40","","<div style=""font-size:60px;"">+</div>","null","","","","","","",""
"null","","image-keyboard-response","343","462020","0.0-6.0-0.41","","img/blue.png","null","trial","null","true","0.4,0.6","4:nogo_d","",""
"null","","html-keyboard-response","344","463021","0.0-6.0-1.41","","<img src=""img/blue-r.png"">","null","trial","null","","0.4,0.6","4:nogo_d","1",""
"null","","html-keyboard-response","345","464024","0.0-6.0-2.41","","<div style=""font-size:60px;"">+</div>","null","","","","","","",""
"null","","image-keyboard-response","346","465538","0.0-6.0-0.42","","img/green.png","null","trial","null","true","0.2,0.8","2:nogo_b","",""
"null","","html-keyboard-response","347","466543","0.0-6.0-1.42","","<img src=""img/green-r.png"">","null","trial","null","","0.2,0.8","2:nogo_b","1",""
"null","","html-keyboard-response","348","467548","0.0-6.0-2.42","","<div style=""font-size:60px;"">+</div>","null","","","","","","",""
"542.650000017602","","image-keyboard-response","349","468092","0.0-6.0-0.43","","img/yellow.png","32","trial","32","true","0.6,0.4","3:go_c","",""
"null","","html-keyboard-response","350","469105","0.0-6.0-1.43","","<img src=""img/yellow-r.png"" border=""10"">","null","trial","32","","0.6,0.4","3:go_c","1",""
"null","","html-keyboard-response","351","470109","0.0-6.0-2.43","","<div style=""font-size:60px;"">+</div>","null","","","","","","",""
"1094.6249999979045","","image-keyboard-response","352","471204","0.0-6.0-0.44","","img/yellow.png","32","trial","32","true","0.6,0.4","3:go_c","",""
"null","","html-keyboard-response","353","472210","0.0-6.0-1.44","","<img src=""img/yellow-r.png"" border=""10"">","null","trial","32","","0.6,0.4","3:go_c","1",""
"null","","html-keyboard-response","354","473213","0.0-6.0-2.44","","<div style=""font-size:60px;"">+</div>","null","","","","","","",""
"629.9500000022817","","image-keyboard-response","355","473844","0.0-6.0-0.45","","img/green.png","32","trial","null","false","0.2,0.8","2:nogo_b","",""
"null","","html-keyboard-response","356","474859","0.0-6.0-1.45","","<img src=""img/green-r.png"" border=""10"">","null","trial","null","","0.2,0.8","2:nogo_b","1",""
"null","","html-keyboard-response","357","475872","0.0-6.0-2.45","","<div style=""font-size:60px;"">+</div>","null","","","","","","",""
"null","","image-keyboard-response","358","477379","0.0-6.0-0.46","","img/purple.png","null","trial","32","false","0.8,0.2","1:go_a","",""
"null","","html-keyboard-response","359","478395","0.0-6.0-1.46","","<img src=""img/purple-n.png"">","null","trial","32","","0.8,0.2","1:go_a","0",""
"null","","html-keyboard-response","360","479412","0.0-6.0-2.46","","<div style=""font-size:60px;"">+</div>","null","","","","","","",""
"null","","image-keyboard-response","361","480919","0.0-6.0-0.47","","img/blue.png","null","trial","null","true","0.4,0.6","4:nogo_d","",""
"null","","html-keyboard-response","362","481934","0.0-6.0-1.47","","<img src=""img/blue-r.png"">","null","trial","null","","0.4,0.6","4:nogo_d","1",""
"null","","html-keyboard-response","363","482935","0.0-6.0-2.47","","<div style=""font-size:60px;"">+</div>","null","","","","","","",""
"612.0499999960884","","image-keyboard-response","364","483548","0.0-6.0-0.48","","img/green.png","32","trial","null","false","0.2,0.8","2:nogo_b","",""
"null","","html-keyboard-response","365","484553","0.0-6.0-1.48","","<img src=""img/green-r.png"" border=""10"">","null","trial","null","","0.2,0.8","2:nogo_b","1",""
"null","","html-keyboard-response","366","485556","0.0-6.0-2.48","","<div style=""font-size:60px;"">+</div>","null","","","","","","",""
"782.7800000086427","","image-keyboard-response","367","486339","0.0-6.0-0.49","","img/blue.png","32","trial","null","false","0.4,0.6","4:nogo_d","",""
"null","","html-keyboard-response","368","487351","0.0-6.0-1.49","","<img src=""img/blue-n.png"" border=""10"">","null","trial","null","","0.4,0.6","4:nogo_d","0",""
"null","","html-keyboard-response","369","488357","0.0-6.0-2.49","","<div style=""font-size:60px;"">+</div>","null","","","","","","",""
"582.3450000025332","","image-keyboard-response","370","488940","0.0-6.0-0.50","","img/purple.png","32","trial","32","true","0.8,0.2","1:go_a","",""
"null","","html-keyboard-response","371","489952","0.0-6.0-1.50","","<img src=""img/purple-r.png"" border=""10"">","null","trial","32","","0.8,0.2","1:go_a","1",""
"null","","html-keyboard-response","372","490956","0.0-6.0-2.50","","<div style=""font-size:60px;"">+</div>","null","","","","","","",""
"735.3549999825191","","image-keyboard-response","373","491692","0.0-6.0-0.51","","img/yellow.png","32","trial","32","true","0.6,0.4","3:go_c","",""
"null","","html-keyboard-response","374","492704","0.0-6.0-1.51","","<img src=""img/yellow-r.png"" border=""10"">","null","trial","32","","0.6,0.4","3:go_c","1",""
"null","","html-keyboard-response","375","493705","0.0-6.0-2.51","","<div style=""font-size:60px;"">+</div>","null","","","","","","",""
"null","","image-keyboard-response","376","495219","0.0-6.0-0.52","","img/green.png","null","trial","null","true","0.2,0.8","2:nogo_b","",""
"null","","html-keyboard-response","377","496225","0.0-6.0-1.52","","<img src=""img/green-n.png"">","null","trial","null","","0.2,0.8","2:nogo_b","0",""
"null","","html-keyboard-response","378","497230","0.0-6.0-2.52","","<div style=""font-size:60px;"">+</div>","null","","","","","","",""
"725.2349999907892","","image-keyboard-response","379","497956","0.0-6.0-0.53","","img/yellow.png","32","trial","32","true","0.6,0.4","3:go_c","",""
"null","","html-keyboard-response","380","498965","0.0-6.0-1.53","","<img src=""img/yellow-n.png"" border=""10"">","null","trial","32","","0.6,0.4","3:go_c","0",""
"null","","html-keyboard-response","381","499971","0.0-6.0-2.53","","<div style=""font-size:60px;"">+</div>","null","","","","","","",""
"null","","image-keyboard-response","382","501481","0.0-6.0-0.54","","img/blue.png","null","trial","null","true","0.4,0.6","4:nogo_d","",""
"null","","html-keyboard-response","383","502484","0.0-6.0-1.54","","<img src=""img/blue-r.png"">","null","trial","null","","0.4,0.6","4:nogo_d","1",""
"null","","html-keyboard-response","384","503499","0.0-6.0-2.54","","<div style=""font-size:60px;"">+</div>","null","","","","","","",""
"671.795000002021","","image-keyboard-response","385","504172","0.0-6.0-0.55","","img/purple.png","32","trial","32","true","0.8,0.2","1:go_a","",""
"null","","html-keyboard-response","386","505174","0.0-6.0-1.55","","<img src=""img/purple-r.png"" border=""10"">","null","trial","32","","0.8,0.2","1:go_a","1",""
"null","","html-keyboard-response","387","506179","0.0-6.0-2.55","","<div style=""font-size:60px;"">+</div>","null","","","","","","",""
"1160.009999992326","","image-keyboard-response","388","507340","0.0-6.0-0.56","","img/green.png","32","trial","null","false","0.2,0.8","2:nogo_b","",""
"null","","html-keyboard-response","389","508353","0.0-6.0-1.56","","<img src=""img/green-n.png"" border=""10"">","null","trial","null","","0.2,0.8","2:nogo_b","0",""
"null","","html-keyboard-response","390","509366","0.0-6.0-2.56","","<div style=""font-size:60px;"">+</div>","null","","","","","","",""
"573.0550000153016","","image-keyboard-response","391","509940","0.0-6.0-0.57","","img/yellow.png","32","trial","32","true","0.6,0.4","3:go_c","",""
"null","","html-keyboard-response","392","510942","0.0-6.0-1.57","","<img src=""img/yellow-n.png"" border=""10"">","null","trial","32","","0.6,0.4","3:go_c","0",""
"null","","html-keyboard-response","393","511944","0.0-6.0-2.57","","<div style=""font-size:60px;"">+</div>","null","","","","","","",""
"610.9149999974761","","image-keyboard-response","394","512556","0.0-6.0-0.58","","img/blue.png","32","trial","null","false","0.4,0.6","4:nogo_d","",""
"null","","html-keyboard-response","395","513564","0.0-6.0-1.58","","<img src=""img/blue-n.png"" border=""10"">","null","trial","null","","0.4,0.6","4:nogo_d","0",""
"null","","html-keyboard-response","396","514565","0.0-6.0-2.58","","<div style=""font-size:60px;"">+</div>","null","","","","","","",""
"541.7500000039581","","image-keyboard-response","397","515107","0.0-6.0-0.59","","img/purple.png","32","trial","32","true","0.8,0.2","1:go_a","",""
"null","","html-keyboard-response","398","516123","0.0-6.0-1.59","","<img src=""img/purple-r.png"" border=""10"">","null","trial","32","","0.8,0.2","1:go_a","1",""
"null","","html-keyboard-response","399","517133","0.0-6.0-2.59","","<div style=""font-size:60px;"">+</div>","null","","","","","","",""
"773.3400000142865","","image-keyboard-response","400","517907","0.0-6.0-0.60","","img/yellow.png","32","trial","32","true","0.6,0.4","3:go_c","",""
"null","","html-keyboard-response","401","518923","0.0-6.0-1.60","","<img src=""img/yellow-n.png"" border=""10"">","null","trial","32","","0.6,0.4","3:go_c","0",""
"null","","html-keyboard-response","402","519933","0.0-6.0-2.60","","<div style=""font-size:60px;"">+</div>","null","","","","","","",""
"null","","image-keyboard-response","403","521440","0.0-6.0-0.61","","img/purple.png","null","trial","32","false","0.8,0.2","1:go_a","",""
"null","","html-keyboard-response","404","522453","0.0-6.0-1.61","","<img src=""img/purple-r.png"">","null","trial","32","","0.8,0.2","1:go_a","1",""
"null","","html-keyboard-response","405","523461","0.0-6.0-2.61","","<div style=""font-size:60px;"">+</div>","null","","","","","","",""
"638.2250000024214","","image-keyboard-response","406","524100","0.0-6.0-0.62","","img/green.png","32","trial","null","false","0.2,0.8","2:nogo_b","",""
"null","","html-keyboard-response","407","525103","0.0-6.0-1.62","","<img src=""img/green-n.png"" border=""10"">","null","trial","null","","0.2,0.8","2:nogo_b","0",""
"null","","html-keyboard-response","408","526115","0.0-6.0-2.62","","<div style=""font-size:60px;"">+</div>","null","","","","","","",""
"471.83500000392087","","image-keyboard-response","409","526587","0.0-6.0-0.63","","img/blue.png","32","trial","null","false","0.4,0.6","4:nogo_d","",""
"null","","html-keyboard-response","410","527589","0.0-6.0-1.63","","<img src=""img/blue-n.png"" border=""10"">","null","trial","null","","0.4,0.6","4:nogo_d","0",""
"null","","html-keyboard-response","411","528598","0.0-6.0-2.63","","<div style=""font-size:60px;"">+</div>","null","","","","","","",""
"460.9950000012759","","image-keyboard-response","412","529060","0.0-6.0-0.64","","img/green.png","32","trial","null","false","0.2,0.8","2:nogo_b","",""
"null","","html-keyboard-response","413","530076","0.0-6.0-1.64","","<img src=""img/green-n.png"" border=""10"">","null","trial","null","","0.2,0.8","2:nogo_b","0",""
"null","","html-keyboard-response","414","531077","0.0-6.0-2.64","","<div style=""font-size:60px;"">+</div>","null","","","","","","",""
"null","","image-keyboard-response","415","532579","0.0-6.0-0.65","","img/purple.png","null","trial","32","false","0.8,0.2","1:go_a","",""
"null","","html-keyboard-response","416","533594","0.0-6.0-1.65","","<img src=""img/purple-n.png"">","null","trial","32","","0.8,0.2","1:go_a","0",""
"null","","html-keyboard-response","417","534607","0.0-6.0-2.65","","<div style=""font-size:60px;"">+</div>","null","","","","","","",""
"556.4700000104494","","image-keyboard-response","418","535164","0.0-6.0-0.66","","img/yellow.png","32","trial","32","true","0.6,0.4","3:go_c","",""
"null","","html-keyboard-response","419","536170","0.0-6.0-1.66","","<img src=""img/yellow-n.png"" border=""10"">","null","trial","32","","0.6,0.4","3:go_c","0",""
"null","","html-keyboard-response","420","537177","0.0-6.0-2.66","","<div style=""font-size:60px;"">+</div>","null","","","","","","",""
"490.2799999981653","","image-keyboard-response","421","537667","0.0-6.0-0.67","","img/blue.png","32","trial","null","false","0.4,0.6","4:nogo_d","",""
"null","","html-keyboard-response","422","538674","0.0-6.0-1.67","","<img src=""img/blue-r.png"" border=""10"">","null","trial","null","","0.4,0.6","4:nogo_d","1",""
"null","","html-keyboard-response","423","539685","0.0-6.0-2.67","","<div style=""font-size:60px;"">+</div>","null","","","","","","",""
"638.4949999919627","","image-keyboard-response","424","540323","0.0-6.0-0.68","","img/green.png","32","trial","null","false","0.2,0.8","2:nogo_b","",""
"null","","html-keyboard-response","425","541331","0.0-6.0-1.68","","<img src=""img/green-n.png"" border=""10"">","null","trial","null","","0.2,0.8","2:nogo_b","0",""
"null","","html-keyboard-response","426","542337","0.0-6.0-2.68","","<div style=""font-size:60px;"">+</div>","null","","","","","","",""
"497.62000000919215","","image-keyboard-response","427","542835","0.0-6.0-0.69","","img/blue.png","32","trial","null","false","0.4,0.6","4:nogo_d","",""
"null","","html-keyboard-response","428","543845","0.0-6.0-1.69","","<img src=""img/blue-r.png"" border=""10"">","null","trial","null","","0.4,0.6","4:nogo_d","1",""
"null","","html-keyboard-response","429","544851","0.0-6.0-2.69","","<div style=""font-size:60px;"">+</div>","null","","","","","","",""
"736.4850000012666","","image-keyboard-response","430","545588","0.0-6.0-0.70","","img/purple.png","32","trial","32","true","0.8,0.2","1:go_a","",""
"null","","html-keyboard-response","431","546592","0.0-6.0-1.70","","<img src=""img/purple-r.png"" border=""10"">","null","trial","32","","0.8,0.2","1:go_a","1",""
"null","","html-keyboard-response","432","547601","0.0-6.0-2.70","","<div style=""font-size:60px;"">+</div>","null","","","","","","",""
"665.9249999793246","","image-keyboard-response","433","548268","0.0-6.0-0.71","","img/yellow.png","32","trial","32","true","0.6,0.4","3:go_c","",""
"null","","html-keyboard-response","434","549272","0.0-6.0-1.71","","<img src=""img/yellow-n.png"" border=""10"">","null","trial","32","","0.6,0.4","3:go_c","0",""
"null","","html-keyboard-response","435","550277","0.0-6.0-2.71","","<div style=""font-size:60px;"">+</div>","null","","","","","","",""
"822.020000021439","","image-keyboard-response","436","551100","0.0-6.0-0.72","","img/yellow.png","32","trial","32","true","0.6,0.4","3:go_c","",""
"null","","html-keyboard-response","437","552115","0.0-6.0-1.72","","<img src=""img/yellow-r.png"" border=""10"">","null","trial","32","","0.6,0.4","3:go_c","1",""
"null","","html-keyboard-response","438","553121","0.0-6.0-2.72","","<div style=""font-size:60px;"">+</div>","null","","","","","","",""
"753.7299999967217","","image-keyboard-response","439","553875","0.0-6.0-0.73","","img/purple.png","32","trial","32","true","0.8,0.2","1:go_a","",""
"null","","html-keyboard-response","440","554878","0.0-6.0-1.73","","<img src=""img/purple-r.png"" border=""10"">","null","trial","32","","0.8,0.2","1:go_a","1",""
"null","","html-keyboard-response","441","555892","0.0-6.0-2.73","","<div style=""font-size:60px;"">+</div>","null","","","","","","",""
"847.5000000034925","","image-keyboard-response","442","556740","0.0-6.0-0.74","","img/green.png","32","trial","null","false","0.2,0.8","2:nogo_b","",""
"null","","html-keyboard-response","443","557754","0.0-6.0-1.74","","<img src=""img/green-n.png"" border=""10"">","null","trial","null","","0.2,0.8","2:nogo_b","0",""
"null","","html-keyboard-response","444","558765","0.0-6.0-2.74","","<div style=""font-size:60px;"">+</div>","null","","","","","","",""
"846.0299999860581","","image-keyboard-response","445","559612","0.0-6.0-0.75","","img/blue.png","32","trial","null","false","0.4,0.6","4:nogo_d","",""
"null","","html-keyboard-response","446","560620","0.0-6.0-1.75","","<img src=""img/blue-r.png"" border=""10"">","null","trial","null","","0.4,0.6","4:nogo_d","1",""
"null","","html-keyboard-response","447","561622","0.0-6.0-2.75","","<div style=""font-size:60px;"">+</div>","null","","","","","","",""
"829.02499998454","","image-keyboard-response","448","562452","0.0-6.0-0.76","","img/yellow.png","32","trial","32","true","0.6,0.4","3:go_c","",""
"null","","html-keyboard-response","449","563467","0.0-6.0-1.76","","<img src=""img/yellow-r.png"" border=""10"">","null","trial","32","","0.6,0.4","3:go_c","1",""
"null","","html-keyboard-response","450","564476","0.0-6.0-2.76","","<div style=""font-size:60px;"">+</div>","null","","","","","","",""
"null","","image-keyboard-response","451","565987","0.0-6.0-0.77","","img/purple.png","null","trial","32","false","0.8,0.2","1:go_a","",""
"null","","html-keyboard-response","452","567002","0.0-6.0-1.77","","<img src=""img/purple-n.png"">","null","trial","32","","0.8,0.2","1:go_a","0",""
"null","","html-keyboard-response","453","568015","0.0-6.0-2.77","","<div style=""font-size:60px;"">+</div>","null","","","","","","",""
"null","","image-keyboard-response","454","569523","0.0-6.0-0.78","","img/green.png","null","trial","null","true","0.2,0.8","2:nogo_b","",""
"null","","html-keyboard-response","455","570536","0.0-6.0-1.78","","<img src=""img/green-r.png"">","null","trial","null","","0.2,0.8","2:nogo_b","1",""
"null","","html-keyboard-response","456","571543","0.0-6.0-2.78","","<div style=""font-size:60px;"">+</div>","null","","","","","","",""
"684.8649999883492","","image-keyboard-response","457","572228","0.0-6.0-0.79","","img/blue.png","32","trial","null","false","0.4,0.6","4:nogo_d","",""
"null","","html-keyboard-response","458","573242","0.0-6.0-1.79","","<img src=""img/blue-r.png"" border=""10"">","null","trial","null","","0.4,0.6","4:nogo_d","1",""
"null","","html-keyboard-response","459","574257","0.0-6.0-2.79","","<div style=""font-size:60px;"">+</div>","null","","","","","","",""
"809.8649999883492","","image-keyboard-response","460","575067","0.0-6.0-0.80","","img/yellow.png","32","trial","32","true","0.6,0.4","3:go_c","",""
"null","","html-keyboard-response","461","576079","0.0-6.0-1.80","","<img src=""img/yellow-n.png"" border=""10"">","null","trial","32","","0.6,0.4","3:go_c","0",""
"null","","html-keyboard-response","462","577083","0.0-6.0-2.80","","<div style=""font-size:60px;"">+</div>","null","","","","","","",""
"null","","image-keyboard-response","463","578597","0.0-6.0-0.81","","img/blue.png","null","trial","null","true","0.4,0.6","4:nogo_d","",""
"null","","html-keyboard-response","464","579602","0.0-6.0-1.81","","<img src=""img/blue-n.png"">","null","trial","null","","0.4,0.6","4:nogo_d","0",""
"null","","html-keyboard-response","465","580617","0.0-6.0-2.81","","<div style=""font-size:60px;"">+</div>","null","","","","","","",""
"625.7350000087172","","image-keyboard-response","466","581244","0.0-6.0-0.82","","img/purple.png","32","trial","32","true","0.8,0.2","1:go_a","",""
"null","","html-keyboard-response","467","582260","0.0-6.0-1.82","","<img src=""img/purple-r.png"" border=""10"">","null","trial","32","","0.8,0.2","1:go_a","1",""
"null","","html-keyboard-response","468","583262","0.0-6.0-2.82","","<div style=""font-size:60px;"">+</div>","null","","","","","","",""
"1284.9850000056904","","image-keyboard-response","469","584548","0.0-6.0-0.83","","img/green.png","32","trial","null","false","0.2,0.8","2:nogo_b","",""
"null","","html-keyboard-response","470","585558","0.0-6.0-1.83","","<img src=""img/green-r.png"" border=""10"">","null","trial","null","","0.2,0.8","2:nogo_b","1",""
"null","","html-keyboard-response","471","586563","0.0-6.0-2.83","","<div style=""font-size:60px;"">+</div>","null","","","","","","",""
"823.789999994915","","image-keyboard-response","472","587388","0.0-6.0-0.84","","img/blue.png","32","trial","null","false","0.4,0.6","4:nogo_d","",""
"null","","html-keyboard-response","473","588390","0.0-6.0-1.84","","<img src=""img/blue-n.png"" border=""10"">","null","trial","null","","0.4,0.6","4:nogo_d","0",""
"null","","html-keyboard-response","474","589394","0.0-6.0-2.84","","<div style=""font-size:60px;"">+</div>","null","","","","","","",""
"null","","image-keyboard-response","475","590902","0.0-6.0-0.85","","img/green.png","null","trial","null","true","0.2,0.8","2:nogo_b","",""
"null","","html-keyboard-response","476","591907","0.0-6.0-1.85","","<img src=""img/green-n.png"">","null","trial","null","","0.2,0.8","2:nogo_b","0",""
"null","","html-keyboard-response","477","592922","0.0-6.0-2.85","","<div style=""font-size:60px;"">+</div>","null","","","","","","",""
"552.7799999981653","","image-keyboard-response","478","593476","0.0-6.0-0.86","","img/purple.png","32","trial","32","true","0.8,0.2","1:go_a","",""
"null","","html-keyboard-response","479","594484","0.0-6.0-1.86","","<img src=""img/purple-r.png"" border=""10"">","null","trial","32","","0.8,0.2","1:go_a","1",""
"null","","html-keyboard-response","480","595490","0.0-6.0-2.86","","<div style=""font-size:60px;"">+</div>","null","","","","","","",""
"753.7149999989197","","image-keyboard-response","481","596244","0.0-6.0-0.87","","img/yellow.png","32","trial","32","true","0.6,0.4","3:go_c","",""
"null","","html-keyboard-response","482","597259","0.0-6.0-1.87","","<img src=""img/yellow-r.png"" border=""10"">","null","trial","32","","0.6,0.4","3:go_c","1",""
"null","","html-keyboard-response","483","598272","0.0-6.0-2.87","","<div style=""font-size:60px;"">+</div>","null","","","","","","",""
"1075.0700000207871","","image-keyboard-response","484","599348","0.0-6.0-0.88","","img/yellow.png","32","trial","32","true","0.6,0.4","3:go_c","",""
"null","","html-keyboard-response","485","600350","0.0-6.0-1.88","","<img src=""img/yellow-r.png"" border=""10"">","null","trial","32","","0.6,0.4","3:go_c","1",""
"null","","html-keyboard-response","486","601355","0.0-6.0-2.88","","<div style=""font-size:60px;"">+</div>","null","","","","","","",""
"null","","image-keyboard-response","487","602863","0.0-6.0-0.89","","img/purple.png","null","trial","32","false","0.8,0.2","1:go_a","",""
"null","","html-keyboard-response","488","603868","0.0-6.0-1.89","","<img src=""img/purple-n.png"">","null","trial","32","","0.8,0.2","1:go_a","0",""
"null","","html-keyboard-response","489","604874","0.0-6.0-2.89","","<div style=""font-size:60px;"">+</div>","null","","","","","","",""
"497.6549999846611","","image-keyboard-response","490","605372","0.0-6.0-0.90","","img/blue.png","32","trial","null","false","0.4,0.6","4:nogo_d","",""
"null","","html-keyboard-response","491","606387","0.0-6.0-1.90","","<img src=""img/blue-n.png"" border=""10"">","null","trial","null","","0.4,0.6","4:nogo_d","0",""
"null","","html-keyboard-response","492","607390","0.0-6.0-2.90","","<div style=""font-size:60px;"">+</div>","null","","","","","","",""
"677.6749999844469","","image-keyboard-response","493","608068","0.0-6.0-0.91","","img/green.png","32","trial","null","false","0.2,0.8","2:nogo_b","",""
"null","","html-keyboard-response","494","609078","0.0-6.0-1.91","","<img src=""img/green-r.png"" border=""10"">","null","trial","null","","0.2,0.8","2:nogo_b","1",""
"null","","html-keyboard-response","495","610094","0.0-6.0-2.91","","<div style=""font-size:60px;"">+</div>","null","","","","","","",""
"909.5250000245869","","image-keyboard-response","496","611004","0.0-6.0-0.92","","img/purple.png","32","trial","32","true","0.8,0.2","1:go_a","",""
"null","","html-keyboard-response","497","612007","0.0-6.0-1.92","","<img src=""img/purple-r.png"" border=""10"">","null","trial","32","","0.8,0.2","1:go_a","1",""
"null","","html-keyboard-response","498","613011","0.0-6.0-2.92","","<div style=""font-size:60px;"">+</div>","null","","","","","","",""
"null","","image-keyboard-response","499","614524","0.0-6.0-0.93","","img/green.png","null","trial","null","true","0.2,0.8","2:nogo_b","",""
"null","","html-keyboard-response","500","615540","0.0-6.0-1.93","","<img src=""img/green-r.png"">","null","trial","null","","0.2,0.8","2:nogo_b","1",""
"null","","html-keyboard-response","501","616556","0.0-6.0-2.93","","<div style=""font-size:60px;"">+</div>","null","","","","","","",""
"null","","image-keyboard-response","502","618070","0.0-6.0-0.94","","img/blue.png","null","trial","null","true","0.4,0.6","4:nogo_d","",""
"null","","html-keyboard-response","503","619075","0.0-6.0-1.94","","<img src=""img/blue-n.png"">","null","trial","null","","0.4,0.6","4:nogo_d","0",""
"null","","html-keyboard-response","504","620081","0.0-6.0-2.94","","<div style=""font-size:60px;"">+</div>","null","","","","","","",""
"706.4549999777228","","image-keyboard-response","505","620788","0.0-6.0-0.95","","img/yellow.png","32","trial","32","true","0.6,0.4","3:go_c","",""
"null","","html-keyboard-response","506","621804","0.0-6.0-1.95","","<img src=""img/yellow-r.png"" border=""10"">","null","trial","32","","0.6,0.4","3:go_c","1",""
"null","","html-keyboard-response","507","622809","0.0-6.0-2.95","","<div style=""font-size:60px;"">+</div>","null","","","","","","",""
"722.669999988284","","image-keyboard-response","508","623532","0.0-6.0-0.96","","img/purple.png","32","trial","32","true","0.8,0.2","1:go_a","",""
"null","","html-keyboard-response","509","624539","0.0-6.0-1.96","","<img src=""img/purple-r.png"" border=""10"">","null","trial","32","","0.8,0.2","1:go_a","1",""
"null","","html-keyboard-response","510","625540","0.0-6.0-2.96","","<div style=""font-size:60px;"">+</div>","null","","","","","","",""
"950.8400000049733","","image-keyboard-response","511","626492","0.0-6.0-0.97","","img/green.png","32","trial","null","false","0.2,0.8","2:nogo_b","",""
"null","","html-keyboard-response","512","627497","0.0-6.0-1.97","","<img src=""img/green-n.png"" border=""10"">","null","trial","null","","0.2,0.8","2:nogo_b","0",""
"null","","html-keyboard-response","513","628500","0.0-6.0-2.97","","<div style=""font-size:60px;"">+</div>","null","","","","","","",""
"662.9200000024866","","image-keyboard-response","514","629164","0.0-6.0-0.98","","img/blue.png","32","trial","null","false","0.4,0.6","4:nogo_d","",""
"null","","html-keyboard-response","515","630174","0.0-6.0-1.98","","<img src=""img/blue-n.png"" border=""10"">","null","trial","null","","0.4,0.6","4:nogo_d","0",""
"null","","html-keyboard-response","516","631176","0.0-6.0-2.98","","<div style=""font-size:60px;"">+</div>","null","","","","","","",""
"811.0300000116695","","image-keyboard-response","517","631988","0.0-6.0-0.99","","img/yellow.png","32","trial","32","true","0.6,0.4","3:go_c","",""
"null","","html-keyboard-response","518","632989","0.0-6.0-1.99","","<img src=""img/yellow-r.png"" border=""10"">","null","trial","32","","0.6,0.4","3:go_c","1",""
"null","","html-keyboard-response","519","633993","0.0-6.0-2.99","","<div style=""font-size:60px;"">+</div>","null","","","","","","",""
"null","","image-keyboard-response","520","635509","0.0-6.0-0.100","","img/yellow.png","null","trial","32","false","0.6,0.4","3:go_c","",""
"null","","html-keyboard-response","521","636513","0.0-6.0-1.100","","<img src=""img/yellow-r.png"">","null","trial","32","","0.6,0.4","3:go_c","1",""
"null","","html-keyboard-response","522","637516","0.0-6.0-2.100","","<div style=""font-size:60px;"">+</div>","null","","","","","","",""
"694.935000006808","","image-keyboard-response","523","638212","0.0-6.0-0.101","","img/purple.png","32","trial","32","true","0.8,0.2","1:go_a","",""
"null","","html-keyboard-response","524","639223","0.0-6.0-1.101","","<img src=""img/purple-r.png"" border=""10"">","null","trial","32","","0.8,0.2","1:go_a","1",""
"null","","html-keyboard-response","525","640226","0.0-6.0-2.101","","<div style=""font-size:60px;"">+</div>","null","","","","","","",""
"null","","image-keyboard-response","526","641740","0.0-6.0-0.102","","img/blue.png","null","trial","null","true","0.4,0.6","4:nogo_d","",""
"null","","html-keyboard-response","527","642741","0.0-6.0-1.102","","<img src=""img/blue-r.png"">","null","trial","null","","0.4,0.6","4:nogo_d","1",""
"null","","html-keyboard-response","528","643743","0.0-6.0-2.102","","<div style=""font-size:60px;"">+</div>","null","","","","","","",""
"null","","image-keyboard-response","529","645256","0.0-6.0-0.103","","img/green.png","null","trial","null","true","0.2,0.8","2:nogo_b","",""
"null","","html-keyboard-response","530","646262","0.0-6.0-1.103","","<img src=""img/green-n.png"">","null","trial","null","","0.2,0.8","2:nogo_b","0",""
"null","","html-keyboard-response","531","647267","0.0-6.0-2.103","","<div style=""font-size:60px;"">+</div>","null","","","","","","",""
"664.1900000104215","","image-keyboard-response","532","647932","0.0-6.0-0.104","","img/yellow.png","32","trial","32","true","0.6,0.4","3:go_c","",""
"null","","html-keyboard-response","533","648940","0.0-6.0-1.104","","<img src=""img/yellow-r.png"" border=""10"">","null","trial","32","","0.6,0.4","3:go_c","1",""
"null","","html-keyboard-response","534","649944","0.0-6.0-2.104","","<div style=""font-size:60px;"">+</div>","null","","","","","","",""
"1003.2000000064727","","image-keyboard-response","535","650948","0.0-6.0-0.105","","img/green.png","32","trial","null","false","0.2,0.8","2:nogo_b","",""
"null","","html-keyboard-response","536","651955","0.0-6.0-1.105","","<img src=""img/green-r.png"" border=""10"">","null","trial","null","","0.2,0.8","2:nogo_b","1",""
"null","","html-keyboard-response","537","652958","0.0-6.0-2.105","","<div style=""font-size:60px;"">+</div>","null","","","","","","",""
"1221.1249999818392","","image-keyboard-response","538","654180","0.0-6.0-0.106","","img/blue.png","32","trial","null","false","0.4,0.6","4:nogo_d","",""
"null","","html-keyboard-response","539","655182","0.0-6.0-1.106","","<img src=""img/blue-r.png"" border=""10"">","null","trial","null","","0.4,0.6","4:nogo_d","1",""
"null","","html-keyboard-response","540","656198","0.0-6.0-2.106","","<div style=""font-size:60px;"">+</div>","null","","","","","","",""
"828.7549999949988","","image-keyboard-response","541","657028","0.0-6.0-0.107","","img/purple.png","32","trial","32","true","0.8,0.2","1:go_a","",""
"null","","html-keyboard-response","542","658029","0.0-6.0-1.107","","<img src=""img/purple-r.png"" border=""10"">","null","trial","32","","0.8,0.2","1:go_a","1",""
"null","","html-keyboard-response","543","659046","0.0-6.0-2.107","","<div style=""font-size:60px;"">+</div>","null","","","","","","",""
"null","","image-keyboard-response","544","660554","0.0-6.0-0.108","","img/blue.png","null","trial","null","true","0.4,0.6","4:nogo_d","",""
"null","","html-keyboard-response","545","661559","0.0-6.0-1.108","","<img src=""img/blue-n.png"">","null","trial","null","","0.4,0.6","4:nogo_d","0",""
"null","","html-keyboard-response","546","662560","0.0-6.0-2.108","","<div style=""font-size:60px;"">+</div>","null","","","","","","",""
"811.1400000052527","","image-keyboard-response","547","663372","0.0-6.0-0.109","","img/green.png","32","trial","null","false","0.2,0.8","2:nogo_b","",""
"null","","html-keyboard-response","548","664387","0.0-6.0-1.109","","<img src=""img/green-n.png"" border=""10"">","null","trial","null","","0.2,0.8","2:nogo_b","0",""
"null","","html-keyboard-response","549","665391","0.0-6.0-2.109","","<div style=""font-size:60px;"">+</div>","null","","","","","","",""
"null","","image-keyboard-response","550","666905","0.0-6.0-0.110","","img/yellow.png","null","trial","32","false","0.6,0.4","3:go_c","",""
"null","","html-keyboard-response","551","667910","0.0-6.0-1.110","","<img src=""img/yellow-n.png"">","null","trial","32","","0.6,0.4","3:go_c","0",""
"null","","html-keyboard-response","552","668911","0.0-6.0-2.110","","<div style=""font-size:60px;"">+</div>","null","","","","","","",""
"683.7700000032783","","image-keyboard-response","553","669596","0.0-6.0-0.111","","img/purple.png","32","trial","32","true","0.8,0.2","1:go_a","",""
"null","","html-keyboard-response","554","670613","0.0-6.0-1.111","","<img src=""img/purple-r.png"" border=""10"">","null","trial","32","","0.8,0.2","1:go_a","1",""
"null","","html-keyboard-response","555","671618","0.0-6.0-2.111","","<div style=""font-size:60px;"">+</div>","null","","","","","","",""
"944.9850000091828","","image-keyboard-response","556","672564","0.0-6.0-0.112","","img/green.png","32","trial","null","false","0.2,0.8","2:nogo_b","",""
"null","","html-keyboard-response","557","673580","0.0-6.0-1.112","","<img src=""img/green-r.png"" border=""10"">","null","trial","null","","0.2,0.8","2:nogo_b","1",""
"null","","html-keyboard-response","558","674582","0.0-6.0-2.112","","<div style=""font-size:60px;"">+</div>","null","","","","","","",""
"null","","image-keyboard-response","559","676098","0.0-6.0-0.113","","img/purple.png","null","trial","32","false","0.8,0.2","1:go_a","",""
"null","","html-keyboard-response","560","677099","0.0-6.0-1.113","","<img src=""img/purple-n.png"">","null","trial","32","","0.8,0.2","1:go_a","0",""
"null","","html-keyboard-response","561","678102","0.0-6.0-2.113","","<div style=""font-size:60px;"">+</div>","null","","","","","","",""
"null","","image-keyboard-response","562","679608","0.0-6.0-0.114","","img/blue.png","null","trial","null","true","0.4,0.6","4:nogo_d","",""
"null","","html-keyboard-response","563","680613","0.0-6.0-1.114","","<img src=""img/blue-n.png"">","null","trial","null","","0.4,0.6","4:nogo_d","0",""
"null","","html-keyboard-response","564","681618","0.0-6.0-2.114","","<div style=""font-size:60px;"">+</div>","null","","","","","","",""
"568.794999999227","","image-keyboard-response","565","682188","0.0-6.0-0.115","","img/yellow.png","32","trial","32","true","0.6,0.4","3:go_c","",""
"null","","html-keyboard-response","566","683192","0.0-6.0-1.115","","<img src=""img/yellow-r.png"" border=""10"">","null","trial","32","","0.6,0.4","3:go_c","1",""
"null","","html-keyboard-response","567","684207","0.0-6.0-2.115","","<div style=""font-size:60px;"">+</div>","null","","","","","","",""
"null","","image-keyboard-response","568","685719","0.0-6.0-0.116","","img/green.png","null","trial","null","true","0.2,0.8","2:nogo_b","",""
"null","","html-keyboard-response","569","686725","0.0-6.0-1.116","","<img src=""img/green-n.png"">","null","trial","null","","0.2,0.8","2:nogo_b","0",""
"null","","html-keyboard-response","570","687730","0.0-6.0-2.116","","<div style=""font-size:60px;"">+</div>","null","","","","","","",""
"553.3099999884143","","image-keyboard-response","571","688284","0.0-6.0-0.117","","img/purple.png","32","trial","32","true","0.8,0.2","1:go_a","",""
"null","","html-keyboard-response","572","689286","0.0-6.0-1.117","","<img src=""img/purple-r.png"" border=""10"">","null","trial","32","","0.8,0.2","1:go_a","1",""
"null","","html-keyboard-response","573","690301","0.0-6.0-2.117","","<div style=""font-size:60px;"">+</div>","null","","","","","","",""
"901.8550000037067","","image-keyboard-response","574","691204","0.0-6.0-0.118","","img/yellow.png","32","trial","32","true","0.6,0.4","3:go_c","",""
"null","","html-keyboard-response","575","692212","0.0-6.0-1.118","","<img src=""img/yellow-r.png"" border=""10"">","null","trial","32","","0.6,0.4","3:go_c","1",""
"null","","html-keyboard-response","576","693227","0.0-6.0-2.118","","<div style=""font-size:60px;"">+</div>","null","","","","","","",""
"759.8799999977928","","image-keyboard-response","577","693988","0.0-6.0-0.119","","img/blue.png","32","trial","null","false","0.4,0.6","4:nogo_d","",""
"null","","html-keyboard-response","578","694996","0.0-6.0-1.119","","<img src=""img/blue-n.png"" border=""10"">","null","trial","null","","0.4,0.6","4:nogo_d","0",""
"null","","html-keyboard-response","579","695998","0.0-6.0-2.119","","<div style=""font-size:60px;"">+</div>","null","","","","","","",""
"13619.139999995241","","instructions","580","709617","0.0-7.0","[{""page_index"":0,""viewing_time"":13619.034999981523}]","","","","","","","","",""
"921.440000005532","","image-keyboard-response","581","710540","0.0-8.0-0.0","","img/grey.png","32","trial","32","true","0.8,0.2","1:go_a","",""
"null","","html-keyboard-response","582","711546","0.0-8.0-1.0","","<img src=""img/grey-r.png"" border=""10"">","null","trial","32","","0.8,0.2","1:go_a","1",""
"null","","html-keyboard-response","583","712555","0.0-8.0-2.0","","<div style=""font-size:60px;"">+</div>","null","","","","","","",""
"839.6749999956228","","image-keyboard-response","584","713395","0.0-8.0-0.1","","img/red.png","32","trial","null","false","0.2,0.8","2:nogo_b","",""
"null","","html-keyboard-response","585","714398","0.0-8.0-1.1","","<img src=""img/red-n.png"" border=""10"">","null","trial","null","","0.2,0.8","2:nogo_b","0",""
"null","","html-keyboard-response","586","715399","0.0-8.0-2.1","","<div style=""font-size:60px;"">+</div>","null","","","","","","",""
"907.8149999841116","","image-keyboard-response","587","716308","0.0-8.0-0.2","","img/orange.png","32","trial","32","true","0.8,0.2","3:go_c","",""
"null","","html-keyboard-response","588","717314","0.0-8.0-1.2","","<img src=""img/orange-r.png"" border=""10"">","null","trial","32","","0.8,0.2","3:go_c","1",""
"null","","html-keyboard-response","589","718318","0.0-8.0-2.2","","<div style=""font-size:60px;"">+</div>","null","","","","","","",""
"877.4900000134949","","image-keyboard-response","590","719196","0.0-8.0-0.3","","img/blue.png","32","trial","null","false","0.2,0.8","4:nogo_d","",""
"null","","html-keyboard-response","591","720212","0.0-8.0-1.3","","<img src=""img/blue-r.png"" border=""10"">","null","trial","null","","0.2,0.8","4:nogo_d","1",""
"null","","html-keyboard-response","592","721227","0.0-8.0-2.3","","<div style=""font-size:60px;"">+</div>","null","","","","","","",""
"1024.1099999984726","","image-keyboard-response","593","722252","0.0-8.0-0.4","","img/orange.png","32","trial","32","true","0.8,0.2","3:go_c","",""
"null","","html-keyboard-response","594","723259","0.0-8.0-1.4","","<img src=""img/orange-r.png"" border=""10"">","null","trial","32","","0.8,0.2","3:go_c","1",""
"null","","html-keyboard-response","595","724267","0.0-8.0-2.4","","<div style=""font-size:60px;"">+</div>","null","","","","","","",""
"null","","image-keyboard-response","596","725772","0.0-8.0-0.5","","img/grey.png","null","trial","32","false","0.8,0.2","1:go_a","",""
"null","","html-keyboard-response","597","726779","0.0-8.0-1.5","","<img src=""img/grey-n.png"">","null","trial","32","","0.8,0.2","1:go_a","0",""
"null","","html-keyboard-response","598","727784","0.0-8.0-2.5","","<div style=""font-size:60px;"">+</div>","null","","","","","","",""
"null","","image-keyboard-response","599","729289","0.0-8.0-0.6","","img/blue.png","null","trial","null","true","0.2,0.8","4:nogo_d","",""
"null","","html-keyboard-response","600","730301","0.0-8.0-1.6","","<img src=""img/blue-r.png"">","null","trial","null","","0.2,0.8","4:nogo_d","1",""
"null","","html-keyboard-response","601","731315","0.0-8.0-2.6","","<div style=""font-size:60px;"">+</div>","null","","","","","","",""
"568.5550000052899","","image-keyboard-response","602","731884","0.0-8.0-0.7","","img/red.png","32","trial","null","false","0.2,0.8","2:nogo_b","",""
"null","","html-keyboard-response","603","732887","0.0-8.0-1.7","","<img src=""img/red-n.png"" border=""10"">","null","trial","null","","0.2,0.8","2:nogo_b","0",""
"null","","html-keyboard-response","604","733896","0.0-8.0-2.7","","<div style=""font-size:60px;"">+</div>","null","","","","","","",""
"null","","image-keyboard-response","605","735398","0.0-8.0-0.8","","img/red.png","null","trial","null","true","0.2,0.8","2:nogo_b","",""
"null","","html-keyboard-response","606","736413","0.0-8.0-1.8","","<img src=""img/red-r.png"">","null","trial","null","","0.2,0.8","2:nogo_b","1",""
"null","","html-keyboard-response","607","737421","0.0-8.0-2.8","","<div style=""font-size:60px;"">+</div>","null","","","","","","",""
"558.3850000111852","","image-keyboard-response","608","737980","0.0-8.0-0.9","","img/orange.png","32","trial","32","true","0.8,0.2","3:go_c","",""
"null","","html-keyboard-response","609","738994","0.0-8.0-1.9","","<img src=""img/orange-r.png"" border=""10"">","null","trial","32","","0.8,0.2","3:go_c","1",""
"null","","html-keyboard-response","610","740009","0.0-8.0-2.9","","<div style=""font-size:60px;"">+</div>","null","","","","","","",""
"697.8699999745004","","image-keyboard-response","611","740708","0.0-8.0-0.10","","img/grey.png","32","trial","32","true","0.8,0.2","1:go_a","",""
"null","","html-keyboard-response","612","741723","0.0-8.0-1.10","","<img src=""img/grey-n.png"" border=""10"">","null","trial","32","","0.8,0.2","1:go_a","0",""
"null","","html-keyboard-response","613","742732","0.0-8.0-2.10","","<div style=""font-size:60px;"">+</div>","null","","","","","","",""
"null","","image-keyboard-response","614","744247","0.0-8.0-0.11","","img/blue.png","null","trial","null","true","0.2,0.8","4:nogo_d","",""
"null","","html-keyboard-response","615","745248","0.0-8.0-1.11","","<img src=""img/blue-r.png"">","null","trial","null","","0.2,0.8","4:nogo_d","1",""
"null","","html-keyboard-response","616","746262","0.0-8.0-2.11","","<div style=""font-size:60px;"">+</div>","null","","","","","","",""
"764.965000009397","","image-keyboard-response","617","747028","0.0-8.0-0.12","","img/red.png","32","trial","null","false","0.2,0.8","2:nogo_b","",""
"null","","html-keyboard-response","618","748040","0.0-8.0-1.12","","<img src=""img/red-n.png"" border=""10"">","null","trial","null","","0.2,0.8","2:nogo_b","0",""
"null","","html-keyboard-response","619","749044","0.0-8.0-2.12","","<div style=""font-size:60px;"">+</div>","null","","","","","","",""
"647.4199999938719","","image-keyboard-response","620","749692","0.0-8.0-0.13","","img/orange.png","32","trial","32","true","0.8,0.2","3:go_c","",""
"null","","html-keyboard-response","621","750699","0.0-8.0-1.13","","<img src=""img/orange-r.png"" border=""10"">","null","trial","32","","0.8,0.2","3:go_c","1",""
"null","","html-keyboard-response","622","751711","0.0-8.0-2.13","","<div style=""font-size:60px;"">+</div>","null","","","","","","",""
"772.57999998983","","image-keyboard-response","623","752484","0.0-8.0-0.14","","img/grey.png","32","trial","32","true","0.8,0.2","1:go_a","",""
"null","","html-keyboard-response","624","753487","0.0-8.0-1.14","","<img src=""img/grey-r.png"" border=""10"">","null","trial","32","","0.8,0.2","1:go_a","1",""
"null","","html-keyboard-response","625","754501","0.0-8.0-2.14","","<div style=""font-size:60px;"">+</div>","null","","","","","","",""
"742.7000000025146","","image-keyboard-response","626","755244","0.0-8.0-0.15","","img/blue.png","32","trial","null","false","0.2,0.8","4:nogo_d","",""
"null","","html-keyboard-response","627","756257","0.0-8.0-1.15","","<img src=""img/blue-n.png"" border=""10"">","null","trial","null","","0.2,0.8","4:nogo_d","0",""
"null","","html-keyboard-response","628","757260","0.0-8.0-2.15","","<div style=""font-size:60px;"">+</div>","null","","","","","","",""
"798.8550000009127","","image-keyboard-response","629","758060","0.0-8.0-0.16","","img/blue.png","32","trial","null","false","0.2,0.8","4:nogo_d","",""
"null","","html-keyboard-response","630","759071","0.0-8.0-1.16","","<img src=""img/blue-n.png"" border=""10"">","null","trial","null","","0.2,0.8","4:nogo_d","0",""
"null","","html-keyboard-response","631","760077","0.0-8.0-2.16","","<div style=""font-size:60px;"">+</div>","null","","","","","","",""
"742.7949999982957","","image-keyboard-response","632","760820","0.0-8.0-0.17","","img/grey.png","32","trial","32","true","0.8,0.2","1:go_a","",""
"null","","html-keyboard-response","633","761828","0.0-8.0-1.17","","<img src=""img/grey-r.png"" border=""10"">","null","trial","32","","0.8,0.2","1:go_a","1",""
"null","","html-keyboard-response","634","762833","0.0-8.0-2.17","","<div style=""font-size:60px;"">+</div>","null","","","","","","",""
"null","","image-keyboard-response","635","764340","0.0-8.0-0.18","","img/red.png","null","trial","null","true","0.2,0.8","2:nogo_b","",""
"null","","html-keyboard-response","636","765342","0.0-8.0-1.18","","<img src=""img/red-r.png"">","null","trial","null","","0.2,0.8","2:nogo_b","1",""
"null","","html-keyboard-response","637","766343","0.0-8.0-2.18","","<div style=""font-size:60px;"">+</div>","null","","","","","","",""
"468.1849999760743","","image-keyboard-response","638","766812","0.0-8.0-0.19","","img/orange.png","32","trial","32","true","0.8,0.2","3:go_c","",""
"null","","html-keyboard-response","639","767827","0.0-8.0-1.19","","<img src=""img/orange-r.png"" border=""10"">","null","trial","32","","0.8,0.2","3:go_c","1",""
"null","","html-keyboard-response","640","768832","0.0-8.0-2.19","","<div style=""font-size:60px;"">+</div>","null","","","","","","",""
"658.7949999957345","","image-keyboard-response","641","769492","0.0-8.0-0.20","","img/red.png","32","trial","null","false","0.2,0.8","2:nogo_b","",""
"null","","html-keyboard-response","642","770506","0.0-8.0-1.20","","<img src=""img/red-n.png"" border=""10"">","null","trial","null","","0.2,0.8","2:nogo_b","0",""
"null","","html-keyboard-response","643","771511","0.0-8.0-2.20","","<div style=""font-size:60px;"">+</div>","null","","","","","","",""
"716.2950000201818","","image-keyboard-response","644","772228","0.0-8.0-0.21","","img/blue.png","32","trial","null","false","0.2,0.8","4:nogo_d","",""
"null","","html-keyboard-response","645","773244","0.0-8.0-1.21","","<img src=""img/blue-n.png"" border=""10"">","null","trial","null","","0.2,0.8","4:nogo_d","0",""
"null","","html-keyboard-response","646","774260","0.0-8.0-2.21","","<div style=""font-size:60px;"">+</div>","null","","","","","","",""
"543.3750000083819","","image-keyboard-response","647","774804","0.0-8.0-0.22","","img/grey.png","32","trial","32","true","0.8,0.2","1:go_a","",""
"null","","html-keyboard-response","648","775820","0.0-8.0-1.22","","<img src=""img/grey-r.png"" border=""10"">","null","trial","32","","0.8,0.2","1:go_a","1",""
"null","","html-keyboard-response","649","776835","0.0-8.0-2.22","","<div style=""font-size:60px;"">+</div>","null","","","","","","",""
"null","","image-keyboard-response","650","778348","0.0-8.0-0.23","","img/orange.png","null","trial","32","false","0.8,0.2","3:go_c","",""
"null","","html-keyboard-response","651","779351","0.0-8.0-1.23","","<img src=""img/orange-n.png"">","null","trial","32","","0.8,0.2","3:go_c","0",""
"null","","html-keyboard-response","652","780367","0.0-8.0-2.23","","<div style=""font-size:60px;"">+</div>","null","","","","","","",""
"null","","image-keyboard-response","653","781883","0.0-8.0-0.24","","img/blue.png","null","trial","null","true","0.2,0.8","4:nogo_d","",""
"null","","html-keyboard-response","654","782887","0.0-8.0-1.24","","<img src=""img/blue-n.png"">","null","trial","null","","0.2,0.8","4:nogo_d","0",""
"null","","html-keyboard-response","655","783889","0.0-8.0-2.24","","<div style=""font-size:60px;"">+</div>","null","","","","","","",""
"850.4950000206009","","image-keyboard-response","656","784740","0.0-8.0-0.25","","img/red.png","32","trial","null","false","0.2,0.8","2:nogo_b","",""
"null","","html-keyboard-response","657","785752","0.0-8.0-1.25","","<img src=""img/red-n.png"" border=""10"">","null","trial","null","","0.2,0.8","2:nogo_b","0",""
"null","","html-keyboard-response","658","786753","0.0-8.0-2.25","","<div style=""font-size:60px;"">+</div>","null","","","","","","",""
"null","","image-keyboard-response","659","788265","0.0-8.0-0.26","","img/orange.png","null","trial","32","false","0.8,0.2","3:go_c","",""
"null","","html-keyboard-response","660","789267","0.0-8.0-1.26","","<img src=""img/orange-n.png"">","null","trial","32","","0.8,0.2","3:go_c","0",""
"null","","html-keyboard-response","661","790282","0.0-8.0-2.26","","<div style=""font-size:60px;"">+</div>","null","","","","","","",""
"529.3850000016391","","image-keyboard-response","662","790812","0.0-8.0-0.27","","img/grey.png","32","trial","32","true","0.8,0.2","1:go_a","",""
"null","","html-keyboard-response","663","791814","0.0-8.0-1.27","","<img src=""img/grey-r.png"" border=""10"">","null","trial","32","","0.8,0.2","1:go_a","1",""
"null","","html-keyboard-response","664","792819","0.0-8.0-2.27","","<div style=""font-size:60px;"">+</div>","null","","","","","","",""
"576.1499999789521","","image-keyboard-response","665","793396","0.0-8.0-0.28","","img/grey.png","32","trial","32","true","0.8,0.2","1:go_a","",""
"null","","html-keyboard-response","666","794412","0.0-8.0-1.28","","<img src=""img/grey-r.png"" border=""10"">","null","trial","32","","0.8,0.2","1:go_a","1",""
"null","","html-keyboard-response","667","795427","0.0-8.0-2.28","","<div style=""font-size:60px;"">+</div>","null","","","","","","",""
"728.3400000014808","","image-keyboard-response","668","796156","0.0-8.0-0.29","","img/orange.png","32","trial","32","true","0.8,0.2","3:go_c","",""
"null","","html-keyboard-response","669","797162","0.0-8.0-1.29","","<img src=""img/orange-n.png"" border=""10"">","null","trial","32","","0.8,0.2","3:go_c","0",""
"null","","html-keyboard-response","670","798177","0.0-8.0-2.29","","<div style=""font-size:60px;"">+</div>","null","","","","","","",""
