"rt","url","trial_type","trial_index","time_elapsed","internal_node_id","view_history","stimulus","key_press","test_part","correct_response","correct","use_rew","which_stim","reward","responses"
"3987","consent.html","external-html","0","4055","0.0-0.0","","","","","","","","","",""
"56918","","instructions","1","60974","0.0-1.0","[{""page_index"":0,""viewing_time"":1369},{""page_index"":1,""viewing_time"":19816},{""page_index"":2,""viewing_time"":2912},{""page_index"":3,""viewing_time"":16106},{""page_index"":4,""viewing_time"":7681},{""page_index"":5,""viewing_time"":1784},{""page_index"":6,""viewing_time"":7249}]","","","","","","","","",""
"null","","image-keyboard-response","2","62475","0.0-2.0-0.0","","img/test3.PNG","null","practice","null","true","","","",""
"null","","html-keyboard-response","3","63478","0.0-2.0-1.0","","<img src=""img/test3-reward.PNG"">","null","","","","","","",""
"null","","html-keyboard-response","4","64478","0.0-2.0-2.0","","<div style=""font-size:60px;"">+</div>","null","","","","","","",""
"null","","image-keyboard-response","5","65979","0.0-2.0-0.1","","img/test2.PNG","null","practice","null","true","","","",""
"null","","html-keyboard-response","6","66980","0.0-2.0-1.1","","<img src=""img/test2-reward.PNG"">","null","","","","","","",""
"null","","html-keyboard-response","7","67981","0.0-2.0-2.1","","<div style=""font-size:60px;"">+</div>","null","","","","","","",""
"326","","image-keyboard-response","8","68307","0.0-2.0-0.2","","img/test1.PNG","32","practice","32","true","","","",""
"null","","html-keyboard-response","9","69308","0.0-2.0-1.2","","<img src=""img/test1-reward.PNG"" border=""10px; grey"">","null","","","","","","",""
"null","","html-keyboard-response","10","70309","0.0-2.0-2.2","","<div style=""font-size:60px;"">+</div>","null","","","","","","",""
"null","","image-keyboard-response","11","71810","0.0-2.0-0.3","","img/test3.PNG","null","practice","null","true","","","",""
"null","","html-keyboard-response","12","72812","0.0-2.0-1.3","","<img src=""img/test3-reward.PNG"">","null","","","","","","",""
"null","","html-keyboard-response","13","73813","0.0-2.0-2.3","","<div style=""font-size:60px;"">+</div>","null","","","","","","",""
"326","","image-keyboard-response","14","74139","0.0-2.0-0.4","","img/test1.PNG","32","practice","32","true","","","",""
"null","","html-keyboard-response","15","75141","0.0-2.0-1.4","","<img src=""img/test1-reward.PNG"" border=""10px; grey"">","null","","","","","","",""
"null","","html-keyboard-response","16","76142","0.0-2.0-2.4","","<div style=""font-size:60px;"">+</div>","null","","","","","","",""
"null","","image-keyboard-response","17","77643","0.0-2.0-0.5","","img/test2.PNG","null","practice","null","true","","","",""
"null","","html-keyboard-response","18","78643","0.0-2.0-1.5","","<img src=""img/test2-reward.PNG"">","null","","","","","","",""
"null","","html-keyboard-response","19","79646","0.0-2.0-2.5","","<div style=""font-size:60px;"">+</div>","null","","","","","","",""
"null","","image-keyboard-response","20","81146","0.0-2.0-0.6","","img/test2.PNG","null","practice","null","true","","","",""
"null","","html-keyboard-response","21","82147","0.0-2.0-1.6","","<img src=""img/test2-reward.PNG"">","null","","","","","","",""
"null","","html-keyboard-response","22","83148","0.0-2.0-2.6","","<div style=""font-size:60px;"">+</div>","null","","","","","","",""
"352","","image-keyboard-response","23","83501","0.0-2.0-0.7","","img/test1.PNG","32","practice","32","true","","","",""
"null","","html-keyboard-response","24","84502","0.0-2.0-1.7","","<img src=""img/test1-reward.PNG"" border=""10px; grey"">","null","","","","","","",""
"null","","html-keyboard-response","25","85502","0.0-2.0-2.7","","<div style=""font-size:60px;"">+</div>","null","","","","","","",""
"null","","image-keyboard-response","26","87003","0.0-2.0-0.8","","img/test3.PNG","null","practice","null","true","","","",""
"null","","html-keyboard-response","27","88004","0.0-2.0-1.8","","<img src=""img/test3-reward.PNG"">","null","","","","","","",""
"null","","html-keyboard-response","28","89005","0.0-2.0-2.8","","<div style=""font-size:60px;"">+</div>","null","","","","","","",""
"400","","image-keyboard-response","29","89405","0.0-2.0-0.9","","img/test1.PNG","32","practice","32","true","","","",""
"null","","html-keyboard-response","30","90407","0.0-2.0-1.9","","<img src=""img/test1-reward.PNG"" border=""10px; grey"">","null","","","","","","",""
"null","","html-keyboard-response","31","91408","0.0-2.0-2.9","","<div style=""font-size:60px;"">+</div>","null","","","","","","",""
"null","","image-keyboard-response","32","92908","0.0-2.0-0.10","","img/test2.PNG","null","practice","null","true","","","",""
"null","","html-keyboard-response","33","93910","0.0-2.0-1.10","","<img src=""img/test2-reward.PNG"">","null","","","","","","",""
"null","","html-keyboard-response","34","94910","0.0-2.0-2.10","","<div style=""font-size:60px;"">+</div>","null","","","","","","",""
"null","","image-keyboard-response","35","96411","0.0-2.0-0.11","","img/test3.PNG","null","practice","null","true","","","",""
"null","","html-keyboard-response","36","97412","0.0-2.0-1.11","","<img src=""img/test3-reward.PNG"">","null","","","","","","",""
"null","","html-keyboard-response","37","98412","0.0-2.0-2.11","","<div style=""font-size:60px;"">+</div>","null","","","","","","",""
"1750","","instructions","38","100162","0.0-3.0","[{""page_index"":0,""viewing_time"":1750}]","","","","","","","","",""
"1291","","image-keyboard-response","39","101454","0.0-4.0-0.0","","img/pink.png","32","trial","null","false","0.2,0.8","2:nogo_b","",""
"null","","html-keyboard-response","40","102457","0.0-4.0-1.0","","<img src=""img/pink-n.png"" border=""10"">","null","trial","null","","0.2,0.8","2:nogo_b","0",""
"null","","html-keyboard-response","41","103458","0.0-4.0-2.0","","<div style=""font-size:60px;"">+</div>","null","","","","","","",""
"612","","image-keyboard-response","42","104071","0.0-4.0-0.1","","img/green.png","32","trial","32","true","0.8,0.2","1:go_a","",""
"null","","html-keyboard-response","43","105071","0.0-4.0-1.1","","<img src=""img/green-n.png"" border=""10"">","null","trial","32","","0.8,0.2","1:go_a","0",""
"null","","html-keyboard-response","44","106072","0.0-4.0-2.1","","<div style=""font-size:60px;"">+</div>","null","","","","","","",""
"null","","image-keyboard-response","45","107573","0.0-4.0-0.2","","img/pink.png","null","trial","null","true","0.2,0.8","2:nogo_b","",""
"null","","html-keyboard-response","46","108574","0.0-4.0-1.2","","<img src=""img/pink-r.png"">","null","trial","null","","0.2,0.8","2:nogo_b","1",""
"null","","html-keyboard-response","47","109574","0.0-4.0-2.2","","<div style=""font-size:60px;"">+</div>","null","","","","","","",""
"null","","image-keyboard-response","48","111074","0.0-4.0-0.3","","img/green.png","null","trial","32","false","0.8,0.2","1:go_a","",""
"null","","html-keyboard-response","49","112075","0.0-4.0-1.3","","<img src=""img/green-n.png"">","null","trial","32","","0.8,0.2","1:go_a","0",""
"null","","html-keyboard-response","50","113076","0.0-4.0-2.3","","<div style=""font-size:60px;"">+</div>","null","","","","","","",""
"null","","image-keyboard-response","51","114577","0.0-4.0-0.4","","img/pink.png","null","trial","null","true","0.2,0.8","2:nogo_b","",""
"null","","html-keyboard-response","52","115578","0.0-4.0-1.4","","<img src=""img/pink-r.png"">","null","trial","null","","0.2,0.8","2:nogo_b","1",""
"null","","html-keyboard-response","53","116579","0.0-4.0-2.4","","<div style=""font-size:60px;"">+</div>","null","","","","","","",""
"492","","image-keyboard-response","54","117072","0.0-4.0-0.5","","img/green.png","32","trial","32","true","0.8,0.2","1:go_a","",""
"null","","html-keyboard-response","55","118073","0.0-4.0-1.5","","<img src=""img/green-r.png"" border=""10"">","null","trial","32","","0.8,0.2","1:go_a","1",""
"null","","html-keyboard-response","56","119074","0.0-4.0-2.5","","<div style=""font-size:60px;"">+</div>","null","","","","","","",""
"null","","image-keyboard-response","57","120575","0.0-4.0-0.6","","img/pink.png","null","trial","null","true","0.2,0.8","2:nogo_b","",""
"null","","html-keyboard-response","58","121576","0.0-4.0-1.6","","<img src=""img/pink-r.png"">","null","trial","null","","0.2,0.8","2:nogo_b","1",""
"null","","html-keyboard-response","59","122576","0.0-4.0-2.6","","<div style=""font-size:60px;"">+</div>","null","","","","","","",""
"545","","image-keyboard-response","60","123121","0.0-4.0-0.7","","img/green.png","32","trial","32","true","0.8,0.2","1:go_a","",""
"null","","html-keyboard-response","61","124122","0.0-4.0-1.7","","<img src=""img/green-r.png"" border=""10"">","null","trial","32","","0.8,0.2","1:go_a","1",""
"null","","html-keyboard-response","62","125123","0.0-4.0-2.7","","<div style=""font-size:60px;"">+</div>","null","","","","","","",""
"null","","image-keyboard-response","63","126623","0.0-4.0-0.8","","img/pink.png","null","trial","null","true","0.2,0.8","2:nogo_b","",""
"null","","html-keyboard-response","64","127624","0.0-4.0-1.8","","<img src=""img/pink-r.png"">","null","trial","null","","0.2,0.8","2:nogo_b","1",""
"null","","html-keyboard-response","65","128624","0.0-4.0-2.8","","<div style=""font-size:60px;"">+</div>","null","","","","","","",""
"353","","image-keyboard-response","66","128978","0.0-4.0-0.9","","img/green.png","32","trial","32","true","0.8,0.2","1:go_a","",""
"null","","html-keyboard-response","67","129979","0.0-4.0-1.9","","<img src=""img/green-r.png"" border=""10"">","null","trial","32","","0.8,0.2","1:go_a","1",""
"null","","html-keyboard-response","68","130979","0.0-4.0-2.9","","<div style=""font-size:60px;"">+</div>","null","","","","","","",""
"null","","image-keyboard-response","69","132479","0.0-4.0-0.10","","img/pink.png","null","trial","null","true","0.2,0.8","2:nogo_b","",""
"null","","html-keyboard-response","70","133481","0.0-4.0-1.10","","<img src=""img/pink-n.png"">","null","trial","null","","0.2,0.8","2:nogo_b","0",""
"null","","html-keyboard-response","71","134481","0.0-4.0-2.10","","<div style=""font-size:60px;"">+</div>","null","","","","","","",""
"552","","image-keyboard-response","72","135035","0.0-4.0-0.11","","img/green.png","32","trial","32","true","0.8,0.2","1:go_a","",""
"null","","html-keyboard-response","73","136036","0.0-4.0-1.11","","<img src=""img/green-r.png"" border=""10"">","null","trial","32","","0.8,0.2","1:go_a","1",""
"null","","html-keyboard-response","74","137037","0.0-4.0-2.11","","<div style=""font-size:60px;"">+</div>","null","","","","","","",""
"702","","image-keyboard-response","75","137740","0.0-4.0-0.12","","img/green.png","32","trial","32","true","0.8,0.2","1:go_a","",""
"null","","html-keyboard-response","76","138742","0.0-4.0-1.12","","<img src=""img/green-r.png"" border=""10"">","null","trial","32","","0.8,0.2","1:go_a","1",""
"null","","html-keyboard-response","77","139743","0.0-4.0-2.12","","<div style=""font-size:60px;"">+</div>","null","","","","","","",""
"null","","image-keyboard-response","78","141244","0.0-4.0-0.13","","img/pink.png","null","trial","null","true","0.2,0.8","2:nogo_b","",""
"null","","html-keyboard-response","79","142244","0.0-4.0-1.13","","<img src=""img/pink-r.png"">","null","trial","null","","0.2,0.8","2:nogo_b","1",""
"null","","html-keyboard-response","80","143245","0.0-4.0-2.13","","<div style=""font-size:60px;"">+</div>","null","","","","","","",""
"509","","image-keyboard-response","81","143754","0.0-4.0-0.14","","img/green.png","32","trial","32","true","0.8,0.2","1:go_a","",""
"null","","html-keyboard-response","82","144756","0.0-4.0-1.14","","<img src=""img/green-n.png"" border=""10"">","null","trial","32","","0.8,0.2","1:go_a","0",""
"null","","html-keyboard-response","83","145757","0.0-4.0-2.14","","<div style=""font-size:60px;"">+</div>","null","","","","","","",""
"null","","image-keyboard-response","84","147258","0.0-4.0-0.15","","img/pink.png","null","trial","null","true","0.2,0.8","2:nogo_b","",""
"null","","html-keyboard-response","85","148259","0.0-4.0-1.15","","<img src=""img/pink-r.png"">","null","trial","null","","0.2,0.8","2:nogo_b","1",""
"null","","html-keyboard-response","86","149260","0.0-4.0-2.15","","<div style=""font-size:60px;"">+</div>","null","","","","","","",""
"464","","image-keyboard-response","87","149724","0.0-4.0-0.16","","img/green.png","32","trial","32","true","0.8,0.2","1:go_a","",""
"null","","html-keyboard-response","88","150726","0.0-4.0-1.16","","<img src=""img/green-n.png"" border=""10"">","null","trial","32","","0.8,0.2","1:go_a","0",""
"null","","html-keyboard-response","89","151726","0.0-4.0-2.16","","<div style=""font-size:60px;"">+</div>","null","","","","","","",""
"null","","image-keyboard-response","90","153228","0.0-4.0-0.17","","img/pink.png","null","trial","null","true","0.2,0.8","2:nogo_b","",""
"null","","html-keyboard-response","91","154229","0.0-4.0-1.17","","<img src=""img/pink-r.png"">","null","trial","null","","0.2,0.8","2:nogo_b","1",""
"null","","html-keyboard-response","92","155229","0.0-4.0-2.17","","<div style=""font-size:60px;"">+</div>","null","","","","","","",""
"null","","image-keyboard-response","93","156730","0.0-4.0-0.18","","img/pink.png","null","trial","null","true","0.2,0.8","2:nogo_b","",""
"null","","html-keyboard-response","94","157732","0.0-4.0-1.18","","<img src=""img/pink-r.png"">","null","trial","null","","0.2,0.8","2:nogo_b","1",""
"null","","html-keyboard-response","95","158732","0.0-4.0-2.18","","<div style=""font-size:60px;"">+</div>","null","","","","","","",""
"456","","image-keyboard-response","96","159189","0.0-4.0-0.19","","img/green.png","32","trial","32","true","0.8,0.2","1:go_a","",""
"null","","html-keyboard-response","97","160190","0.0-4.0-1.19","","<img src=""img/green-r.png"" border=""10"">","null","trial","32","","0.8,0.2","1:go_a","1",""
"null","","html-keyboard-response","98","161191","0.0-4.0-2.19","","<div style=""font-size:60px;"">+</div>","null","","","","","","",""
"null","","image-keyboard-response","99","162692","0.0-4.0-0.20","","img/pink.png","null","trial","null","true","0.2,0.8","2:nogo_b","",""
"null","","html-keyboard-response","100","163693","0.0-4.0-1.20","","<img src=""img/pink-r.png"">","null","trial","null","","0.2,0.8","2:nogo_b","1",""
"null","","html-keyboard-response","101","164694","0.0-4.0-2.20","","<div style=""font-size:60px;"">+</div>","null","","","","","","",""
"464","","image-keyboard-response","102","165158","0.0-4.0-0.21","","img/green.png","32","trial","32","true","0.8,0.2","1:go_a","",""
"null","","html-keyboard-response","103","166159","0.0-4.0-1.21","","<img src=""img/green-r.png"" border=""10"">","null","trial","32","","0.8,0.2","1:go_a","1",""
"null","","html-keyboard-response","104","167160","0.0-4.0-2.21","","<div style=""font-size:60px;"">+</div>","null","","","","","","",""
"430","","image-keyboard-response","105","167590","0.0-4.0-0.22","","img/green.png","32","trial","32","true","0.8,0.2","1:go_a","",""
"null","","html-keyboard-response","106","168591","0.0-4.0-1.22","","<img src=""img/green-n.png"" border=""10"">","null","trial","32","","0.8,0.2","1:go_a","0",""
"null","","html-keyboard-response","107","169592","0.0-4.0-2.22","","<div style=""font-size:60px;"">+</div>","null","","","","","","",""
"null","","image-keyboard-response","108","171092","0.0-4.0-0.23","","img/pink.png","null","trial","null","true","0.2,0.8","2:nogo_b","",""
"null","","html-keyboard-response","109","172093","0.0-4.0-1.23","","<img src=""img/pink-n.png"">","null","trial","null","","0.2,0.8","2:nogo_b","0",""
"null","","html-keyboard-response","110","173094","0.0-4.0-2.23","","<div style=""font-size:60px;"">+</div>","null","","","","","","",""
"464","","image-keyboard-response","111","173559","0.0-4.0-0.24","","img/green.png","32","trial","32","true","0.8,0.2","1:go_a","",""
"null","","html-keyboard-response","112","174560","0.0-4.0-1.24","","<img src=""img/green-r.png"" border=""10"">","null","trial","32","","0.8,0.2","1:go_a","1",""
"null","","html-keyboard-response","113","175562","0.0-4.0-2.24","","<div style=""font-size:60px;"">+</div>","null","","","","","","",""
"null","","image-keyboard-response","114","177063","0.0-4.0-0.25","","img/pink.png","null","trial","null","true","0.2,0.8","2:nogo_b","",""
"null","","html-keyboard-response","115","178064","0.0-4.0-1.25","","<img src=""img/pink-r.png"">","null","trial","null","","0.2,0.8","2:nogo_b","1",""
"null","","html-keyboard-response","116","179065","0.0-4.0-2.25","","<div style=""font-size:60px;"">+</div>","null","","","","","","",""
"544","","image-keyboard-response","117","179608","0.0-4.0-0.26","","img/green.png","32","trial","32","true","0.8,0.2","1:go_a","",""
"null","","html-keyboard-response","118","180608","0.0-4.0-1.26","","<img src=""img/green-r.png"" border=""10"">","null","trial","32","","0.8,0.2","1:go_a","1",""
"null","","html-keyboard-response","119","181609","0.0-4.0-2.26","","<div style=""font-size:60px;"">+</div>","null","","","","","","",""
"null","","image-keyboard-response","120","183110","0.0-4.0-0.27","","img/pink.png","null","trial","null","true","0.2,0.8","2:nogo_b","",""
"null","","html-keyboard-response","121","184111","0.0-4.0-1.27","","<img src=""img/pink-r.png"">","null","trial","null","","0.2,0.8","2:nogo_b","1",""
"null","","html-keyboard-response","122","185111","0.0-4.0-2.27","","<div style=""font-size:60px;"">+</div>","null","","","","","","",""
"null","","image-keyboard-response","123","186612","0.0-4.0-0.28","","img/pink.png","null","trial","null","true","0.2,0.8","2:nogo_b","",""
"null","","html-keyboard-response","124","187613","0.0-4.0-1.28","","<img src=""img/pink-r.png"">","null","trial","null","","0.2,0.8","2:nogo_b","1",""
"null","","html-keyboard-response","125","188614","0.0-4.0-2.28","","<div style=""font-size:60px;"">+</div>","null","","","","","","",""
"371","","image-keyboard-response","126","188985","0.0-4.0-0.29","","img/green.png","32","trial","32","true","0.8,0.2","1:go_a","",""
"null","","html-keyboard-response","127","189986","0.0-4.0-1.29","","<img src=""img/green-r.png"" border=""10"">","null","trial","32","","0.8,0.2","1:go_a","1",""
"null","","html-keyboard-response","128","190986","0.0-4.0-2.29","","<div style=""font-size:60px;"">+</div>","null","","","","","","",""
"510","","image-keyboard-response","129","191497","0.0-4.0-0.30","","img/green.png","32","trial","32","true","0.8,0.2","1:go_a","",""
"null","","html-keyboard-response","130","192498","0.0-4.0-1.30","","<img src=""img/green-r.png"" border=""10"">","null","trial","32","","0.8,0.2","1:go_a","1",""
"null","","html-keyboard-response","131","193499","0.0-4.0-2.30","","<div style=""font-size:60px;"">+</div>","null","","","","","","",""
"null","","image-keyboard-response","132","195000","0.0-4.0-0.31","","img/pink.png","null","trial","null","true","0.2,0.8","2:nogo_b","",""
"null","","html-keyboard-response","133","196001","0.0-4.0-1.31","","<img src=""img/pink-r.png"">","null","trial","null","","0.2,0.8","2:nogo_b","1",""
"null","","html-keyboard-response","134","197001","0.0-4.0-2.31","","<div style=""font-size:60px;"">+</div>","null","","","","","","",""
"487","","image-keyboard-response","135","197490","0.0-4.0-0.32","","img/green.png","32","trial","32","true","0.8,0.2","1:go_a","",""
"null","","html-keyboard-response","136","198491","0.0-4.0-1.32","","<img src=""img/green-r.png"" border=""10"">","null","trial","32","","0.8,0.2","1:go_a","1",""
"null","","html-keyboard-response","137","199491","0.0-4.0-2.32","","<div style=""font-size:60px;"">+</div>","null","","","","","","",""
"null","","image-keyboard-response","138","200993","0.0-4.0-0.33","","img/pink.png","null","trial","null","true","0.2,0.8","2:nogo_b","",""
"null","","html-keyboard-response","139","201994","0.0-4.0-1.33","","<img src=""img/pink-n.png"">","null","trial","null","","0.2,0.8","2:nogo_b","0",""
"null","","html-keyboard-response","140","202995","0.0-4.0-2.33","","<div style=""font-size:60px;"">+</div>","null","","","","","","",""
"null","","image-keyboard-response","141","204496","0.0-4.0-0.34","","img/pink.png","null","trial","null","true","0.2,0.8","2:nogo_b","",""
"null","","html-keyboard-response","142","205497","0.0-4.0-1.34","","<img src=""img/pink-r.png"">","null","trial","null","","0.2,0.8","2:nogo_b","1",""
"null","","html-keyboard-response","143","206498","0.0-4.0-2.34","","<div style=""font-size:60px;"">+</div>","null","","","","","","",""
"329","","image-keyboard-response","144","206827","0.0-4.0-0.35","","img/green.png","32","trial","32","true","0.8,0.2","1:go_a","",""
"null","","html-keyboard-response","145","207828","0.0-4.0-1.35","","<img src=""img/green-r.png"" border=""10"">","null","trial","32","","0.8,0.2","1:go_a","1",""
"null","","html-keyboard-response","146","208829","0.0-4.0-2.35","","<div style=""font-size:60px;"">+</div>","null","","","","","","",""
"null","","image-keyboard-response","147","210330","0.0-4.0-0.36","","img/pink.png","null","trial","null","true","0.2,0.8","2:nogo_b","",""
"null","","html-keyboard-response","148","211331","0.0-4.0-1.36","","<img src=""img/pink-n.png"">","null","trial","null","","0.2,0.8","2:nogo_b","0",""
"null","","html-keyboard-response","149","212332","0.0-4.0-2.36","","<div style=""font-size:60px;"">+</div>","null","","","","","","",""
"335","","image-keyboard-response","150","212668","0.0-4.0-0.37","","img/green.png","32","trial","32","true","0.8,0.2","1:go_a","",""
"null","","html-keyboard-response","151","213670","0.0-4.0-1.37","","<img src=""img/green-n.png"" border=""10"">","null","trial","32","","0.8,0.2","1:go_a","0",""
"null","","html-keyboard-response","152","214672","0.0-4.0-2.37","","<div style=""font-size:60px;"">+</div>","null","","","","","","",""
"628","","image-keyboard-response","153","215300","0.0-4.0-0.38","","img/green.png","32","trial","32","true","0.8,0.2","1:go_a","",""
"null","","html-keyboard-response","154","216302","0.0-4.0-1.38","","<img src=""img/green-r.png"" border=""10"">","null","trial","32","","0.8,0.2","1:go_a","1",""
"null","","html-keyboard-response","155","217302","0.0-4.0-2.38","","<div style=""font-size:60px;"">+</div>","null","","","","","","",""
"null","","image-keyboard-response","156","218803","0.0-4.0-0.39","","img/pink.png","null","trial","null","true","0.2,0.8","2:nogo_b","",""
"null","","html-keyboard-response","157","219804","0.0-4.0-1.39","","<img src=""img/pink-r.png"">","null","trial","null","","0.2,0.8","2:nogo_b","1",""
"null","","html-keyboard-response","158","220806","0.0-4.0-2.39","","<div style=""font-size:60px;"">+</div>","null","","","","","","",""
"null","","image-keyboard-response","159","222306","0.0-4.0-0.40","","img/pink.png","null","trial","null","true","0.2,0.8","2:nogo_b","",""
"null","","html-keyboard-response","160","223307","0.0-4.0-1.40","","<img src=""img/pink-r.png"">","null","trial","null","","0.2,0.8","2:nogo_b","1",""
"null","","html-keyboard-response","161","224308","0.0-4.0-2.40","","<div style=""font-size:60px;"">+</div>","null","","","","","","",""
"456","","image-keyboard-response","162","224765","0.0-4.0-0.41","","img/green.png","32","trial","32","true","0.8,0.2","1:go_a","",""
"null","","html-keyboard-response","163","225766","0.0-4.0-1.41","","<img src=""img/green-r.png"" border=""10"">","null","trial","32","","0.8,0.2","1:go_a","1",""
"null","","html-keyboard-response","164","226767","0.0-4.0-2.41","","<div style=""font-size:60px;"">+</div>","null","","","","","","",""
"598","","image-keyboard-response","165","227365","0.0-4.0-0.42","","img/green.png","32","trial","32","true","0.8,0.2","1:go_a","",""
"null","","html-keyboard-response","166","228366","0.0-4.0-1.42","","<img src=""img/green-n.png"" border=""10"">","null","trial","32","","0.8,0.2","1:go_a","0",""
"null","","html-keyboard-response","167","229367","0.0-4.0-2.42","","<div style=""font-size:60px;"">+</div>","null","","","","","","",""
"null","","image-keyboard-response","168","230868","0.0-4.0-0.43","","img/pink.png","null","trial","null","true","0.2,0.8","2:nogo_b","",""
"null","","html-keyboard-response","169","231869","0.0-4.0-1.43","","<img src=""img/pink-r.png"">","null","trial","null","","0.2,0.8","2:nogo_b","1",""
"null","","html-keyboard-response","170","232870","0.0-4.0-2.43","","<div style=""font-size:60px;"">+</div>","null","","","","","","",""
"367","","image-keyboard-response","171","233238","0.0-4.0-0.44","","img/green.png","32","trial","32","true","0.8,0.2","1:go_a","",""
"null","","html-keyboard-response","172","234239","0.0-4.0-1.44","","<img src=""img/green-r.png"" border=""10"">","null","trial","32","","0.8,0.2","1:go_a","1",""
"null","","html-keyboard-response","173","235239","0.0-4.0-2.44","","<div style=""font-size:60px;"">+</div>","null","","","","","","",""
"null","","image-keyboard-response","174","236741","0.0-4.0-0.45","","img/pink.png","null","trial","null","true","0.2,0.8","2:nogo_b","",""
"null","","html-keyboard-response","175","237741","0.0-4.0-1.45","","<img src=""img/pink-r.png"">","null","trial","null","","0.2,0.8","2:nogo_b","1",""
"null","","html-keyboard-response","176","238741","0.0-4.0-2.45","","<div style=""font-size:60px;"">+</div>","null","","","","","","",""
"null","","image-keyboard-response","177","240242","0.0-4.0-0.46","","img/pink.png","null","trial","null","true","0.2,0.8","2:nogo_b","",""
"null","","html-keyboard-response","178","241243","0.0-4.0-1.46","","<img src=""img/pink-r.png"">","null","trial","null","","0.2,0.8","2:nogo_b","1",""
"null","","html-keyboard-response","179","242244","0.0-4.0-2.46","","<div style=""font-size:60px;"">+</div>","null","","","","","","",""
"364","","image-keyboard-response","180","242608","0.0-4.0-0.47","","img/green.png","32","trial","32","true","0.8,0.2","1:go_a","",""
"null","","html-keyboard-response","181","243608","0.0-4.0-1.47","","<img src=""img/green-r.png"" border=""10"">","null","trial","32","","0.8,0.2","1:go_a","1",""
"null","","html-keyboard-response","182","244608","0.0-4.0-2.47","","<div style=""font-size:60px;"">+</div>","null","","","","","","",""
"null","","image-keyboard-response","183","246109","0.0-4.0-0.48","","img/pink.png","null","trial","null","true","0.2,0.8","2:nogo_b","",""
"null","","html-keyboard-response","184","247109","0.0-4.0-1.48","","<img src=""img/pink-r.png"">","null","trial","null","","0.2,0.8","2:nogo_b","1",""
"null","","html-keyboard-response","185","248110","0.0-4.0-2.48","","<div style=""font-size:60px;"">+</div>","null","","","","","","",""
"529","","image-keyboard-response","186","248640","0.0-4.0-0.49","","img/green.png","32","trial","32","true","0.8,0.2","1:go_a","",""
"null","","html-keyboard-response","187","249641","0.0-4.0-1.49","","<img src=""img/green-r.png"" border=""10"">","null","trial","32","","0.8,0.2","1:go_a","1",""
"null","","html-keyboard-response","188","250641","0.0-4.0-2.49","","<div style=""font-size:60px;"">+</div>","null","","","","","","",""
"null","","image-keyboard-response","189","252143","0.0-4.0-0.50","","img/pink.png","null","trial","null","true","0.2,0.8","2:nogo_b","",""
"null","","html-keyboard-response","190","253144","0.0-4.0-1.50","","<img src=""img/pink-r.png"">","null","trial","null","","0.2,0.8","2:nogo_b","1",""
"null","","html-keyboard-response","191","254144","0.0-4.0-2.50","","<div style=""font-size:60px;"">+</div>","null","","","","","","",""
"370","","image-keyboard-response","192","254515","0.0-4.0-0.51","","img/green.png","32","trial","32","true","0.8,0.2","1:go_a","",""
"null","","html-keyboard-response","193","255515","0.0-4.0-1.51","","<img src=""img/green-n.png"" border=""10"">","null","trial","32","","0.8,0.2","1:go_a","0",""
"null","","html-keyboard-response","194","256516","0.0-4.0-2.51","","<div style=""font-size:60px;"">+</div>","null","","","","","","",""
"516","","image-keyboard-response","195","257033","0.0-4.0-0.52","","img/green.png","32","trial","32","true","0.8,0.2","1:go_a","",""
"null","","html-keyboard-response","196","258033","0.0-4.0-1.52","","<img src=""img/green-r.png"" border=""10"">","null","trial","32","","0.8,0.2","1:go_a","1",""
"null","","html-keyboard-response","197","259035","0.0-4.0-2.52","","<div style=""font-size:60px;"">+</div>","null","","","","","","",""
"null","","image-keyboard-response","198","260536","0.0-4.0-0.53","","img/pink.png","null","trial","null","true","0.2,0.8","2:nogo_b","",""
"null","","html-keyboard-response","199","261536","0.0-4.0-1.53","","<img src=""img/pink-r.png"">","null","trial","null","","0.2,0.8","2:nogo_b","1",""
"null","","html-keyboard-response","200","262537","0.0-4.0-2.53","","<div style=""font-size:60px;"">+</div>","null","","","","","","",""
"392","","image-keyboard-response","201","262929","0.0-4.0-0.54","","img/green.png","32","trial","32","true","0.8,0.2","1:go_a","",""
"null","","html-keyboard-response","202","263930","0.0-4.0-1.54","","<img src=""img/green-r.png"" border=""10"">","null","trial","32","","0.8,0.2","1:go_a","1",""
"null","","html-keyboard-response","203","264931","0.0-4.0-2.54","","<div style=""font-size:60px;"">+</div>","null","","","","","","",""
"null","","image-keyboard-response","204","266433","0.0-4.0-0.55","","img/pink.png","null","trial","null","true","0.2,0.8","2:nogo_b","",""
"null","","html-keyboard-response","205","267433","0.0-4.0-1.55","","<img src=""img/pink-r.png"">","null","trial","null","","0.2,0.8","2:nogo_b","1",""
"null","","html-keyboard-response","206","268434","0.0-4.0-2.55","","<div style=""font-size:60px;"">+</div>","null","","","","","","",""
"null","","image-keyboard-response","207","269935","0.0-4.0-0.56","","img/pink.png","null","trial","null","true","0.2,0.8","2:nogo_b","",""
"null","","html-keyboard-response","208","270936","0.0-4.0-1.56","","<img src=""img/pink-r.png"">","null","trial","null","","0.2,0.8","2:nogo_b","1",""
"null","","html-keyboard-response","209","271937","0.0-4.0-2.56","","<div style=""font-size:60px;"">+</div>","null","","","","","","",""
"495","","image-keyboard-response","210","272432","0.0-4.0-0.57","","img/green.png","32","trial","32","true","0.8,0.2","1:go_a","",""
"null","","html-keyboard-response","211","273433","0.0-4.0-1.57","","<img src=""img/green-r.png"" border=""10"">","null","trial","32","","0.8,0.2","1:go_a","1",""
"null","","html-keyboard-response","212","274433","0.0-4.0-2.57","","<div style=""font-size:60px;"">+</div>","null","","","","","","",""
"null","","image-keyboard-response","213","275934","0.0-4.0-0.58","","img/pink.png","null","trial","null","true","0.2,0.8","2:nogo_b","",""
"null","","html-keyboard-response","214","276935","0.0-4.0-1.58","","<img src=""img/pink-r.png"">","null","trial","null","","0.2,0.8","2:nogo_b","1",""
"null","","html-keyboard-response","215","277936","0.0-4.0-2.58","","<div style=""font-size:60px;"">+</div>","null","","","","","","",""
"411","","image-keyboard-response","216","278348","0.0-4.0-0.59","","img/green.png","32","trial","32","true","0.8,0.2","1:go_a","",""
"null","","html-keyboard-response","217","279348","0.0-4.0-1.59","","<img src=""img/green-r.png"" border=""10"">","null","trial","32","","0.8,0.2","1:go_a","1",""
"null","","html-keyboard-response","218","280349","0.0-4.0-2.59","","<div style=""font-size:60px;"">+</div>","null","","","","","","",""
"5034","","instructions","219","285383","0.0-5.0","[{""page_index"":0,""viewing_time"":5034}]","","","","","","","","",""
"988","","image-keyboard-response","220","286372","0.0-6.0-0.0","","img/orange.png","32","trial","null","false","0.2,0.8","2:nogo_b","",""
"null","","html-keyboard-response","221","287373","0.0-6.0-1.0","","<img src=""img/orange-n.png"" border=""10"">","null","trial","null","","0.2,0.8","2:nogo_b","0",""
"null","","html-keyboard-response","222","288374","0.0-6.0-2.0","","<div style=""font-size:60px;"">+</div>","null","","","","","","",""
"null","","image-keyboard-response","223","289875","0.0-6.0-0.1","","img/pink.png","null","trial","32","false","0.6,0.4","3:go_c","",""
"null","","html-keyboard-response","224","290876","0.0-6.0-1.1","","<img src=""img/pink-n.png"">","null","trial","32","","0.6,0.4","3:go_c","0",""
"null","","html-keyboard-response","225","291877","0.0-6.0-2.1","","<div style=""font-size:60px;"">+</div>","null","","","","","","",""
"864","","image-keyboard-response","226","292741","0.0-6.0-0.2","","img/red.png","32","trial","null","false","0.4,0.6","4:nogo_d","",""
"null","","html-keyboard-response","227","293743","0.0-6.0-1.2","","<img src=""img/red-r.png"" border=""10"">","null","trial","null","","0.4,0.6","4:nogo_d","1",""
"null","","html-keyboard-response","228","294744","0.0-6.0-2.2","","<div style=""font-size:60px;"">+</div>","null","","","","","","",""
"null","","image-keyboard-response","229","296244","0.0-6.0-0.3","","img/grey.png","null","trial","32","false","0.8,0.2","1:go_a","",""
"null","","html-keyboard-response","230","297245","0.0-6.0-1.3","","<img src=""img/grey-n.png"">","null","trial","32","","0.8,0.2","1:go_a","0",""
"null","","html-keyboard-response","231","298246","0.0-6.0-2.3","","<div style=""font-size:60px;"">+</div>","null","","","","","","",""
"375","","image-keyboard-response","232","298622","0.0-6.0-0.4","","img/red.png","32","trial","null","false","0.4,0.6","4:nogo_d","",""
"null","","html-keyboard-response","233","299623","0.0-6.0-1.4","","<img src=""img/red-n.png"" border=""10"">","null","trial","null","","0.4,0.6","4:nogo_d","0",""
"null","","html-keyboard-response","234","300624","0.0-6.0-2.4","","<div style=""font-size:60px;"">+</div>","null","","","","","","",""
"702","","image-keyboard-response","235","301326","0.0-6.0-0.5","","img/grey.png","32","trial","32","true","0.8,0.2","1:go_a","",""
"null","","html-keyboard-response","236","302329","0.0-6.0-1.5","","<img src=""img/grey-n.png"" border=""10"">","null","trial","32","","0.8,0.2","1:go_a","0",""
"null","","html-keyboard-response","237","303329","0.0-6.0-2.5","","<div style=""font-size:60px;"">+</div>","null","","","","","","",""
"500","","image-keyboard-response","238","303830","0.0-6.0-0.6","","img/pink.png","32","trial","32","true","0.6,0.4","3:go_c","",""
"null","","html-keyboard-response","239","304831","0.0-6.0-1.6","","<img src=""img/pink-r.png"" border=""10"">","null","trial","32","","0.6,0.4","3:go_c","1",""
"null","","html-keyboard-response","240","305831","0.0-6.0-2.6","","<div style=""font-size:60px;"">+</div>","null","","","","","","",""
"null","","image-keyboard-response","241","307332","0.0-6.0-0.7","","img/orange.png","null","trial","null","true","0.2,0.8","2:nogo_b","",""
"null","","html-keyboard-response","242","308333","0.0-6.0-1.7","","<img src=""img/orange-r.png"">","null","trial","null","","0.2,0.8","2:nogo_b","1",""
"null","","html-keyboard-response","243","309334","0.0-6.0-2.7","","<div style=""font-size:60px;"">+</div>","null","","","","","","",""
"null","","image-keyboard-response","244","310834","0.0-6.0-0.8","","img/grey.png","null","trial","32","false","0.8,0.2","1:go_a","",""
"null","","html-keyboard-response","245","311835","0.0-6.0-1.8","","<img src=""img/grey-r.png"">","null","trial","32","","0.8,0.2","1:go_a","1",""
"null","","html-keyboard-response","246","312836","0.0-6.0-2.8","","<div style=""font-size:60px;"">+</div>","null","","","","","","",""
"null","","image-keyboard-response","247","314337","0.0-6.0-0.9","","img/orange.png","null","trial","null","true","0.2,0.8","2:nogo_b","",""
"null","","html-keyboard-response","248","315337","0.0-6.0-1.9","","<img src=""img/orange-r.png"">","null","trial","null","","0.2,0.8","2:nogo_b","1",""
"null","","html-keyboard-response","249","316338","0.0-6.0-2.9","","<div style=""font-size:60px;"">+</div>","null","","","","","","",""
"461","","image-keyboard-response","250","316800","0.0-6.0-0.10","","img/pink.png","32","trial","32","true","0.6,0.4","3:go_c","",""
"null","","html-keyboard-response","251","317801","0.0-6.0-1.10","","<img src=""img/pink-n.png"" border=""10"">","null","trial","32","","0.6,0.4","3:go_c","0",""
"null","","html-keyboard-response","252","318803","0.0-6.0-2.10","","<div style=""font-size:60px;"">+</div>","null","","","","","","",""
"542","","image-keyboard-response","253","319344","0.0-6.0-0.11","","img/red.png","32","trial","null","false","0.4,0.6","4:nogo_d","",""
"null","","html-keyboard-response","254","320345","0.0-6.0-1.11","","<img src=""img/red-n.png"" border=""10"">","null","trial","null","","0.4,0.6","4:nogo_d","0",""
"null","","html-keyboard-response","255","321346","0.0-6.0-2.11","","<div style=""font-size:60px;"">+</div>","null","","","","","","",""
"null","","image-keyboard-response","256","322846","0.0-6.0-0.12","","img/orange.png","null","trial","null","true","0.2,0.8","2:nogo_b","",""
"null","","html-keyboard-response","257","323847","0.0-6.0-1.12","","<img src=""img/orange-r.png"">","null","trial","null","","0.2,0.8","2:nogo_b","1",""
"null","","html-keyboard-response","258","324848","0.0-6.0-2.12","","<div style=""font-size:60px;"">+</div>","null","","","","","","",""
"null","","image-keyboard-response","259","326349","0.0-6.0-0.13","","img/red.png","null","trial","null","true","0.4,0.6","4:nogo_d","",""
"null","","html-keyboard-response","260","327349","0.0-6.0-1.13","","<img src=""img/red-r.png"">","null","trial","null","","0.4,0.6","4:nogo_d","1",""
"null","","html-keyboard-response","261","328350","0.0-6.0-2.13","","<div style=""font-size:60px;"">+</div>","null","","","","","","",""
"null","","image-keyboard-response","262","329850","0.0-6.0-0.14","","img/pink.png","null","trial","32","false","0.6,0.4","3:go_c","",""
"null","","html-keyboard-response","263","330851","0.0-6.0-1.14","","<img src=""img/pink-n.png"">","null","trial","32","","0.6,0.4","3:go_c","0",""
"null","","html-keyboard-response","264","331852","0.0-6.0-2.14","","<div style=""font-size:60px;"">+</div>","null","","","","","","",""
"null","","image-keyboard-response","265","333353","0.0-6.0-0.15","","img/grey.png","null","trial","32","false","0.8,0.2","1:go_a","",""
"null","","html-keyboard-response","266","334353","0.0-6.0-1.15","","<img src=""img/grey-r.png"">","null","trial","32","","0.8,0.2","1:go_a","1",""
"null","","html-keyboard-response","267","335354","0.0-6.0-2.15","","<div style=""font-size:60px;"">+</div>","null","","","","","","",""
"null","","image-keyboard-response","268","336856","0.0-6.0-0.16","","img/orange.png","null","trial","null","true","0.2,0.8","2:nogo_b","",""
"null","","html-keyboard-response","269","337858","0.0-6.0-1.16","","<img src=""img/orange-r.png"">","null","trial","null","","0.2,0.8","2:nogo_b","1",""
"null","","html-keyboard-response","270","338858","0.0-6.0-2.16","","<div style=""font-size:60px;"">+</div>","null","","","","","","",""
"663","","image-keyboard-response","271","339523","0.0-6.0-0.17","","img/pink.png","32","trial","32","true","0.6,0.4","3:go_c","",""
"null","","html-keyboard-response","272","340523","0.0-6.0-1.17","","<img src=""img/pink-n.png"" border=""10"">","null","trial","32","","0.6,0.4","3:go_c","0",""
"null","","html-keyboard-response","273","341523","0.0-6.0-2.17","","<div style=""font-size:60px;"">+</div>","null","","","","","","",""
"776","","image-keyboard-response","274","342298","0.0-6.0-0.18","","img/red.png","32","trial","null","false","0.4,0.6","4:nogo_d","",""
"null","","html-keyboard-response","275","343300","0.0-6.0-1.18","","<img src=""img/red-n.png"" border=""10"">","null","trial","null","","0.4,0.6","4:nogo_d","0",""
"null","","html-keyboard-response","276","344300","0.0-6.0-2.18","","<div style=""font-size:60px;"">+</div>","null","","","","","","",""
"null","","image-keyboard-response","277","345800","0.0-6.0-0.19","","img/grey.png","null","trial","32","false","0.8,0.2","1:go_a","",""
"null","","html-keyboard-response","278","346802","0.0-6.0-1.19","","<img src=""img/grey-r.png"">","null","trial","32","","0.8,0.2","1:go_a","1",""
"null","","html-keyboard-response","279","347802","0.0-6.0-2.19","","<div style=""font-size:60px;"">+</div>","null","","","","","","",""
"689","","image-keyboard-response","280","348491","0.0-6.0-0.20","","img/pink.png","32","trial","32","true","0.6,0.4","3:go_c","",""
"null","","html-keyboard-response","281","349492","0.0-6.0-1.20","","<img src=""img/pink-r.png"" border=""10"">","null","trial","32","","0.6,0.4","3:go_c","1",""
"null","","html-keyboard-response","282","350493","0.0-6.0-2.20","","<div style=""font-size:60px;"">+</div>","null","","","","","","",""
"null","","image-keyboard-response","283","351994","0.0-6.0-0.21","","img/orange.png","null","trial","null","true","0.2,0.8","2:nogo_b","",""
"null","","html-keyboard-response","284","352995","0.0-6.0-1.21","","<img src=""img/orange-r.png"">","null","trial","null","","0.2,0.8","2:nogo_b","1",""
"null","","html-keyboard-response","285","353997","0.0-6.0-2.21","","<div style=""font-size:60px;"">+</div>","null","","","","","","",""
"null","","image-keyboard-response","286","355498","0.0-6.0-0.22","","img/red.png","null","trial","null","true","0.4,0.6","4:nogo_d","",""
"null","","html-keyboard-response","287","356498","0.0-6.0-1.22","","<img src=""img/red-r.png"">","null","trial","null","","0.4,0.6","4:nogo_d","1",""
"null","","html-keyboard-response","288","357499","0.0-6.0-2.22","","<div style=""font-size:60px;"">+</div>","null","","","","","","",""
"null","","image-keyboard-response","289","359000","0.0-6.0-0.23","","img/grey.png","null","trial","32","false","0.8,0.2","1:go_a","",""
"null","","html-keyboard-response","290","360000","0.0-6.0-1.23","","<img src=""img/grey-n.png"">","null","trial","32","","0.8,0.2","1:go_a","0",""
"null","","html-keyboard-response","291","361001","0.0-6.0-2.23","","<div style=""font-size:60px;"">+</div>","null","","","","","","",""
"null","","image-keyboard-response","292","362501","0.0-6.0-0.24","","img/grey.png","null","trial","32","false","0.8,0.2","1:go_a","",""
"null","","html-keyboard-response","293","363502","0.0-6.0-1.24","","<img src=""img/grey-n.png"">","null","trial","32","","0.8,0.2","1:go_a","0",""
"null","","html-keyboard-response","294","364504","0.0-6.0-2.24","","<div style=""font-size:60px;"">+</div>","null","","","","","","",""
"813","","image-keyboard-response","295","365318","0.0-6.0-0.25","","img/pink.png","32","trial","32","true","0.6,0.4","3:go_c","",""
"null","","html-keyboard-response","296","366318","0.0-6.0-1.25","","<img src=""img/pink-n.png"" border=""10"">","null","trial","32","","0.6,0.4","3:go_c","0",""
"null","","html-keyboard-response","297","367319","0.0-6.0-2.25","","<div style=""font-size:60px;"">+</div>","null","","","","","","",""
"null","","image-keyboard-response","298","368821","0.0-6.0-0.26","","img/orange.png","null","trial","null","true","0.2,0.8","2:nogo_b","",""
"null","","html-keyboard-response","299","369821","0.0-6.0-1.26","","<img src=""img/orange-r.png"">","null","trial","null","","0.2,0.8","2:nogo_b","1",""
"null","","html-keyboard-response","300","370823","0.0-6.0-2.26","","<div style=""font-size:60px;"">+</div>","null","","","","","","",""
"null","","image-keyboard-response","301","372323","0.0-6.0-0.27","","img/red.png","null","trial","null","true","0.4,0.6","4:nogo_d","",""
"null","","html-keyboard-response","302","373324","0.0-6.0-1.27","","<img src=""img/red-r.png"">","null","trial","null","","0.4,0.6","4:nogo_d","1",""
"null","","html-keyboard-response","303","374325","0.0-6.0-2.27","","<div style=""font-size:60px;"">+</div>","null","","","","","","",""
"457","","image-keyboard-response","304","374783","0.0-6.0-0.28","","img/grey.png","32","trial","32","true","0.8,0.2","1:go_a","",""
"null","","html-keyboard-response","305","375784","0.0-6.0-1.28","","<img src=""img/grey-r.png"" border=""10"">","null","trial","32","","0.8,0.2","1:go_a","1",""
"null","","html-keyboard-response","306","376785","0.0-6.0-2.28","","<div style=""font-size:60px;"">+</div>","null","","","","","","",""
"null","","image-keyboard-response","307","378286","0.0-6.0-0.29","","img/pink.png","null","trial","32","false","0.6,0.4","3:go_c","",""
"null","","html-keyboard-response","308","379286","0.0-6.0-1.29","","<img src=""img/pink-r.png"">","null","trial","32","","0.6,0.4","3:go_c","1",""
"null","","html-keyboard-response","309","380287","0.0-6.0-2.29","","<div style=""font-size:60px;"">+</div>","null","","","","","","",""
"1103","","image-keyboard-response","310","381391","0.0-6.0-0.30","","img/red.png","32","trial","null","false","0.4,0.6","4:nogo_d","",""
"null","","html-keyboard-response","311","382391","0.0-6.0-1.30","","<img src=""img/red-r.png"" border=""10"">","null","trial","null","","0.4,0.6","4:nogo_d","1",""
"null","","html-keyboard-response","312","383393","0.0-6.0-2.30","","<div style=""font-size:60px;"">+</div>","null","","","","","","",""
"null","","image-keyboard-response","313","384893","0.0-6.0-0.31","","img/orange.png","null","trial","null","true","0.2,0.8","2:nogo_b","",""
"null","","html-keyboard-response","314","385894","0.0-6.0-1.31","","<img src=""img/orange-n.png"">","null","trial","null","","0.2,0.8","2:nogo_b","0",""
"null","","html-keyboard-response","315","386895","0.0-6.0-2.31","","<div style=""font-size:60px;"">+</div>","null","","","","","","",""
"762","","image-keyboard-response","316","387656","0.0-6.0-0.32","","img/pink.png","32","trial","32","true","0.6,0.4","3:go_c","",""
"null","","html-keyboard-response","317","388657","0.0-6.0-1.32","","<img src=""img/pink-r.png"" border=""10"">","null","trial","32","","0.6,0.4","3:go_c","1",""
"null","","html-keyboard-response","318","389657","0.0-6.0-2.32","","<div style=""font-size:60px;"">+</div>","null","","","","","","",""
"null","","image-keyboard-response","319","391158","0.0-6.0-0.33","","img/orange.png","null","trial","null","true","0.2,0.8","2:nogo_b","",""
"null","","html-keyboard-response","320","392159","0.0-6.0-1.33","","<img src=""img/orange-r.png"">","null","trial","null","","0.2,0.8","2:nogo_b","1",""
"null","","html-keyboard-response","321","393160","0.0-6.0-2.33","","<div style=""font-size:60px;"">+</div>","null","","","","","","",""
"null","","image-keyboard-response","322","394661","0.0-6.0-0.34","","img/red.png","null","trial","null","true","0.4,0.6","4:nogo_d","",""
"null","","html-keyboard-response","323","395661","0.0-6.0-1.34","","<img src=""img/red-n.png"">","null","trial","null","","0.4,0.6","4:nogo_d","0",""
"null","","html-keyboard-response","324","396662","0.0-6.0-2.34","","<div style=""font-size:60px;"">+</div>","null","","","","","","",""
"578","","image-keyboard-response","325","397241","0.0-6.0-0.35","","img/grey.png","32","trial","32","true","0.8,0.2","1:go_a","",""
"null","","html-keyboard-response","326","398241","0.0-6.0-1.35","","<img src=""img/grey-r.png"" border=""10"">","null","trial","32","","0.8,0.2","1:go_a","1",""
"null","","html-keyboard-response","327","399243","0.0-6.0-2.35","","<div style=""font-size:60px;"">+</div>","null","","","","","","",""
"656","","image-keyboard-response","328","399897","0.0-6.0-0.36","","img/red.png","32","trial","null","false","0.4,0.6","4:nogo_d","",""
"null","","html-keyboard-response","329","400898","0.0-6.0-1.36","","<img src=""img/red-r.png"" border=""10"">","null","trial","null","","0.4,0.6","4:nogo_d","1",""
"null","","html-keyboard-response","330","401898","0.0-6.0-2.36","","<div style=""font-size:60px;"">+</div>","null","","","","","","",""
"null","","image-keyboard-response","331","403399","0.0-6.0-0.37","","img/pink.png","null","trial","32","false","0.6,0.4","3:go_c","",""
"null","","html-keyboard-response","332","404399","0.0-6.0-1.37","","<img src=""img/pink-n.png"">","null","trial","32","","0.6,0.4","3:go_c","0",""
"null","","html-keyboard-response","333","405400","0.0-6.0-2.37","","<div style=""font-size:60px;"">+</div>","null","","","","","","",""
"570","","image-keyboard-response","334","405970","0.0-6.0-0.38","","img/grey.png","32","trial","32","true","0.8,0.2","1:go_a","",""
"null","","html-keyboard-response","335","406971","0.0-6.0-1.38","","<img src=""img/grey-r.png"" border=""10"">","null","trial","32","","0.8,0.2","1:go_a","1",""
"null","","html-keyboard-response","336","407971","0.0-6.0-2.38","","<div style=""font-size:60px;"">+</div>","null","","","","","","",""
"null","","image-keyboard-response","337","409472","0.0-6.0-0.39","","img/orange.png","null","trial","null","true","0.2,0.8","2:nogo_b","",""
"null","","html-keyboard-response","338","410472","0.0-6.0-1.39","","<img src=""img/orange-r.png"">","null","trial","null","","0.2,0.8","2:nogo_b","1",""
"null","","html-keyboard-response","339","411473","0.0-6.0-2.39","","<div style=""font-size:60px;"">+</div>","null","","","","","","",""
"null","","image-keyboard-response","340","412974","0.0-6.0-0.40","","img/orange.png","null","trial","null","true","0.2,0.8","2:nogo_b","",""
"null","","html-keyboard-response","341","413976","0.0-6.0-1.40","","<img src=""img/orange-r.png"">","null","trial","null","","0.2,0.8","2:nogo_b","1",""
"null","","html-keyboard-response","342","414976","0.0-6.0-2.40","","<div style=""font-size:60px;"">+</div>","null","","","","","","",""
"731","","image-keyboard-response","343","415708","0.0-6.0-0.41","","img/pink.png","32","trial","32","true","0.6,0.4","3:go_c","",""
"null","","html-keyboard-response","344","416709","0.0-6.0-1.41","","<img src=""img/pink-r.png"" border=""10"">","null","trial","32","","0.6,0.4","3:go_c","1",""
"null","","html-keyboard-response","345","417710","0.0-6.0-2.41","","<div style=""font-size:60px;"">+</div>","null","","","","","","",""
"630","","image-keyboard-response","346","418340","0.0-6.0-0.42","","img/grey.png","32","trial","32","true","0.8,0.2","1:go_a","",""
"null","","html-keyboard-response","347","419341","0.0-6.0-1.42","","<img src=""img/grey-r.png"" border=""10"">","null","trial","32","","0.8,0.2","1:go_a","1",""
"null","","html-keyboard-response","348","420341","0.0-6.0-2.42","","<div style=""font-size:60px;"">+</div>","null","","","","","","",""
"470","","image-keyboard-response","349","420812","0.0-6.0-0.43","","img/red.png","32","trial","null","false","0.4,0.6","4:nogo_d","",""
"null","","html-keyboard-response","350","421812","0.0-6.0-1.43","","<img src=""img/red-r.png"" border=""10"">","null","trial","null","","0.4,0.6","4:nogo_d","1",""
"null","","html-keyboard-response","351","422813","0.0-6.0-2.43","","<div style=""font-size:60px;"">+</div>","null","","","","","","",""
"null","","image-keyboard-response","352","424314","0.0-6.0-0.44","","img/orange.png","null","trial","null","true","0.2,0.8","2:nogo_b","",""
"null","","html-keyboard-response","353","425315","0.0-6.0-1.44","","<img src=""img/orange-r.png"">","null","trial","null","","0.2,0.8","2:nogo_b","1",""
"null","","html-keyboard-response","354","426318","0.0-6.0-2.44","","<div style=""font-size:60px;"">+</div>","null","","","","","","",""
"null","","image-keyboard-response","355","427818","0.0-6.0-0.45","","img/grey.png","null","trial","32","false","0.8,0.2","1:go_a","",""
"null","","html-keyboard-response","356","428819","0.0-6.0-1.45","","<img src=""img/grey-n.png"">","null","trial","32","","0.8,0.2","1:go_a","0",""
"null","","html-keyboard-response","357","429819","0.0-6.0-2.45","","<div style=""font-size:60px;"">+</div>","null","","","","","","",""
"633","","image-keyboard-response","358","430453","0.0-6.0-0.46","","img/pink.png","32","trial","32","true","0.6,0.4","3:go_c","",""
"null","","html-keyboard-response","359","431454","0.0-6.0-1.46","","<img src=""img/pink-r.png"" border=""10"">","null","trial","32","","0.6,0.4","3:go_c","1",""
"null","","html-keyboard-response","360","432454","0.0-6.0-2.46","","<div style=""font-size:60px;"">+</div>","null","","","","","","",""
"455","","image-keyboard-response","361","432909","0.0-6.0-0.47","","img/red.png","32","trial","null","false","0.4,0.6","4:nogo_d","",""
"null","","html-keyboard-response","362","433910","0.0-6.0-1.47","","<img src=""img/red-r.png"" border=""10"">","null","trial","null","","0.4,0.6","4:nogo_d","1",""
"null","","html-keyboard-response","363","434911","0.0-6.0-2.47","","<div style=""font-size:60px;"">+</div>","null","","","","","","",""
"606","","image-keyboard-response","364","435518","0.0-6.0-0.48","","img/pink.png","32","trial","32","true","0.6,0.4","3:go_c","",""
"null","","html-keyboard-response","365","436519","0.0-6.0-1.48","","<img src=""img/pink-r.png"" border=""10"">","null","trial","32","","0.6,0.4","3:go_c","1",""
"null","","html-keyboard-response","366","437519","0.0-6.0-2.48","","<div style=""font-size:60px;"">+</div>","null","","","","","","",""
"639","","image-keyboard-response","367","438158","0.0-6.0-0.49","","img/grey.png","32","trial","32","true","0.8,0.2","1:go_a","",""
"null","","html-keyboard-response","368","439159","0.0-6.0-1.49","","<img src=""img/grey-r.png"" border=""10"">","null","trial","32","","0.8,0.2","1:go_a","1",""
"null","","html-keyboard-response","369","440160","0.0-6.0-2.49","","<div style=""font-size:60px;"">+</div>","null","","","","","","",""
"null","","image-keyboard-response","370","441661","0.0-6.0-0.50","","img/orange.png","null","trial","null","true","0.2,0.8","2:nogo_b","",""
"null","","html-keyboard-response","371","442661","0.0-6.0-1.50","","<img src=""img/orange-r.png"">","null","trial","null","","0.2,0.8","2:nogo_b","1",""
"null","","html-keyboard-response","372","443663","0.0-6.0-2.50","","<div style=""font-size:60px;"">+</div>","null","","","","","","",""
"680","","image-keyboard-response","373","444343","0.0-6.0-0.51","","img/red.png","32","trial","null","false","0.4,0.6","4:nogo_d","",""
"null","","html-keyboard-response","374","445344","0.0-6.0-1.51","","<img src=""img/red-n.png"" border=""10"">","null","trial","null","","0.4,0.6","4:nogo_d","0",""
"null","","html-keyboard-response","375","446345","0.0-6.0-2.51","","<div style=""font-size:60px;"">+</div>","null","","","","","","",""
"494","","image-keyboard-response","376","446839","0.0-6.0-0.52","","img/pink.png","32","trial","32","true","0.6,0.4","3:go_c","",""
"null","","html-keyboard-response","377","447841","0.0-6.0-1.52","","<img src=""img/pink-r.png"" border=""10"">","null","trial","32","","0.6,0.4","3:go_c","1",""
"null","","html-keyboard-response","378","448842","0.0-6.0-2.52","","<div style=""font-size:60px;"">+</div>","null","","","","","","",""
"790","","image-keyboard-response","379","449632","0.0-6.0-0.53","","img/grey.png","32","trial","32","true","0.8,0.2","1:go_a","",""
"null","","html-keyboard-response","380","450632","0.0-6.0-1.53","","<img src=""img/grey-r.png"" border=""10"">","null","trial","32","","0.8,0.2","1:go_a","1",""
"null","","html-keyboard-response","381","451633","0.0-6.0-2.53","","<div style=""font-size:60px;"">+</div>","null","","","","","","",""
"720","","image-keyboard-response","382","452352","0.0-6.0-0.54","","img/red.png","32","trial","null","false","0.4,0.6","4:nogo_d","",""
"null","","html-keyboard-response","383","453353","0.0-6.0-1.54","","<img src=""img/red-r.png"" border=""10"">","null","trial","null","","0.4,0.6","4:nogo_d","1",""
"null","","html-keyboard-response","384","454354","0.0-6.0-2.54","","<div style=""font-size:60px;"">+</div>","null","","","","","","",""
"null","","image-keyboard-response","385","455855","0.0-6.0-0.55","","img/orange.png","null","trial","null","true","0.2,0.8","2:nogo_b","",""
"null","","html-keyboard-response","386","456856","0.0-6.0-1.55","","<img src=""img/orange-n.png"">","null","trial","null","","0.2,0.8","2:nogo_b","0",""
"null","","html-keyboard-response","387","457857","0.0-6.0-2.55","","<div style=""font-size:60px;"">+</div>","null","","","","","","",""
"1063","","image-keyboard-response","388","458921","0.0-6.0-0.56","","img/pink.png","32","trial","32","true","0.6,0.4","3:go_c","",""
"null","","html-keyboard-response","389","459921","0.0-6.0-1.56","","<img src=""img/pink-r.png"" border=""10"">","null","trial","32","","0.6,0.4","3:go_c","1",""
"null","","html-keyboard-response","390","460922","0.0-6.0-2.56","","<div style=""font-size:60px;"">+</div>","null","","","","","","",""
"702","","image-keyboard-response","391","461625","0.0-6.0-0.57","","img/red.png","32","trial","null","false","0.4,0.6","4:nogo_d","",""
"null","","html-keyboard-response","392","462626","0.0-6.0-1.57","","<img src=""img/red-n.png"" border=""10"">","null","trial","null","","0.4,0.6","4:nogo_d","0",""
"null","","html-keyboard-response","393","463627","0.0-6.0-2.57","","<div style=""font-size:60px;"">+</div>","null","","","","","","",""
"null","","image-keyboard-response","394","465129","0.0-6.0-0.58","","img/orange.png","null","trial","null","true","0.2,0.8","2:nogo_b","",""
"null","","html-keyboard-response","395","466130","0.0-6.0-1.58","","<img src=""img/orange-r.png"">","null","trial","null","","0.2,0.8","2:nogo_b","1",""
"null","","html-keyboard-response","396","467130","0.0-6.0-2.58","","<div style=""font-size:60px;"">+</div>","null","","","","","","",""
"758","","image-keyboard-response","397","467890","0.0-6.0-0.59","","img/grey.png","32","trial","32","true","0.8,0.2","1:go_a","",""
"null","","html-keyboard-response","398","468891","0.0-6.0-1.59","","<img src=""img/grey-r.png"" border=""10"">","null","trial","32","","0.8,0.2","1:go_a","1",""
"null","","html-keyboard-response","399","469892","0.0-6.0-2.59","","<div style=""font-size:60px;"">+</div>","null","","","","","","",""
"573","","image-keyboard-response","400","470466","0.0-6.0-0.60","","img/pink.png","32","trial","32","true","0.6,0.4","3:go_c","",""
"null","","html-keyboard-response","401","471467","0.0-6.0-1.60","","<img src=""img/pink-r.png"" border=""10"">","null","trial","32","","0.6,0.4","3:go_c","1",""
"null","","html-keyboard-response","402","472467","0.0-6.0-2.60","","<div style=""font-size:60px;"">+</div>","null","","","","","","",""
"542","","image-keyboard-response","403","473010","0.0-6.0-0.61","","img/grey.png","32","trial","32","true","0.8,0.2","1:go_a","",""
"null","","html-keyboard-response","404","474011","0.0-6.0-1.61","","<img src=""img/grey-r.png"" border=""10"">","null","trial","32","","0.8,0.2","1:go_a","1",""
"null","","html-keyboard-response","405","475012","0.0-6.0-2.61","","<div style=""font-size:60px;"">+</div>","null","","","","","","",""
"null","","image-keyboard-response","406","476512","0.0-6.0-0.62","","img/orange.png","null","trial","null","true","0.2,0.8","2:nogo_b","",""
"null","","html-keyboard-response","407","477513","0.0-6.0-1.62","","<img src=""img/orange-r.png"">","null","trial","null","","0.2,0.8","2:nogo_b","1",""
"null","","html-keyboard-response","408","478514","0.0-6.0-2.62","","<div style=""font-size:60px;"">+</div>","null","","","","","","",""
"null","","image-keyboard-response","409","480015","0.0-6.0-0.63","","img/red.png","null","trial","null","true","0.4,0.6","4:nogo_d","",""
"null","","html-keyboard-response","410","481018","0.0-6.0-1.63","","<img src=""img/red-r.png"">","null","trial","null","","0.4,0.6","4:nogo_d","1",""
"null","","html-keyboard-response","411","482018","0.0-6.0-2.63","","<div style=""font-size:60px;"">+</div>","null","","","","","","",""
"601","","image-keyboard-response","412","482619","0.0-6.0-0.64","","img/red.png","32","trial","null","false","0.4,0.6","4:nogo_d","",""
"null","","html-keyboard-response","413","483620","0.0-6.0-1.64","","<img src=""img/red-n.png"" border=""10"">","null","trial","null","","0.4,0.6","4:nogo_d","0",""
"null","","html-keyboard-response","414","484621","0.0-6.0-2.64","","<div style=""font-size:60px;"">+</div>","null","","","","","","",""
"725","","image-keyboard-response","415","485348","0.0-6.0-0.65","","img/grey.png","32","trial","32","true","0.8,0.2","1:go_a","",""
"null","","html-keyboard-response","416","486349","0.0-6.0-1.65","","<img src=""img/grey-n.png"" border=""10"">","null","trial","32","","0.8,0.2","1:go_a","0",""
"null","","html-keyboard-response","417","487349","0.0-6.0-2.65","","<div style=""font-size:60px;"">+</div>","null","","","","","","",""
"606","","image-keyboard-response","418","487956","0.0-6.0-0.66","","img/pink.png","32","trial","32","true","0.6,0.4","3:go_c","",""
"null","","html-keyboard-response","419","488957","0.0-6.0-1.66","","<img src=""img/pink-r.png"" border=""10"">","null","trial","32","","0.6,0.4","3:go_c","1",""
"null","","html-keyboard-response","420","489958","0.0-6.0-2.66","","<div style=""font-size:60px;"">+</div>","null","","","","","","",""
"null","","image-keyboard-response","421","491458","0.0-6.0-0.67","","img/orange.png","null","trial","null","true","0.2,0.8","2:nogo_b","",""
"null","","html-keyboard-response","422","492460","0.0-6.0-1.67","","<img src=""img/orange-r.png"">","null","trial","null","","0.2,0.8","2:nogo_b","1",""
"null","","html-keyboard-response","423","493459","0.0-6.0-2.67","","<div style=""font-size:60px;"">+</div>","null","","","","","","",""
"null","","image-keyboard-response","424","494961","0.0-6.0-0.68","","img/red.png","null","trial","null","true","0.4,0.6","4:nogo_d","",""
"null","","html-keyboard-response","425","495962","0.0-6.0-1.68","","<img src=""img/red-r.png"">","null","trial","null","","0.4,0.6","4:nogo_d","1",""
"null","","html-keyboard-response","426","496962","0.0-6.0-2.68","","<div style=""font-size:60px;"">+</div>","null","","","","","","",""
"null","","image-keyboard-response","427","498462","0.0-6.0-0.69","","img/grey.png","null","trial","32","false","0.8,0.2","1:go_a","",""
"null","","html-keyboard-response","428","499463","0.0-6.0-1.69","","<img src=""img/grey-n.png"">","null","trial","32","","0.8,0.2","1:go_a","0",""
"null","","html-keyboard-response","429","500464","0.0-6.0-2.69","","<div style=""font-size:60px;"">+</div>","null","","","","","","",""
"685","","image-keyboard-response","430","501150","0.0-6.0-0.70","","img/pink.png","32","trial","32","true","0.6,0.4","3:go_c","",""
"null","","html-keyboard-response","431","502150","0.0-6.0-1.70","","<img src=""img/pink-r.png"" border=""10"">","null","trial","32","","0.6,0.4","3:go_c","1",""
"null","","html-keyboard-response","432","503151","0.0-6.0-2.70","","<div style=""font-size:60px;"">+</div>","null","","","","","","",""
"null","","image-keyboard-response","433","504652","0.0-6.0-0.71","","img/orange.png","null","trial","null","true","0.2,0.8","2:nogo_b","",""
"null","","html-keyboard-response","434","505653","0.0-6.0-1.71","","<img src=""img/orange-r.png"">","null","trial","null","","0.2,0.8","2:nogo_b","1",""
"null","","html-keyboard-response","435","506653","0.0-6.0-2.71","","<div style=""font-size:60px;"">+</div>","null","","","","","","",""
"863","","image-keyboard-response","436","507518","0.0-6.0-0.72","","img/pink.png","32","trial","32","true","0.6,0.4","3:go_c","",""
"null","","html-keyboard-response","437","508520","0.0-6.0-1.72","","<img src=""img/pink-n.png"" border=""10"">","null","trial","32","","0.6,0.4","3:go_c","0",""
"null","","html-keyboard-response","438","509520","0.0-6.0-2.72","","<div style=""font-size:60px;"">+</div>","null","","","","","","",""
"null","","image-keyboard-response","439","511021","0.0-6.0-0.73","","img/orange.png","null","trial","null","true","0.2,0.8","2:nogo_b","",""
"null","","html-keyboard-response","440","512022","0.0-6.0-1.73","","<img src=""img/orange-r.png"">","null","trial","null","","0.2,0.8","2:nogo_b","1",""
"null","","html-keyboard-response","441","513022","0.0-6.0-2.73","","<div style=""font-size:60px;"">+</div>","null","","","","","","",""
"null","","image-keyboard-response","442","514524","0.0-6.0-0.74","","img/grey.png","null","trial","32","false","0.8,0.2","1:go_a","",""
"null","","html-keyboard-response","443","515524","0.0-6.0-1.74","","<img src=""img/grey-n.png"">","null","trial","32","","0.8,0.2","1:go_a","0",""
"null","","html-keyboard-response","444","516525","0.0-6.0-2.74","","<div style=""font-size:60px;"">+</div>","null","","","","","","",""
"834","","image-keyboard-response","445","517359","0.0-6.0-0.75","","img/red.png","32","trial","null","false","0.4,0.6","4:nogo_d","",""
"null","","html-keyboard-response","446","518360","0.0-6.0-1.75","","<img src=""img/red-n.png"" border=""10"">","null","trial","null","","0.4,0.6","4:nogo_d","0",""
"null","","html-keyboard-response","447","519362","0.0-6.0-2.75","","<div style=""font-size:60px;"">+</div>","null","","","","","","",""
"557","","image-keyboard-response","448","519920","0.0-6.0-0.76","","img/pink.png","32","trial","32","true","0.6,0.4","3:go_c","",""
"null","","html-keyboard-response","449","520921","0.0-6.0-1.76","","<img src=""img/pink-n.png"" border=""10"">","null","trial","32","","0.6,0.4","3:go_c","0",""
"null","","html-keyboard-response","450","521921","0.0-6.0-2.76","","<div style=""font-size:60px;"">+</div>","null","","","","","","",""
"null","","image-keyboard-response","451","523422","0.0-6.0-0.77","","img/orange.png","null","trial","null","true","0.2,0.8","2:nogo_b","",""
"null","","html-keyboard-response","452","524423","0.0-6.0-1.77","","<img src=""img/orange-r.png"">","null","trial","null","","0.2,0.8","2:nogo_b","1",""
"null","","html-keyboard-response","453","525424","0.0-6.0-2.77","","<div style=""font-size:60px;"">+</div>","null","","","","","","",""
"null","","image-keyboard-response","454","526926","0.0-6.0-0.78","","img/red.png","null","trial","null","true","0.4,0.6","4:nogo_d","",""
"null","","html-keyboard-response","455","527927","0.0-6.0-1.78","","<img src=""img/red-n.png"">","null","trial","null","","0.4,0.6","4:nogo_d","0",""
"null","","html-keyboard-response","456","528927","0.0-6.0-2.78","","<div style=""font-size:60px;"">+</div>","null","","","","","","",""
"818","","image-keyboard-response","457","529745","0.0-6.0-0.79","","img/grey.png","32","trial","32","true","0.8,0.2","1:go_a","",""
"null","","html-keyboard-response","458","530746","0.0-6.0-1.79","","<img src=""img/grey-r.png"" border=""10"">","null","trial","32","","0.8,0.2","1:go_a","1",""
"null","","html-keyboard-response","459","531747","0.0-6.0-2.79","","<div style=""font-size:60px;"">+</div>","null","","","","","","",""
"516","","image-keyboard-response","460","532265","0.0-6.0-0.80","","img/grey.png","32","trial","32","true","0.8,0.2","1:go_a","",""
"null","","html-keyboard-response","461","533266","0.0-6.0-1.80","","<img src=""img/grey-r.png"" border=""10"">","null","trial","32","","0.8,0.2","1:go_a","1",""
"null","","html-keyboard-response","462","534267","0.0-6.0-2.80","","<div style=""font-size:60px;"">+</div>","null","","","","","","",""
"650","","image-keyboard-response","463","534916","0.0-6.0-0.81","","img/red.png","32","trial","null","false","0.4,0.6","4:nogo_d","",""
"null","","html-keyboard-response","464","535918","0.0-6.0-1.81","","<img src=""img/red-n.png"" border=""10"">","null","trial","null","","0.4,0.6","4:nogo_d","0",""
"null","","html-keyboard-response","465","536919","0.0-6.0-2.81","","<div style=""font-size:60px;"">+</div>","null","","","","","","",""
"null","","image-keyboard-response","466","538419","0.0-6.0-0.82","","img/orange.png","null","trial","null","true","0.2,0.8","2:nogo_b","",""
"null","","html-keyboard-response","467","539420","0.0-6.0-1.82","","<img src=""img/orange-r.png"">","null","trial","null","","0.2,0.8","2:nogo_b","1",""
"null","","html-keyboard-response","468","540421","0.0-6.0-2.82","","<div style=""font-size:60px;"">+</div>","null","","","","","","",""
"677","","image-keyboard-response","469","541098","0.0-6.0-0.83","","img/pink.png","32","trial","32","true","0.6,0.4","3:go_c","",""
"null","","html-keyboard-response","470","542099","0.0-6.0-1.83","","<img src=""img/pink-r.png"" border=""10"">","null","trial","32","","0.6,0.4","3:go_c","1",""
"null","","html-keyboard-response","471","543100","0.0-6.0-2.83","","<div style=""font-size:60px;"">+</div>","null","","","","","","",""
"null","","image-keyboard-response","472","544600","0.0-6.0-0.84","","img/orange.png","null","trial","null","true","0.2,0.8","2:nogo_b","",""
"null","","html-keyboard-response","473","545601","0.0-6.0-1.84","","<img src=""img/orange-n.png"">","null","trial","null","","0.2,0.8","2:nogo_b","0",""
"null","","html-keyboard-response","474","546603","0.0-6.0-2.84","","<div style=""font-size:60px;"">+</div>","null","","","","","","",""
"855","","image-keyboard-response","475","547458","0.0-6.0-0.85","","img/grey.png","32","trial","32","true","0.8,0.2","1:go_a","",""
"null","","html-keyboard-response","476","548461","0.0-6.0-1.85","","<img src=""img/grey-r.png"" border=""10"">","null","trial","32","","0.8,0.2","1:go_a","1",""
"null","","html-keyboard-response","477","549461","0.0-6.0-2.85","","<div style=""font-size:60px;"">+</div>","null","","","","","","",""
"775","","image-keyboard-response","478","550236","0.0-6.0-0.86","","img/pink.png","32","trial","32","true","0.6,0.4","3:go_c","",""
"null","","html-keyboard-response","479","551237","0.0-6.0-1.86","","<img src=""img/pink-r.png"" border=""10"">","null","trial","32","","0.6,0.4","3:go_c","1",""
"null","","html-keyboard-response","480","552238","0.0-6.0-2.86","","<div style=""font-size:60px;"">+</div>","null","","","","","","",""
"733","","image-keyboard-response","481","552972","0.0-6.0-0.87","","img/red.png","32","trial","null","false","0.4,0.6","4:nogo_d","",""
"null","","html-keyboard-response","482","553973","0.0-6.0-1.87","","<img src=""img/red-n.png"" border=""10"">","null","trial","null","","0.4,0.6","4:nogo_d","0",""
"null","","html-keyboard-response","483","554973","0.0-6.0-2.87","","<div style=""font-size:60px;"">+</div>","null","","","","","","",""
"630","","image-keyboard-response","484","555604","0.0-6.0-0.88","","img/grey.png","32","trial","32","true","0.8,0.2","1:go_a","",""
"null","","html-keyboard-response","485","556605","0.0-6.0-1.88","","<img src=""img/grey-r.png"" border=""10"">","null","trial","32","","0.8,0.2","1:go_a","1",""
"null","","html-keyboard-response","486","557605","0.0-6.0-2.88","","<div style=""font-size:60px;"">+</div>","null","","","","","","",""
"710","","image-keyboard-response","487","558316","0.0-6.0-0.89","","img/pink.png","32","trial","32","true","0.6,0.4","3:go_c","",""
"null","","html-keyboard-response","488","559316","0.0-6.0-1.89","","<img src=""img/pink-n.png"" border=""10"">","null","trial","32","","0.6,0.4","3:go_c","0",""
"null","","html-keyboard-response","489","560317","0.0-6.0-2.89","","<div style=""font-size:60px;"">+</div>","null","","","","","","",""
"878","","image-keyboard-response","490","561197","0.0-6.0-0.90","","img/red.png","32","trial","null","false","0.4,0.6","4:nogo_d","",""
"null","","html-keyboard-response","491","562197","0.0-6.0-1.90","","<img src=""img/red-n.png"" border=""10"">","null","trial","null","","0.4,0.6","4:nogo_d","0",""
"null","","html-keyboard-response","492","563198","0.0-6.0-2.90","","<div style=""font-size:60px;"">+</div>","null","","","","","","",""
"null","","image-keyboard-response","493","564698","0.0-6.0-0.91","","img/orange.png","null","trial","null","true","0.2,0.8","2:nogo_b","",""
"null","","html-keyboard-response","494","565700","0.0-6.0-1.91","","<img src=""img/orange-n.png"">","null","trial","null","","0.2,0.8","2:nogo_b","0",""
"null","","html-keyboard-response","495","566701","0.0-6.0-2.91","","<div style=""font-size:60px;"">+</div>","null","","","","","","",""
"569","","image-keyboard-response","496","567269","0.0-6.0-0.92","","img/pink.png","32","trial","32","true","0.6,0.4","3:go_c","",""
"null","","html-keyboard-response","497","568275","0.0-6.0-1.92","","<img src=""img/pink-r.png"" border=""10"">","null","trial","32","","0.6,0.4","3:go_c","1",""
"null","","html-keyboard-response","498","569275","0.0-6.0-2.92","","<div style=""font-size:60px;"">+</div>","null","","","","","","",""
"null","","image-keyboard-response","499","570776","0.0-6.0-0.93","","img/orange.png","null","trial","null","true","0.2,0.8","2:nogo_b","",""
"null","","html-keyboard-response","500","571778","0.0-6.0-1.93","","<img src=""img/orange-r.png"">","null","trial","null","","0.2,0.8","2:nogo_b","1",""
"null","","html-keyboard-response","501","572778","0.0-6.0-2.93","","<div style=""font-size:60px;"">+</div>","null","","","","","","",""
"836","","image-keyboard-response","502","573614","0.0-6.0-0.94","","img/grey.png","32","trial","32","true","0.8,0.2","1:go_a","",""
"null","","html-keyboard-response","503","574615","0.0-6.0-1.94","","<img src=""img/grey-r.png"" border=""10"">","null","trial","32","","0.8,0.2","1:go_a","1",""
"null","","html-keyboard-response","504","575615","0.0-6.0-2.94","","<div style=""font-size:60px;"">+</div>","null","","","","","","",""
"783","","image-keyboard-response","505","576399","0.0-6.0-0.95","","img/red.png","32","trial","null","false","0.4,0.6","4:nogo_d","",""
"null","","html-keyboard-response","506","577399","0.0-6.0-1.95","","<img src=""img/red-n.png"" border=""10"">","null","trial","null","","0.4,0.6","4:nogo_d","0",""
"null","","html-keyboard-response","507","578400","0.0-6.0-2.95","","<div style=""font-size:60px;"">+</div>","null","","","","","","",""
"757","","image-keyboard-response","508","579159","0.0-6.0-0.96","","img/grey.png","32","trial","32","true","0.8,0.2","1:go_a","",""
"null","","html-keyboard-response","509","580159","0.0-6.0-1.96","","<img src=""img/grey-r.png"" border=""10"">","null","trial","32","","0.8,0.2","1:go_a","1",""
"null","","html-keyboard-response","510","581160","0.0-6.0-2.96","","<div style=""font-size:60px;"">+</div>","null","","","","","","",""
"null","","image-keyboard-response","511","582661","0.0-6.0-0.97","","img/orange.png","null","trial","null","true","0.2,0.8","2:nogo_b","",""
"null","","html-keyboard-response","512","583661","0.0-6.0-1.97","","<img src=""img/orange-r.png"">","null","trial","null","","0.2,0.8","2:nogo_b","1",""
"null","","html-keyboard-response","513","584662","0.0-6.0-2.97","","<div style=""font-size:60px;"">+</div>","null","","","","","","",""
"584","","image-keyboard-response","514","585248","0.0-6.0-0.98","","img/pink.png","32","trial","32","true","0.6,0.4","3:go_c","",""
"null","","html-keyboard-response","515","586249","0.0-6.0-1.98","","<img src=""img/pink-r.png"" border=""10"">","null","trial","32","","0.6,0.4","3:go_c","1",""
"null","","html-keyboard-response","516","587250","0.0-6.0-2.98","","<div style=""font-size:60px;"">+</div>","null","","","","","","",""
"1125","","image-keyboard-response","517","588375","0.0-6.0-0.99","","img/red.png","32","trial","null","false","0.4,0.6","4:nogo_d","",""
"null","","html-keyboard-response","518","589376","0.0-6.0-1.99","","<img src=""img/red-n.png"" border=""10"">","null","trial","null","","0.4,0.6","4:nogo_d","0",""
"null","","html-keyboard-response","519","590378","0.0-6.0-2.99","","<div style=""font-size:60px;"">+</div>","null","","","","","","",""
"1190","","image-keyboard-response","520","591568","0.0-6.0-0.100","","img/grey.png","32","trial","32","true","0.8,0.2","1:go_a","",""
"null","","html-keyboard-response","521","592569","0.0-6.0-1.100","","<img src=""img/grey-r.png"" border=""10"">","null","trial","32","","0.8,0.2","1:go_a","1",""
"null","","html-keyboard-response","522","593570","0.0-6.0-2.100","","<div style=""font-size:60px;"">+</div>","null","","","","","","",""
"null","","image-keyboard-response","523","595071","0.0-6.0-0.101","","img/red.png","null","trial","null","true","0.4,0.6","4:nogo_d","",""
"null","","html-keyboard-response","524","596071","0.0-6.0-1.101","","<img src=""img/red-r.png"">","null","trial","null","","0.4,0.6","4:nogo_d","1",""
"null","","html-keyboard-response","525","597074","0.0-6.0-2.101","","<div style=""font-size:60px;"">+</div>","null","","","","","","",""
"null","","image-keyboard-response","526","598574","0.0-6.0-0.102","","img/orange.png","null","trial","null","true","0.2,0.8","2:nogo_b","",""
"null","","html-keyboard-response","527","599575","0.0-6.0-1.102","","<img src=""img/orange-r.png"">","null","trial","null","","0.2,0.8","2:nogo_b","1",""
"null","","html-keyboard-response","528","600576","0.0-6.0-2.102","","<div style=""font-size:60px;"">+</div>","null","","","","","","",""
"655","","image-keyboard-response","529","601233","0.0-6.0-0.103","","img/pink.png","32","trial","32","true","0.6,0.4","3:go_c","",""
"null","","html-keyboard-response","530","602233","0.0-6.0-1.103","","<img src=""img/pink-n.png"" border=""10"">","null","trial","32","","0.6,0.4","3:go_c","0",""
"null","","html-keyboard-response","531","603234","0.0-6.0-2.103","","<div style=""font-size:60px;"">+</div>","null","","","","","","",""
"null","","image-keyboard-response","532","604735","0.0-6.0-0.104","","img/orange.png","null","trial","null","true","0.2,0.8","2:nogo_b","",""
"null","","html-keyboard-response","533","605736","0.0-6.0-1.104","","<img src=""img/orange-r.png"">","null","trial","null","","0.2,0.8","2:nogo_b","1",""
"null","","html-keyboard-response","534","606737","0.0-6.0-2.104","","<div style=""font-size:60px;"">+</div>","null","","","","","","",""
"null","","image-keyboard-response","535","608239","0.0-6.0-0.105","","img/red.png","null","trial","null","true","0.4,0.6","4:nogo_d","",""
"null","","html-keyboard-response","536","609240","0.0-6.0-1.105","","<img src=""img/red-r.png"">","null","trial","null","","0.4,0.6","4:nogo_d","1",""
"null","","html-keyboard-response","537","610241","0.0-6.0-2.105","","<div style=""font-size:60px;"">+</div>","null","","","","","","",""
"601","","image-keyboard-response","538","610842","0.0-6.0-0.106","","img/pink.png","32","trial","32","true","0.6,0.4","3:go_c","",""
"null","","html-keyboard-response","539","611843","0.0-6.0-1.106","","<img src=""img/pink-r.png"" border=""10"">","null","trial","32","","0.6,0.4","3:go_c","1",""
"null","","html-keyboard-response","540","612843","0.0-6.0-2.106","","<div style=""font-size:60px;"">+</div>","null","","","","","","",""
"919","","image-keyboard-response","541","613763","0.0-6.0-0.107","","img/grey.png","32","trial","32","true","0.8,0.2","1:go_a","",""
"null","","html-keyboard-response","542","614763","0.0-6.0-1.107","","<img src=""img/grey-r.png"" border=""10"">","null","trial","32","","0.8,0.2","1:go_a","1",""
"null","","html-keyboard-response","543","615764","0.0-6.0-2.107","","<div style=""font-size:60px;"">+</div>","null","","","","","","",""
"534","","image-keyboard-response","544","616299","0.0-6.0-0.108","","img/pink.png","32","trial","32","true","0.6,0.4","3:go_c","",""
"null","","html-keyboard-response","545","617300","0.0-6.0-1.108","","<img src=""img/pink-r.png"" border=""10"">","null","trial","32","","0.6,0.4","3:go_c","1",""
"null","","html-keyboard-response","546","618300","0.0-6.0-2.108","","<div style=""font-size:60px;"">+</div>","null","","","","","","",""
"null","","image-keyboard-response","547","619801","0.0-6.0-0.109","","img/orange.png","null","trial","null","true","0.2,0.8","2:nogo_b","",""
"null","","html-keyboard-response","548","620802","0.0-6.0-1.109","","<img src=""img/orange-r.png"">","null","trial","null","","0.2,0.8","2:nogo_b","1",""
"null","","html-keyboard-response","549","621802","0.0-6.0-2.109","","<div style=""font-size:60px;"">+</div>","null","","","","","","",""
"null","","image-keyboard-response","550","623302","0.0-6.0-0.110","","img/red.png","null","trial","null","true","0.4,0.6","4:nogo_d","",""
"null","","html-keyboard-response","551","624304","0.0-6.0-1.110","","<img src=""img/red-r.png"">","null","trial","null","","0.4,0.6","4:nogo_d","1",""
"null","","html-keyboard-response","552","625305","0.0-6.0-2.110","","<div style=""font-size:60px;"">+</div>","null","","","","","","",""
"795","","image-keyboard-response","553","626100","0.0-6.0-0.111","","img/grey.png","32","trial","32","true","0.8,0.2","1:go_a","",""
"null","","html-keyboard-response","554","627101","0.0-6.0-1.111","","<img src=""img/grey-r.png"" border=""10"">","null","trial","32","","0.8,0.2","1:go_a","1",""
"null","","html-keyboard-response","555","628102","0.0-6.0-2.111","","<div style=""font-size:60px;"">+</div>","null","","","","","","",""
"null","","image-keyboard-response","556","629603","0.0-6.0-0.112","","img/red.png","null","trial","null","true","0.4,0.6","4:nogo_d","",""
"null","","html-keyboard-response","557","630604","0.0-6.0-1.112","","<img src=""img/red-n.png"">","null","trial","null","","0.4,0.6","4:nogo_d","0",""
"null","","html-keyboard-response","558","631604","0.0-6.0-2.112","","<div style=""font-size:60px;"">+</div>","null","","","","","","",""
"584","","image-keyboard-response","559","632188","0.0-6.0-0.113","","img/grey.png","32","trial","32","true","0.8,0.2","1:go_a","",""
"null","","html-keyboard-response","560","633190","0.0-6.0-1.113","","<img src=""img/grey-n.png"" border=""10"">","null","trial","32","","0.8,0.2","1:go_a","0",""
"null","","html-keyboard-response","561","634191","0.0-6.0-2.113","","<div style=""font-size:60px;"">+</div>","null","","","","","","",""
"null","","image-keyboard-response","562","635693","0.0-6.0-0.114","","img/orange.png","null","trial","null","true","0.2,0.8","2:nogo_b","",""
"null","","html-keyboard-response","563","636694","0.0-6.0-1.114","","<img src=""img/orange-r.png"">","null","trial","null","","0.2,0.8","2:nogo_b","1",""
"null","","html-keyboard-response","564","637695","0.0-6.0-2.114","","<div style=""font-size:60px;"">+</div>","null","","","","","","",""
"591","","image-keyboard-response","565","638286","0.0-6.0-0.115","","img/pink.png","32","trial","32","true","0.6,0.4","3:go_c","",""
"null","","html-keyboard-response","566","639287","0.0-6.0-1.115","","<img src=""img/pink-r.png"" border=""10"">","null","trial","32","","0.6,0.4","3:go_c","1",""
"null","","html-keyboard-response","567","640289","0.0-6.0-2.115","","<div style=""font-size:60px;"">+</div>","null","","","","","","",""
"581","","image-keyboard-response","568","640870","0.0-6.0-0.116","","img/grey.png","32","trial","32","true","0.8,0.2","1:go_a","",""
"null","","html-keyboard-response","569","641871","0.0-6.0-1.116","","<img src=""img/grey-r.png"" border=""10"">","null","trial","32","","0.8,0.2","1:go_a","1",""
"null","","html-keyboard-response","570","642872","0.0-6.0-2.116","","<div style=""font-size:60px;"">+</div>","null","","","","","","",""
"null","","image-keyboard-response","571","644372","0.0-6.0-0.117","","img/orange.png","null","trial","null","true","0.2,0.8","2:nogo_b","",""
"null","","html-keyboard-response","572","645374","0.0-6.0-1.117","","<img src=""img/orange-r.png"">","null","trial","null","","0.2,0.8","2:nogo_b","1",""
"null","","html-keyboard-response","573","646376","0.0-6.0-2.117","","<div style=""font-size:60px;"">+</div>","null","","","","","","",""
"503","","image-keyboard-response","574","646879","0.0-6.0-0.118","","img/pink.png","32","trial","32","true","0.6,0.4","3:go_c","",""
"null","","html-keyboard-response","575","647880","0.0-6.0-1.118","","<img src=""img/pink-r.png"" border=""10"">","null","trial","32","","0.6,0.4","3:go_c","1",""
"null","","html-keyboard-response","576","648881","0.0-6.0-2.118","","<div style=""font-size:60px;"">+</div>","null","","","","","","",""
"766","","image-keyboard-response","577","649647","0.0-6.0-0.119","","img/red.png","32","trial","null","false","0.4,0.6","4:nogo_d","",""
"null","","html-keyboard-response","578","650648","0.0-6.0-1.119","","<img src=""img/red-r.png"" border=""10"">","null","trial","null","","0.4,0.6","4:nogo_d","1",""
"null","","html-keyboard-response","579","651648","0.0-6.0-2.119","","<div style=""font-size:60px;"">+</div>","null","","","","","","",""
"2610","","instructions","580","654259","0.0-7.0","[{""page_index"":0,""viewing_time"":2610}]","","","","","","","","",""
"909","","image-keyboard-response","581","655167","0.0-8.0-0.0","","img/blue.png","32","trial","null","false","0.2,0.8","4:nogo_d","",""
"null","","html-keyboard-response","582","656170","0.0-8.0-1.0","","<img src=""img/blue-n.png"" border=""10"">","null","trial","null","","0.2,0.8","4:nogo_d","0",""
"null","","html-keyboard-response","583","657170","0.0-8.0-2.0","","<div style=""font-size:60px;"">+</div>","null","","","","","","",""
"630","","image-keyboard-response","584","657800","0.0-8.0-0.1","","img/grey.png","32","trial","32","true","0.8,0.2","1:go_a","",""
"null","","html-keyboard-response","585","658801","0.0-8.0-1.1","","<img src=""img/grey-r.png"" border=""10"">","null","trial","32","","0.8,0.2","1:go_a","1",""
"null","","html-keyboard-response","586","659802","0.0-8.0-2.1","","<div style=""font-size:60px;"">+</div>","null","","","","","","",""
"828","","image-keyboard-response","587","660632","0.0-8.0-0.2","","img/pink.png","32","trial","null","false","0.2,0.8","2:nogo_b","",""
"null","","html-keyboard-response","588","661632","0.0-8.0-1.2","","<img src=""img/pink-n.png"" border=""10"">","null","trial","null","","0.2,0.8","2:nogo_b","0",""
"null","","html-keyboard-response","589","662633","0.0-8.0-2.2","","<div style=""font-size:60px;"">+</div>","null","","","","","","",""
"606","","image-keyboard-response","590","663240","0.0-8.0-0.3","","img/red.png","32","trial","32","true","0.8,0.2","3:go_c","",""
"null","","html-keyboard-response","591","664241","0.0-8.0-1.3","","<img src=""img/red-r.png"" border=""10"">","null","trial","32","","0.8,0.2","3:go_c","1",""
"null","","html-keyboard-response","592","665242","0.0-8.0-2.3","","<div style=""font-size:60px;"">+</div>","null","","","","","","",""
"502","","image-keyboard-response","593","665745","0.0-8.0-0.4","","img/red.png","32","trial","32","true","0.8,0.2","3:go_c","",""
"null","","html-keyboard-response","594","666745","0.0-8.0-1.4","","<img src=""img/red-r.png"" border=""10"">","null","trial","32","","0.8,0.2","3:go_c","1",""
"null","","html-keyboard-response","595","667746","0.0-8.0-2.4","","<div style=""font-size:60px;"">+</div>","null","","","","","","",""
"902","","image-keyboard-response","596","668649","0.0-8.0-0.5","","img/grey.png","32","trial","32","true","0.8,0.2","1:go_a","",""
"null","","html-keyboard-response","597","669650","0.0-8.0-1.5","","<img src=""img/grey-r.png"" border=""10"">","null","trial","32","","0.8,0.2","1:go_a","1",""
"null","","html-keyboard-response","598","670651","0.0-8.0-2.5","","<div style=""font-size:60px;"">+</div>","null","","","","","","",""
"null","","image-keyboard-response","599","672153","0.0-8.0-0.6","","img/pink.png","null","trial","null","true","0.2,0.8","2:nogo_b","",""
"null","","html-keyboard-response","600","673155","0.0-8.0-1.6","","<img src=""img/pink-r.png"">","null","trial","null","","0.2,0.8","2:nogo_b","1",""
"null","","html-keyboard-response","601","674156","0.0-8.0-2.6","","<div style=""font-size:60px;"">+</div>","null","","","","","","",""
"572","","image-keyboard-response","602","674730","0.0-8.0-0.7","","img/blue.png","32","trial","null","false","0.2,0.8","4:nogo_d","",""
"null","","html-keyboard-response","603","675731","0.0-8.0-1.7","","<img src=""img/blue-n.png"" border=""10"">","null","trial","null","","0.2,0.8","4:nogo_d","0",""
"null","","html-keyboard-response","604","676732","0.0-8.0-2.7","","<div style=""font-size:60px;"">+</div>","null","","","","","","",""
"null","","image-keyboard-response","605","678233","0.0-8.0-0.8","","img/pink.png","null","trial","null","true","0.2,0.8","2:nogo_b","",""
"null","","html-keyboard-response","606","679234","0.0-8.0-1.8","","<img src=""img/pink-r.png"">","null","trial","null","","0.2,0.8","2:nogo_b","1",""
"null","","html-keyboard-response","607","680235","0.0-8.0-2.8","","<div style=""font-size:60px;"">+</div>","null","","","","","","",""
"567","","image-keyboard-response","608","680803","0.0-8.0-0.9","","img/grey.png","32","trial","32","true","0.8,0.2","1:go_a","",""
"null","","html-keyboard-response","609","681804","0.0-8.0-1.9","","<img src=""img/grey-n.png"" border=""10"">","null","trial","32","","0.8,0.2","1:go_a","0",""
"null","","html-keyboard-response","610","682805","0.0-8.0-2.9","","<div style=""font-size:60px;"">+</div>","null","","","","","","",""
"687","","image-keyboard-response","611","683490","0.0-8.0-0.10","","img/red.png","32","trial","32","true","0.8,0.2","3:go_c","",""
"null","","html-keyboard-response","612","684492","0.0-8.0-1.10","","<img src=""img/red-r.png"" border=""10"">","null","trial","32","","0.8,0.2","3:go_c","1",""
"null","","html-keyboard-response","613","685492","0.0-8.0-2.10","","<div style=""font-size:60px;"">+</div>","null","","","","","","",""
"null","","image-keyboard-response","614","686994","0.0-8.0-0.11","","img/blue.png","null","trial","null","true","0.2,0.8","4:nogo_d","",""
"null","","html-keyboard-response","615","687995","0.0-8.0-1.11","","<img src=""img/blue-r.png"">","null","trial","null","","0.2,0.8","4:nogo_d","1",""
"null","","html-keyboard-response","616","688995","0.0-8.0-2.11","","<div style=""font-size:60px;"">+</div>","null","","","","","","",""
"616","","image-keyboard-response","617","689611","0.0-8.0-0.12","","img/grey.png","32","trial","32","true","0.8,0.2","1:go_a","",""
"null","","html-keyboard-response","618","690612","0.0-8.0-1.12","","<img src=""img/grey-n.png"" border=""10"">","null","trial","32","","0.8,0.2","1:go_a","0",""
"null","","html-keyboard-response","619","691613","0.0-8.0-2.12","","<div style=""font-size:60px;"">+</div>","null","","","","","","",""
"null","","image-keyboard-response","620","693114","0.0-8.0-0.13","","img/blue.png","null","trial","null","true","0.2,0.8","4:nogo_d","",""
"null","","html-keyboard-response","621","694115","0.0-8.0-1.13","","<img src=""img/blue-n.png"">","null","trial","null","","0.2,0.8","4:nogo_d","0",""
"null","","html-keyboard-response","622","695116","0.0-8.0-2.13","","<div style=""font-size:60px;"">+</div>","null","","","","","","",""
"null","","image-keyboard-response","623","696617","0.0-8.0-0.14","","img/pink.png","null","trial","null","true","0.2,0.8","2:nogo_b","",""
"null","","html-keyboard-response","624","697618","0.0-8.0-1.14","","<img src=""img/pink-r.png"">","null","trial","null","","0.2,0.8","2:nogo_b","1",""
"null","","html-keyboard-response","625","698618","0.0-8.0-2.14","","<div style=""font-size:60px;"">+</div>","null","","","","","","",""
"514","","image-keyboard-response","626","699133","0.0-8.0-0.15","","img/red.png","32","trial","32","true","0.8,0.2","3:go_c","",""
"null","","html-keyboard-response","627","700133","0.0-8.0-1.15","","<img src=""img/red-r.png"" border=""10"">","null","trial","32","","0.8,0.2","3:go_c","1",""
"null","","html-keyboard-response","628","701134","0.0-8.0-2.15","","<div style=""font-size:60px;"">+</div>","null","","","","","","",""
"774","","image-keyboard-response","629","701909","0.0-8.0-0.16","","img/grey.png","32","trial","32","true","0.8,0.2","1:go_a","",""
"null","","html-keyboard-response","630","702910","0.0-8.0-1.16","","<img src=""img/grey-r.png"" border=""10"">","null","trial","32","","0.8,0.2","1:go_a","1",""
"null","","html-keyboard-response","631","703911","0.0-8.0-2.16","","<div style=""font-size:60px;"">+</div>","null","","","","","","",""
"null","","image-keyboard-response","632","705411","0.0-8.0-0.17","","img/pink.png","null","trial","null","true","0.2,0.8","2:nogo_b","",""
"null","","html-keyboard-response","633","706413","0.0-8.0-1.17","","<img src=""img/pink-r.png"">","null","trial","null","","0.2,0.8","2:nogo_b","1",""
"null","","html-keyboard-response","634","707413","0.0-8.0-2.17","","<div style=""font-size:60px;"">+</div>","null","","","","","","",""
"null","","image-keyboard-response","635","708914","0.0-8.0-0.18","","img/blue.png","null","trial","null","true","0.2,0.8","4:nogo_d","",""
"null","","html-keyboard-response","636","709916","0.0-8.0-1.18","","<img src=""img/blue-r.png"">","null","trial","null","","0.2,0.8","4:nogo_d","1",""
"null","","html-keyboard-response","637","710918","0.0-8.0-2.18","","<div style=""font-size:60px;"">+</div>","null","","","","","","",""
"769","","image-keyboard-response","638","711687","0.0-8.0-0.19","","img/red.png","32","trial","32","true","0.8,0.2","3:go_c","",""
"null","","html-keyboard-response","639","712688","0.0-8.0-1.19","","<img src=""img/red-r.png"" border=""10"">","null","trial","32","","0.8,0.2","3:go_c","1",""
"null","","html-keyboard-response","640","713689","0.0-8.0-2.19","","<div style=""font-size:60px;"">+</div>","null","","","","","","",""
"null","","image-keyboard-response","641","715190","0.0-8.0-0.20","","img/blue.png","null","trial","null","true","0.2,0.8","4:nogo_d","",""
"null","","html-keyboard-response","642","716191","0.0-8.0-1.20","","<img src=""img/blue-r.png"">","null","trial","null","","0.2,0.8","4:nogo_d","1",""
"null","","html-keyboard-response","643","717192","0.0-8.0-2.20","","<div style=""font-size:60px;"">+</div>","null","","","","","","",""
"535","","image-keyboard-response","644","717726","0.0-8.0-0.21","","img/grey.png","32","trial","32","true","0.8,0.2","1:go_a","",""
"null","","html-keyboard-response","645","718727","0.0-8.0-1.21","","<img src=""img/grey-r.png"" border=""10"">","null","trial","32","","0.8,0.2","1:go_a","1",""
"null","","html-keyboard-response","646","719728","0.0-8.0-2.21","","<div style=""font-size:60px;"">+</div>","null","","","","","","",""
"693","","image-keyboard-response","647","720423","0.0-8.0-0.22","","img/pink.png","32","trial","null","false","0.2,0.8","2:nogo_b","",""
"null","","html-keyboard-response","648","721425","0.0-8.0-1.22","","<img src=""img/pink-n.png"" border=""10"">","null","trial","null","","0.2,0.8","2:nogo_b","0",""
"null","","html-keyboard-response","649","722425","0.0-8.0-2.22","","<div style=""font-size:60px;"">+</div>","null","","","","","","",""
"635","","image-keyboard-response","650","723060","0.0-8.0-0.23","","img/red.png","32","trial","32","true","0.8,0.2","3:go_c","",""
"null","","html-keyboard-response","651","724061","0.0-8.0-1.23","","<img src=""img/red-n.png"" border=""10"">","null","trial","32","","0.8,0.2","3:go_c","0",""
"null","","html-keyboard-response","652","725061","0.0-8.0-2.23","","<div style=""font-size:60px;"">+</div>","null","","","","","","",""
"null","","image-keyboard-response","653","726562","0.0-8.0-0.24","","img/pink.png","null","trial","null","true","0.2,0.8","2:nogo_b","",""
"null","","html-keyboard-response","654","727562","0.0-8.0-1.24","","<img src=""img/pink-r.png"">","null","trial","null","","0.2,0.8","2:nogo_b","1",""
"null","","html-keyboard-response","655","728564","0.0-8.0-2.24","","<div style=""font-size:60px;"">+</div>","null","","","","","","",""
"null","","image-keyboard-response","656","730064","0.0-8.0-0.25","","img/red.png","null","trial","32","false","0.8,0.2","3:go_c","",""
"null","","html-keyboard-response","657","731065","0.0-8.0-1.25","","<img src=""img/red-n.png"">","null","trial","32","","0.8,0.2","3:go_c","0",""
"null","","html-keyboard-response","658","732066","0.0-8.0-2.25","","<div style=""font-size:60px;"">+</div>","null","","","","","","",""
"655","","image-keyboard-response","659","732721","0.0-8.0-0.26","","img/grey.png","32","trial","32","true","0.8,0.2","1:go_a","",""
"null","","html-keyboard-response","660","733722","0.0-8.0-1.26","","<img src=""img/grey-n.png"" border=""10"">","null","trial","32","","0.8,0.2","1:go_a","0",""
"null","","html-keyboard-response","661","734722","0.0-8.0-2.26","","<div style=""font-size:60px;"">+</div>","null","","","","","","",""
"null","","image-keyboard-response","662","736222","0.0-8.0-0.27","","img/blue.png","null","trial","null","true","0.2,0.8","4:nogo_d","",""
"null","","html-keyboard-response","663","737223","0.0-8.0-1.27","","<img src=""img/blue-r.png"">","null","trial","null","","0.2,0.8","4:nogo_d","1",""
"null","","html-keyboard-response","664","738225","0.0-8.0-2.27","","<div style=""font-size:60px;"">+</div>","null","","","","","","",""
"null","","image-keyboard-response","665","739725","0.0-8.0-0.28","","img/blue.png","null","trial","null","true","0.2,0.8","4:nogo_d","",""
"null","","html-keyboard-response","666","740726","0.0-8.0-1.28","","<img src=""img/blue-r.png"">","null","trial","null","","0.2,0.8","4:nogo_d","1",""
"null","","html-keyboard-response","667","741727","0.0-8.0-2.28","","<div style=""font-size:60px;"">+</div>","null","","","","","","",""
"null","","image-keyboard-response","668","743228","0.0-8.0-0.29","","img/pink.png","null","trial","null","true","0.2,0.8","2:nogo_b","",""
"null","","html-keyboard-response","669","744229","0.0-8.0-1.29","","<img src=""img/pink-r.png"">","null","trial","null","","0.2,0.8","2:nogo_b","1",""
"null","","html-keyboard-response","670","745230","0.0-8.0-2.29","","<div style=""font-size:60px;"">+</div>","null","","","","","","",""
"732","","image-keyboard-response","671","745962","0.0-8.0-0.30","","img/grey.png","32","trial","32","true","0.8,0.2","1:go_a","",""
"null","","html-keyboard-response","672","746963","0.0-8.0-1.30","","<img src=""img/grey-r.png"" border=""10"">","null","trial","32","","0.8,0.2","1:go_a","1",""
"null","","html-keyboard-response","673","747963","0.0-8.0-2.30","","<div style=""font-size:60px;"">+</div>","null","","","","","","",""
"799","","image-keyboard-response","674","748762","0.0-8.0-0.31","","img/red.png","32","trial","32","true","0.8,0.2","3:go_c","",""
"null","","html-keyboard-response","675","749763","0.0-8.0-1.31","","<img src=""img/red-r.png"" border=""10"">","null","trial","32","","0.8,0.2","3:go_c","1",""
"null","","html-keyboard-response","676","750764","0.0-8.0-2.31","","<div style=""font-size:60px;"">+</div>","null","","","","","","",""
"550","","image-keyboard-response","677","751315","0.0-8.0-0.32","","img/red.png","32","trial","32","true","0.8,0.2","3:go_c","",""
"null","","html-keyboard-response","678","752316","0.0-8.0-1.32","","<img src=""img/red-r.png"" border=""10"">","null","trial","32","","0.8,0.2","3:go_c","1",""
"null","","html-keyboard-response","679","753317","0.0-8.0-2.32","","<div style=""font-size:60px;"">+</div>","null","","","","","","",""
"null","","image-keyboard-response","680","754817","0.0-8.0-0.33","","img/grey.png","null","trial","32","false","0.8,0.2","1:go_a","",""
"null","","html-keyboard-response","681","755818","0.0-8.0-1.33","","<img src=""img/grey-r.png"">","null","trial","32","","0.8,0.2","1:go_a","1",""
"null","","html-keyboard-response","682","756819","0.0-8.0-2.33","","<div style=""font-size:60px;"">+</div>","null","","","","","","",""
"null","","image-keyboard-response","683","758320","0.0-8.0-0.34","","img/blue.png","null","trial","null","true","0.2,0.8","4:nogo_d","",""
"null","","html-keyboard-response","684","759321","0.0-8.0-1.34","","<img src=""img/blue-r.png"">","null","trial","null","","0.2,0.8","4:nogo_d","1",""
"null","","html-keyboard-response","685","760322","0.0-8.0-2.34","","<div style=""font-size:60px;"">+</div>","null","","","","","","",""
"null","","image-keyboard-response","686","761823","0.0-8.0-0.35","","img/pink.png","null","trial","null","true","0.2,0.8","2:nogo_b","",""
"null","","html-keyboard-response","687","762824","0.0-8.0-1.35","","<img src=""img/pink-r.png"">","null","trial","null","","0.2,0.8","2:nogo_b","1",""
"null","","html-keyboard-response","688","763825","0.0-8.0-2.35","","<div style=""font-size:60px;"">+</div>","null","","","","","","",""
"null","","image-keyboard-response","689","765326","0.0-8.0-0.36","","img/pink.png","null","trial","null","true","0.2,0.8","2:nogo_b","",""
"null","","html-keyboard-response","690","766328","0.0-8.0-1.36","","<img src=""img/pink-r.png"">","null","trial","null","","0.2,0.8","2:nogo_b","1",""
"null","","html-keyboard-response","691","767328","0.0-8.0-2.36","","<div style=""font-size:60px;"">+</div>","null","","","","","","",""
"1068","","image-keyboard-response","692","768397","0.0-8.0-0.37","","img/red.png","32","trial","32","true","0.8,0.2","3:go_c","",""
"null","","html-keyboard-response","693","769397","0.0-8.0-1.37","","<img src=""img/red-r.png"" border=""10"">","null","trial","32","","0.8,0.2","3:go_c","1",""
"null","","html-keyboard-response","694","770399","0.0-8.0-2.37","","<div style=""font-size:60px;"">+</div>","null","","","","","","",""
"806","","image-keyboard-response","695","771205","0.0-8.0-0.38","","img/grey.png","32","trial","32","true","0.8,0.2","1:go_a","",""
