"rt","url","trial_type","trial_index","time_elapsed","internal_node_id","view_history","stimulus","key_press","test_part","correct_response","correct","use_rew","which_stim","reward","responses"
"6682.435000009718","consent.html","external-html","0","6802","0.0-0.0","","","","","","","","","",""
"170063.56499998947","","instructions","1","176869","0.0-1.0","[{""page_index"":0,""viewing_time"":7779.259999995702},{""page_index"":1,""viewing_time"":37555.30500000168},{""page_index"":2,""viewing_time"":10846.120000001974},{""page_index"":3,""viewing_time"":41090.22499999264},{""page_index"":4,""viewing_time"":26310.324999998556},{""page_index"":5,""viewing_time"":19237.510000006296},{""page_index"":6,""viewing_time"":27242.839999991702}]","","","","","","","","",""
"null","","image-keyboard-response","2","178375","0.0-2.0-0.0","","img/test3.PNG","null","practice","null","true","","","",""
"null","","html-keyboard-response","3","179377","0.0-2.0-1.0","","<img src=""img/test3-reward.PNG"">","null","","","","","","",""
"null","","html-keyboard-response","4","180380","0.0-2.0-2.0","","<div style=""font-size:60px;"">+</div>","null","","","","","","",""
"null","","image-keyboard-response","5","181882","0.0-2.0-0.1","","img/test2.PNG","null","practice","null","true","","","",""
"null","","html-keyboard-response","6","182885","0.0-2.0-1.1","","<img src=""img/test2-reward.PNG"">","null","","","","","","",""
"null","","html-keyboard-response","7","183888","0.0-2.0-2.1","","<div style=""font-size:60px;"">+</div>","null","","","","","","",""
"441.964999990887","","image-keyboard-response","8","184334","0.0-2.0-0.2","","img/test1.PNG","32","practice","32","true","","","",""
"null","","html-keyboard-response","9","185336","0.0-2.0-1.2","","<img src=""img/test1-reward.PNG"" border=""10px; grey"">","null","","","","","","",""
"null","","html-keyboard-response","10","186338","0.0-2.0-2.2","","<div style=""font-size:60px;"">+</div>","null","","","","","","",""
"450.330000006943","","image-keyboard-response","11","186790","0.0-2.0-0.3","","img/test1.PNG","32","practice","32","true","","","",""
"null","","html-keyboard-response","12","187793","0.0-2.0-1.3","","<img src=""img/test1-reward.PNG"" border=""10px; grey"">","null","","","","","","",""
"null","","html-keyboard-response","13","188796","0.0-2.0-2.3","","<div style=""font-size:60px;"">+</div>","null","","","","","","",""
"null","","image-keyboard-response","14","190298","0.0-2.0-0.4","","img/test3.PNG","null","practice","null","true","","","",""
"null","","html-keyboard-response","15","191300","0.0-2.0-1.4","","<img src=""img/test3-reward.PNG"">","null","","","","","","",""
"null","","html-keyboard-response","16","192305","0.0-2.0-2.4","","<div style=""font-size:60px;"">+</div>","null","","","","","","",""
"null","","image-keyboard-response","17","193808","0.0-2.0-0.5","","img/test2.PNG","null","practice","null","true","","","",""
"null","","html-keyboard-response","18","194810","0.0-2.0-1.5","","<img src=""img/test2-reward.PNG"">","null","","","","","","",""
"null","","html-keyboard-response","19","195812","0.0-2.0-2.5","","<div style=""font-size:60px;"">+</div>","null","","","","","","",""
"null","","image-keyboard-response","20","197316","0.0-2.0-0.6","","img/test2.PNG","null","practice","null","true","","","",""
"null","","html-keyboard-response","21","198318","0.0-2.0-1.6","","<img src=""img/test2-reward.PNG"">","null","","","","","","",""
"null","","html-keyboard-response","22","199321","0.0-2.0-2.6","","<div style=""font-size:60px;"">+</div>","null","","","","","","",""
"388.02499999292195","","image-keyboard-response","23","199713","0.0-2.0-0.7","","img/test1.PNG","32","practice","32","true","","","",""
"null","","html-keyboard-response","24","200715","0.0-2.0-1.7","","<img src=""img/test1-reward.PNG"" border=""10px; grey"">","null","","","","","","",""
"null","","html-keyboard-response","25","201716","0.0-2.0-2.7","","<div style=""font-size:60px;"">+</div>","null","","","","","","",""
"null","","image-keyboard-response","26","203218","0.0-2.0-0.8","","img/test3.PNG","null","practice","null","true","","","",""
"null","","html-keyboard-response","27","204222","0.0-2.0-1.8","","<img src=""img/test3-reward.PNG"">","null","","","","","","",""
"null","","html-keyboard-response","28","205225","0.0-2.0-2.8","","<div style=""font-size:60px;"">+</div>","null","","","","","","",""
"null","","image-keyboard-response","29","206733","0.0-2.0-0.9","","img/test2.PNG","null","practice","null","true","","","",""
"null","","html-keyboard-response","30","207736","0.0-2.0-1.9","","<img src=""img/test2-reward.PNG"">","null","","","","","","",""
"null","","html-keyboard-response","31","208739","0.0-2.0-2.9","","<div style=""font-size:60px;"">+</div>","null","","","","","","",""
"null","","image-keyboard-response","32","210242","0.0-2.0-0.10","","img/test3.PNG","null","practice","null","true","","","",""
"null","","html-keyboard-response","33","211245","0.0-2.0-1.10","","<img src=""img/test3-reward.PNG"">","null","","","","","","",""
"null","","html-keyboard-response","34","212246","0.0-2.0-2.10","","<div style=""font-size:60px;"">+</div>","null","","","","","","",""
"369.8300000105519","","image-keyboard-response","35","212618","0.0-2.0-0.11","","img/test1.PNG","32","practice","32","true","","","",""
"null","","html-keyboard-response","36","213620","0.0-2.0-1.11","","<img src=""img/test1-reward.PNG"" border=""10px; grey"">","null","","","","","","",""
"null","","html-keyboard-response","37","214622","0.0-2.0-2.11","","<div style=""font-size:60px;"">+</div>","null","","","","","","",""
"2539.650000006077","","instructions","38","217164","0.0-3.0","[{""page_index"":0,""viewing_time"":2538.7049999990268}]","","","","","","","","",""
"797.6200000121025","","image-keyboard-response","39","217965","0.0-4.0-0.0","","img/green.png","32","trial","null","false","0.2,0.8","2:nogo_b","",""
"null","","html-keyboard-response","40","218969","0.0-4.0-1.0","","<img src=""img/green-n.png"" border=""10"">","null","trial","null","","0.2,0.8","2:nogo_b","0",""
"null","","html-keyboard-response","41","219971","0.0-4.0-2.0","","<div style=""font-size:60px;"">+</div>","null","","","","","","",""
"null","","image-keyboard-response","42","221473","0.0-4.0-0.1","","img/grey.png","null","trial","32","false","0.8,0.2","1:go_a","",""
"null","","html-keyboard-response","43","222477","0.0-4.0-1.1","","<img src=""img/grey-n.png"">","null","trial","32","","0.8,0.2","1:go_a","0",""
"null","","html-keyboard-response","44","223482","0.0-4.0-2.1","","<div style=""font-size:60px;"">+</div>","null","","","","","","",""
"null","","image-keyboard-response","45","224985","0.0-4.0-0.2","","img/grey.png","null","trial","32","false","0.8,0.2","1:go_a","",""
"null","","html-keyboard-response","46","225990","0.0-4.0-1.2","","<img src=""img/grey-r.png"">","null","trial","32","","0.8,0.2","1:go_a","1",""
"null","","html-keyboard-response","47","226991","0.0-4.0-2.2","","<div style=""font-size:60px;"">+</div>","null","","","","","","",""
"465.46500000113156","","image-keyboard-response","48","227458","0.0-4.0-0.3","","img/green.png","32","trial","null","false","0.2,0.8","2:nogo_b","",""
"null","","html-keyboard-response","49","228462","0.0-4.0-1.3","","<img src=""img/green-n.png"" border=""10"">","null","trial","null","","0.2,0.8","2:nogo_b","0",""
"null","","html-keyboard-response","50","229464","0.0-4.0-2.3","","<div style=""font-size:60px;"">+</div>","null","","","","","","",""
"510.1699999941047","","image-keyboard-response","51","229976","0.0-4.0-0.4","","img/green.png","32","trial","null","false","0.2,0.8","2:nogo_b","",""
"null","","html-keyboard-response","52","230979","0.0-4.0-1.4","","<img src=""img/green-n.png"" border=""10"">","null","trial","null","","0.2,0.8","2:nogo_b","0",""
"null","","html-keyboard-response","53","231981","0.0-4.0-2.4","","<div style=""font-size:60px;"">+</div>","null","","","","","","",""
"345.8749999990687","","image-keyboard-response","54","232328","0.0-4.0-0.5","","img/grey.png","32","trial","32","true","0.8,0.2","1:go_a","",""
"null","","html-keyboard-response","55","233331","0.0-4.0-1.5","","<img src=""img/grey-r.png"" border=""10"">","null","trial","32","","0.8,0.2","1:go_a","1",""
"null","","html-keyboard-response","56","234332","0.0-4.0-2.5","","<div style=""font-size:60px;"">+</div>","null","","","","","","",""
"815.7749999954831","","image-keyboard-response","57","235150","0.0-4.0-0.6","","img/green.png","32","trial","null","false","0.2,0.8","2:nogo_b","",""
"null","","html-keyboard-response","58","236153","0.0-4.0-1.6","","<img src=""img/green-n.png"" border=""10"">","null","trial","null","","0.2,0.8","2:nogo_b","0",""
"null","","html-keyboard-response","59","237155","0.0-4.0-2.6","","<div style=""font-size:60px;"">+</div>","null","","","","","","",""
"null","","image-keyboard-response","60","238659","0.0-4.0-0.7","","img/grey.png","null","trial","32","false","0.8,0.2","1:go_a","",""
"null","","html-keyboard-response","61","239661","0.0-4.0-1.7","","<img src=""img/grey-r.png"">","null","trial","32","","0.8,0.2","1:go_a","1",""
"null","","html-keyboard-response","62","240663","0.0-4.0-2.7","","<div style=""font-size:60px;"">+</div>","null","","","","","","",""
"null","","image-keyboard-response","63","242166","0.0-4.0-0.8","","img/grey.png","null","trial","32","false","0.8,0.2","1:go_a","",""
"null","","html-keyboard-response","64","243169","0.0-4.0-1.8","","<img src=""img/grey-r.png"">","null","trial","32","","0.8,0.2","1:go_a","1",""
"null","","html-keyboard-response","65","244171","0.0-4.0-2.8","","<div style=""font-size:60px;"">+</div>","null","","","","","","",""
"678.8649999944028","","image-keyboard-response","66","244853","0.0-4.0-0.9","","img/green.png","32","trial","null","false","0.2,0.8","2:nogo_b","",""
"null","","html-keyboard-response","67","245856","0.0-4.0-1.9","","<img src=""img/green-n.png"" border=""10"">","null","trial","null","","0.2,0.8","2:nogo_b","0",""
"null","","html-keyboard-response","68","246857","0.0-4.0-2.9","","<div style=""font-size:60px;"">+</div>","null","","","","","","",""
"319.4599999987986","","image-keyboard-response","69","247179","0.0-4.0-0.10","","img/grey.png","32","trial","32","true","0.8,0.2","1:go_a","",""
"null","","html-keyboard-response","70","248191","0.0-4.0-1.10","","<img src=""img/grey-r.png"" border=""10"">","null","trial","32","","0.8,0.2","1:go_a","1",""
"null","","html-keyboard-response","71","249192","0.0-4.0-2.10","","<div style=""font-size:60px;"">+</div>","null","","","","","","",""
"448.2950000092387","","image-keyboard-response","72","249643","0.0-4.0-0.11","","img/green.png","32","trial","null","false","0.2,0.8","2:nogo_b","",""
"null","","html-keyboard-response","73","250645","0.0-4.0-1.11","","<img src=""img/green-r.png"" border=""10"">","null","trial","null","","0.2,0.8","2:nogo_b","1",""
"null","","html-keyboard-response","74","251646","0.0-4.0-2.11","","<div style=""font-size:60px;"">+</div>","null","","","","","","",""
"null","","image-keyboard-response","75","253149","0.0-4.0-0.12","","img/grey.png","null","trial","32","false","0.8,0.2","1:go_a","",""
"null","","html-keyboard-response","76","254154","0.0-4.0-1.12","","<img src=""img/grey-n.png"">","null","trial","32","","0.8,0.2","1:go_a","0",""
"null","","html-keyboard-response","77","255156","0.0-4.0-2.12","","<div style=""font-size:60px;"">+</div>","null","","","","","","",""
"676.6250000073342","","image-keyboard-response","78","255835","0.0-4.0-0.13","","img/green.png","32","trial","null","false","0.2,0.8","2:nogo_b","",""
"null","","html-keyboard-response","79","256838","0.0-4.0-1.13","","<img src=""img/green-n.png"" border=""10"">","null","trial","null","","0.2,0.8","2:nogo_b","0",""
"null","","html-keyboard-response","80","257841","0.0-4.0-2.13","","<div style=""font-size:60px;"">+</div>","null","","","","","","",""
"569.0099999919767","","image-keyboard-response","81","258413","0.0-4.0-0.14","","img/green.png","32","trial","null","false","0.2,0.8","2:nogo_b","",""
"null","","html-keyboard-response","82","259415","0.0-4.0-1.14","","<img src=""img/green-n.png"" border=""10"">","null","trial","null","","0.2,0.8","2:nogo_b","0",""
"null","","html-keyboard-response","83","260418","0.0-4.0-2.14","","<div style=""font-size:60px;"">+</div>","null","","","","","","",""
"555.4699999920558","","image-keyboard-response","84","260976","0.0-4.0-0.15","","img/grey.png","32","trial","32","true","0.8,0.2","1:go_a","",""
"null","","html-keyboard-response","85","261980","0.0-4.0-1.15","","<img src=""img/grey-r.png"" border=""10"">","null","trial","32","","0.8,0.2","1:go_a","1",""
"null","","html-keyboard-response","86","262982","0.0-4.0-2.15","","<div style=""font-size:60px;"">+</div>","null","","","","","","",""
"null","","image-keyboard-response","87","264485","0.0-4.0-0.16","","img/green.png","null","trial","null","true","0.2,0.8","2:nogo_b","",""
"null","","html-keyboard-response","88","265490","0.0-4.0-1.16","","<img src=""img/green-r.png"">","null","trial","null","","0.2,0.8","2:nogo_b","1",""
"null","","html-keyboard-response","89","266492","0.0-4.0-2.16","","<div style=""font-size:60px;"">+</div>","null","","","","","","",""
"1066.7600000015227","","image-keyboard-response","90","267561","0.0-4.0-0.17","","img/grey.png","32","trial","32","true","0.8,0.2","1:go_a","",""
"null","","html-keyboard-response","91","268564","0.0-4.0-1.17","","<img src=""img/grey-r.png"" border=""10"">","null","trial","32","","0.8,0.2","1:go_a","1",""
"null","","html-keyboard-response","92","269566","0.0-4.0-2.17","","<div style=""font-size:60px;"">+</div>","null","","","","","","",""
"null","","image-keyboard-response","93","271068","0.0-4.0-0.18","","img/grey.png","null","trial","32","false","0.8,0.2","1:go_a","",""
"null","","html-keyboard-response","94","272073","0.0-4.0-1.18","","<img src=""img/grey-n.png"">","null","trial","32","","0.8,0.2","1:go_a","0",""
"null","","html-keyboard-response","95","273075","0.0-4.0-2.18","","<div style=""font-size:60px;"">+</div>","null","","","","","","",""
"1243.3600000076694","","image-keyboard-response","96","274321","0.0-4.0-0.19","","img/green.png","32","trial","null","false","0.2,0.8","2:nogo_b","",""
"null","","html-keyboard-response","97","275323","0.0-4.0-1.19","","<img src=""img/green-n.png"" border=""10"">","null","trial","null","","0.2,0.8","2:nogo_b","0",""
"null","","html-keyboard-response","98","276325","0.0-4.0-2.19","","<div style=""font-size:60px;"">+</div>","null","","","","","","",""
"null","","image-keyboard-response","99","277828","0.0-4.0-0.20","","img/grey.png","null","trial","32","false","0.8,0.2","1:go_a","",""
"null","","html-keyboard-response","100","278831","0.0-4.0-1.20","","<img src=""img/grey-n.png"">","null","trial","32","","0.8,0.2","1:go_a","0",""
"null","","html-keyboard-response","101","279833","0.0-4.0-2.20","","<div style=""font-size:60px;"">+</div>","null","","","","","","",""
"749.4650000007823","","image-keyboard-response","102","280584","0.0-4.0-0.21","","img/green.png","32","trial","null","false","0.2,0.8","2:nogo_b","",""
"null","","html-keyboard-response","103","281587","0.0-4.0-1.21","","<img src=""img/green-r.png"" border=""10"">","null","trial","null","","0.2,0.8","2:nogo_b","1",""
"null","","html-keyboard-response","104","282589","0.0-4.0-2.21","","<div style=""font-size:60px;"">+</div>","null","","","","","","",""
"931.4650000014808","","image-keyboard-response","105","283522","0.0-4.0-0.22","","img/green.png","32","trial","null","false","0.2,0.8","2:nogo_b","",""
"null","","html-keyboard-response","106","284525","0.0-4.0-1.22","","<img src=""img/green-n.png"" border=""10"">","null","trial","null","","0.2,0.8","2:nogo_b","0",""
"null","","html-keyboard-response","107","285527","0.0-4.0-2.22","","<div style=""font-size:60px;"">+</div>","null","","","","","","",""
"null","","image-keyboard-response","108","287035","0.0-4.0-0.23","","img/grey.png","null","trial","32","false","0.8,0.2","1:go_a","",""
"null","","html-keyboard-response","109","288039","0.0-4.0-1.23","","<img src=""img/grey-n.png"">","null","trial","32","","0.8,0.2","1:go_a","0",""
"null","","html-keyboard-response","110","289041","0.0-4.0-2.23","","<div style=""font-size:60px;"">+</div>","null","","","","","","",""
"529.0099999983795","","image-keyboard-response","111","289572","0.0-4.0-0.24","","img/green.png","32","trial","null","false","0.2,0.8","2:nogo_b","",""
"null","","html-keyboard-response","112","290575","0.0-4.0-1.24","","<img src=""img/green-n.png"" border=""10"">","null","trial","null","","0.2,0.8","2:nogo_b","0",""
"null","","html-keyboard-response","113","291577","0.0-4.0-2.24","","<div style=""font-size:60px;"">+</div>","null","","","","","","",""
"255.25000000197906","","image-keyboard-response","114","291835","0.0-4.0-0.25","","img/grey.png","32","trial","32","true","0.8,0.2","1:go_a","",""
"null","","html-keyboard-response","115","292840","0.0-4.0-1.25","","<img src=""img/grey-r.png"" border=""10"">","null","trial","32","","0.8,0.2","1:go_a","1",""
"null","","html-keyboard-response","116","293842","0.0-4.0-2.25","","<div style=""font-size:60px;"">+</div>","null","","","","","","",""
"null","","image-keyboard-response","117","295345","0.0-4.0-0.26","","img/grey.png","null","trial","32","false","0.8,0.2","1:go_a","",""
"null","","html-keyboard-response","118","296351","0.0-4.0-1.26","","<img src=""img/grey-n.png"">","null","trial","32","","0.8,0.2","1:go_a","0",""
"null","","html-keyboard-response","119","297353","0.0-4.0-2.26","","<div style=""font-size:60px;"">+</div>","null","","","","","","",""
"null","","image-keyboard-response","120","298857","0.0-4.0-0.27","","img/green.png","null","trial","null","true","0.2,0.8","2:nogo_b","",""
"null","","html-keyboard-response","121","299861","0.0-4.0-1.27","","<img src=""img/green-r.png"">","null","trial","null","","0.2,0.8","2:nogo_b","1",""
"null","","html-keyboard-response","122","300863","0.0-4.0-2.27","","<div style=""font-size:60px;"">+</div>","null","","","","","","",""
"null","","image-keyboard-response","123","302364","0.0-4.0-0.28","","img/grey.png","null","trial","32","false","0.8,0.2","1:go_a","",""
"null","","html-keyboard-response","124","303367","0.0-4.0-1.28","","<img src=""img/grey-n.png"">","null","trial","32","","0.8,0.2","1:go_a","0",""
"null","","html-keyboard-response","125","304369","0.0-4.0-2.28","","<div style=""font-size:60px;"">+</div>","null","","","","","","",""
"466.26000000105705","","image-keyboard-response","126","304837","0.0-4.0-0.29","","img/green.png","32","trial","null","false","0.2,0.8","2:nogo_b","",""
"null","","html-keyboard-response","127","305841","0.0-4.0-1.29","","<img src=""img/green-n.png"" border=""10"">","null","trial","null","","0.2,0.8","2:nogo_b","0",""
"null","","html-keyboard-response","128","306842","0.0-4.0-2.29","","<div style=""font-size:60px;"">+</div>","null","","","","","","",""
"486.7249999952037","","image-keyboard-response","129","307331","0.0-4.0-0.30","","img/green.png","32","trial","null","false","0.2,0.8","2:nogo_b","",""
"null","","html-keyboard-response","130","308334","0.0-4.0-1.30","","<img src=""img/green-n.png"" border=""10"">","null","trial","null","","0.2,0.8","2:nogo_b","0",""
"null","","html-keyboard-response","131","309337","0.0-4.0-2.30","","<div style=""font-size:60px;"">+</div>","null","","","","","","",""
"606.8749999976717","","image-keyboard-response","132","309947","0.0-4.0-0.31","","img/grey.png","32","trial","32","true","0.8,0.2","1:go_a","",""
"null","","html-keyboard-response","133","310951","0.0-4.0-1.31","","<img src=""img/grey-r.png"" border=""10"">","null","trial","32","","0.8,0.2","1:go_a","1",""
"null","","html-keyboard-response","134","311953","0.0-4.0-2.31","","<div style=""font-size:60px;"">+</div>","null","","","","","","",""
"400.645000001532","","image-keyboard-response","135","312356","0.0-4.0-0.32","","img/green.png","32","trial","null","false","0.2,0.8","2:nogo_b","",""
"null","","html-keyboard-response","136","313360","0.0-4.0-1.32","","<img src=""img/green-n.png"" border=""10"">","null","trial","null","","0.2,0.8","2:nogo_b","0",""
"null","","html-keyboard-response","137","314362","0.0-4.0-2.32","","<div style=""font-size:60px;"">+</div>","null","","","","","","",""
"848.3199999900535","","image-keyboard-response","138","315212","0.0-4.0-0.33","","img/grey.png","32","trial","32","true","0.8,0.2","1:go_a","",""
"null","","html-keyboard-response","139","316215","0.0-4.0-1.33","","<img src=""img/grey-r.png"" border=""10"">","null","trial","32","","0.8,0.2","1:go_a","1",""
"null","","html-keyboard-response","140","317218","0.0-4.0-2.33","","<div style=""font-size:60px;"">+</div>","null","","","","","","",""
"null","","image-keyboard-response","141","318720","0.0-4.0-0.34","","img/green.png","null","trial","null","true","0.2,0.8","2:nogo_b","",""
"null","","html-keyboard-response","142","319725","0.0-4.0-1.34","","<img src=""img/green-r.png"">","null","trial","null","","0.2,0.8","2:nogo_b","1",""
"null","","html-keyboard-response","143","320727","0.0-4.0-2.34","","<div style=""font-size:60px;"">+</div>","null","","","","","","",""
"null","","image-keyboard-response","144","322230","0.0-4.0-0.35","","img/grey.png","null","trial","32","false","0.8,0.2","1:go_a","",""
"null","","html-keyboard-response","145","323238","0.0-4.0-1.35","","<img src=""img/grey-n.png"">","null","trial","32","","0.8,0.2","1:go_a","0",""
"null","","html-keyboard-response","146","324241","0.0-4.0-2.35","","<div style=""font-size:60px;"">+</div>","null","","","","","","",""
"null","","image-keyboard-response","147","325744","0.0-4.0-0.36","","img/grey.png","null","trial","32","false","0.8,0.2","1:go_a","",""
"null","","html-keyboard-response","148","326749","0.0-4.0-1.36","","<img src=""img/grey-n.png"">","null","trial","32","","0.8,0.2","1:go_a","0",""
"null","","html-keyboard-response","149","327752","0.0-4.0-2.36","","<div style=""font-size:60px;"">+</div>","null","","","","","","",""
"300.3699999972014","","image-keyboard-response","150","328055","0.0-4.0-0.37","","img/green.png","32","trial","null","false","0.2,0.8","2:nogo_b","",""
"null","","html-keyboard-response","151","329058","0.0-4.0-1.37","","<img src=""img/green-r.png"" border=""10"">","null","trial","null","","0.2,0.8","2:nogo_b","1",""
"null","","html-keyboard-response","152","330060","0.0-4.0-2.37","","<div style=""font-size:60px;"">+</div>","null","","","","","","",""
"571.9850000023143","","image-keyboard-response","153","330635","0.0-4.0-0.38","","img/grey.png","32","trial","32","true","0.8,0.2","1:go_a","",""
"null","","html-keyboard-response","154","331637","0.0-4.0-1.38","","<img src=""img/grey-r.png"" border=""10"">","null","trial","32","","0.8,0.2","1:go_a","1",""
"null","","html-keyboard-response","155","332649","0.0-4.0-2.38","","<div style=""font-size:60px;"">+</div>","null","","","","","","",""
"434.1500000009546","","image-keyboard-response","156","333086","0.0-4.0-0.39","","img/green.png","32","trial","null","false","0.2,0.8","2:nogo_b","",""
"null","","html-keyboard-response","157","334090","0.0-4.0-1.39","","<img src=""img/green-n.png"" border=""10"">","null","trial","null","","0.2,0.8","2:nogo_b","0",""
"null","","html-keyboard-response","158","335092","0.0-4.0-2.39","","<div style=""font-size:60px;"">+</div>","null","","","","","","",""
"720.41999999783","","image-keyboard-response","159","335815","0.0-4.0-0.40","","img/green.png","32","trial","null","false","0.2,0.8","2:nogo_b","",""
"null","","html-keyboard-response","160","336818","0.0-4.0-1.40","","<img src=""img/green-n.png"" border=""10"">","null","trial","null","","0.2,0.8","2:nogo_b","0",""
"null","","html-keyboard-response","161","337822","0.0-4.0-2.40","","<div style=""font-size:60px;"">+</div>","null","","","","","","",""
"1135.95000001078","","image-keyboard-response","162","338959","0.0-4.0-0.41","","img/grey.png","32","trial","32","true","0.8,0.2","1:go_a","",""
"null","","html-keyboard-response","163","339962","0.0-4.0-1.41","","<img src=""img/grey-r.png"" border=""10"">","null","trial","32","","0.8,0.2","1:go_a","1",""
"null","","html-keyboard-response","164","340965","0.0-4.0-2.41","","<div style=""font-size:60px;"">+</div>","null","","","","","","",""
"525.2099999925122","","image-keyboard-response","165","341492","0.0-4.0-0.42","","img/green.png","32","trial","null","false","0.2,0.8","2:nogo_b","",""
"null","","html-keyboard-response","166","342495","0.0-4.0-1.42","","<img src=""img/green-n.png"" border=""10"">","null","trial","null","","0.2,0.8","2:nogo_b","0",""
"null","","html-keyboard-response","167","343497","0.0-4.0-2.42","","<div style=""font-size:60px;"">+</div>","null","","","","","","",""
"null","","image-keyboard-response","168","345001","0.0-4.0-0.43","","img/grey.png","null","trial","32","false","0.8,0.2","1:go_a","",""
"null","","html-keyboard-response","169","346005","0.0-4.0-1.43","","<img src=""img/grey-n.png"">","null","trial","32","","0.8,0.2","1:go_a","0",""
"null","","html-keyboard-response","170","347008","0.0-4.0-2.43","","<div style=""font-size:60px;"">+</div>","null","","","","","","",""
"652.3549999983516","","image-keyboard-response","171","347663","0.0-4.0-0.44","","img/green.png","32","trial","null","false","0.2,0.8","2:nogo_b","",""
"null","","html-keyboard-response","172","348666","0.0-4.0-1.44","","<img src=""img/green-n.png"" border=""10"">","null","trial","null","","0.2,0.8","2:nogo_b","0",""
"null","","html-keyboard-response","173","349669","0.0-4.0-2.44","","<div style=""font-size:60px;"">+</div>","null","","","","","","",""
"null","","image-keyboard-response","174","351171","0.0-4.0-0.45","","img/grey.png","null","trial","32","false","0.8,0.2","1:go_a","",""
"null","","html-keyboard-response","175","352176","0.0-4.0-1.45","","<img src=""img/grey-n.png"">","null","trial","32","","0.8,0.2","1:go_a","0",""
"null","","html-keyboard-response","176","353179","0.0-4.0-2.45","","<div style=""font-size:60px;"">+</div>","null","","","","","","",""
"428.5600000002887","","image-keyboard-response","177","353609","0.0-4.0-0.46","","img/green.png","32","trial","null","false","0.2,0.8","2:nogo_b","",""
"null","","html-keyboard-response","178","354612","0.0-4.0-1.46","","<img src=""img/green-n.png"" border=""10"">","null","trial","null","","0.2,0.8","2:nogo_b","0",""
"null","","html-keyboard-response","179","355614","0.0-4.0-2.46","","<div style=""font-size:60px;"">+</div>","null","","","","","","",""
"552.639999994426","","image-keyboard-response","180","356169","0.0-4.0-0.47","","img/grey.png","32","trial","32","true","0.8,0.2","1:go_a","",""
"null","","html-keyboard-response","181","357172","0.0-4.0-1.47","","<img src=""img/grey-r.png"" border=""10"">","null","trial","32","","0.8,0.2","1:go_a","1",""
"null","","html-keyboard-response","182","358175","0.0-4.0-2.47","","<div style=""font-size:60px;"">+</div>","null","","","","","","",""
"null","","image-keyboard-response","183","359678","0.0-4.0-0.48","","img/green.png","null","trial","null","true","0.2,0.8","2:nogo_b","",""
"null","","html-keyboard-response","184","360682","0.0-4.0-1.48","","<img src=""img/green-n.png"">","null","trial","null","","0.2,0.8","2:nogo_b","0",""
"null","","html-keyboard-response","185","361684","0.0-4.0-2.48","","<div style=""font-size:60px;"">+</div>","null","","","","","","",""
"1138.699999995879","","image-keyboard-response","186","362824","0.0-4.0-0.49","","img/grey.png","32","trial","32","true","0.8,0.2","1:go_a","",""
"null","","html-keyboard-response","187","363827","0.0-4.0-1.49","","<img src=""img/grey-r.png"" border=""10"">","null","trial","32","","0.8,0.2","1:go_a","1",""
"null","","html-keyboard-response","188","364830","0.0-4.0-2.49","","<div style=""font-size:60px;"">+</div>","null","","","","","","",""
"null","","image-keyboard-response","189","366333","0.0-4.0-0.50","","img/green.png","null","trial","null","true","0.2,0.8","2:nogo_b","",""
"null","","html-keyboard-response","190","367337","0.0-4.0-1.50","","<img src=""img/green-r.png"">","null","trial","null","","0.2,0.8","2:nogo_b","1",""
"null","","html-keyboard-response","191","368340","0.0-4.0-2.50","","<div style=""font-size:60px;"">+</div>","null","","","","","","",""
"null","","image-keyboard-response","192","369844","0.0-4.0-0.51","","img/grey.png","null","trial","32","false","0.8,0.2","1:go_a","",""
"null","","html-keyboard-response","193","370846","0.0-4.0-1.51","","<img src=""img/grey-n.png"">","null","trial","32","","0.8,0.2","1:go_a","0",""
"null","","html-keyboard-response","194","371848","0.0-4.0-2.51","","<div style=""font-size:60px;"">+</div>","null","","","","","","",""
"303.53000000468455","","image-keyboard-response","195","372155","0.0-4.0-0.52","","img/green.png","32","trial","null","false","0.2,0.8","2:nogo_b","",""
"null","","html-keyboard-response","196","373159","0.0-4.0-1.52","","<img src=""img/green-n.png"" border=""10"">","null","trial","null","","0.2,0.8","2:nogo_b","0",""
"null","","html-keyboard-response","197","374161","0.0-4.0-2.52","","<div style=""font-size:60px;"">+</div>","null","","","","","","",""
"821.7250000016065","","image-keyboard-response","198","374986","0.0-4.0-0.53","","img/grey.png","32","trial","32","true","0.8,0.2","1:go_a","",""
"null","","html-keyboard-response","199","375990","0.0-4.0-1.53","","<img src=""img/grey-r.png"" border=""10"">","null","trial","32","","0.8,0.2","1:go_a","1",""
"null","","html-keyboard-response","200","376992","0.0-4.0-2.53","","<div style=""font-size:60px;"">+</div>","null","","","","","","",""
"null","","image-keyboard-response","201","378494","0.0-4.0-0.54","","img/grey.png","null","trial","32","false","0.8,0.2","1:go_a","",""
"null","","html-keyboard-response","202","379498","0.0-4.0-1.54","","<img src=""img/grey-n.png"">","null","trial","32","","0.8,0.2","1:go_a","0",""
"null","","html-keyboard-response","203","380500","0.0-4.0-2.54","","<div style=""font-size:60px;"">+</div>","null","","","","","","",""
"794.2999999941094","","image-keyboard-response","204","381299","0.0-4.0-0.55","","img/green.png","32","trial","null","false","0.2,0.8","2:nogo_b","",""
"null","","html-keyboard-response","205","382303","0.0-4.0-1.55","","<img src=""img/green-n.png"" border=""10"">","null","trial","null","","0.2,0.8","2:nogo_b","0",""
"null","","html-keyboard-response","206","383305","0.0-4.0-2.55","","<div style=""font-size:60px;"">+</div>","null","","","","","","",""
"502.13999999687076","","image-keyboard-response","207","383809","0.0-4.0-0.56","","img/grey.png","32","trial","32","true","0.8,0.2","1:go_a","",""
"null","","html-keyboard-response","208","384812","0.0-4.0-1.56","","<img src=""img/grey-r.png"" border=""10"">","null","trial","32","","0.8,0.2","1:go_a","1",""
"null","","html-keyboard-response","209","385814","0.0-4.0-2.56","","<div style=""font-size:60px;"">+</div>","null","","","","","","",""
"null","","image-keyboard-response","210","387317","0.0-4.0-0.57","","img/green.png","null","trial","null","true","0.2,0.8","2:nogo_b","",""
"null","","html-keyboard-response","211","388322","0.0-4.0-1.57","","<img src=""img/green-r.png"">","null","trial","null","","0.2,0.8","2:nogo_b","1",""
"null","","html-keyboard-response","212","389324","0.0-4.0-2.57","","<div style=""font-size:60px;"">+</div>","null","","","","","","",""
"null","","image-keyboard-response","213","390828","0.0-4.0-0.58","","img/grey.png","null","trial","32","false","0.8,0.2","1:go_a","",""
"null","","html-keyboard-response","214","391831","0.0-4.0-1.58","","<img src=""img/grey-n.png"">","null","trial","32","","0.8,0.2","1:go_a","0",""
"null","","html-keyboard-response","215","392833","0.0-4.0-2.58","","<div style=""font-size:60px;"">+</div>","null","","","","","","",""
"null","","image-keyboard-response","216","394336","0.0-4.0-0.59","","img/green.png","null","trial","null","true","0.2,0.8","2:nogo_b","",""
"null","","html-keyboard-response","217","395340","0.0-4.0-1.59","","<img src=""img/green-r.png"">","null","trial","null","","0.2,0.8","2:nogo_b","1",""
"null","","html-keyboard-response","218","396343","0.0-4.0-2.59","","<div style=""font-size:60px;"">+</div>","null","","","","","","",""
"80618.77000000095","","instructions","219","476963","0.0-5.0","[{""page_index"":0,""viewing_time"":80618.35999999312}]","","","","","","","","",""
"1243.0400000012014","","image-keyboard-response","220","478208","0.0-6.0-0.0","","img/blue.png","32","trial","32","true","0.8,0.2","1:go_a","",""
"null","","html-keyboard-response","221","479211","0.0-6.0-1.0","","<img src=""img/blue-r.png"" border=""10"">","null","trial","32","","0.8,0.2","1:go_a","1",""
"null","","html-keyboard-response","222","480217","0.0-6.0-2.0","","<div style=""font-size:60px;"">+</div>","null","","","","","","",""
"419.8000000033062","","image-keyboard-response","223","480640","0.0-6.0-0.1","","img/yellow.png","32","trial","null","false","0.2,0.8","2:nogo_b","",""
"null","","html-keyboard-response","224","481643","0.0-6.0-1.1","","<img src=""img/yellow-n.png"" border=""10"">","null","trial","null","","0.2,0.8","2:nogo_b","0",""
"null","","html-keyboard-response","225","482645","0.0-6.0-2.1","","<div style=""font-size:60px;"">+</div>","null","","","","","","",""
"382.41000000562053","","image-keyboard-response","226","483030","0.0-6.0-0.2","","img/green.png","32","trial","32","true","0.8,0.2","3:go_c","",""
"null","","html-keyboard-response","227","484035","0.0-6.0-1.2","","<img src=""img/green-r.png"" border=""10"">","null","trial","32","","0.8,0.2","3:go_c","1",""
"null","","html-keyboard-response","228","485037","0.0-6.0-2.2","","<div style=""font-size:60px;"">+</div>","null","","","","","","",""
"null","","image-keyboard-response","229","486540","0.0-6.0-0.3","","img/grey.png","null","trial","null","true","0.2,0.8","4:nogo_d","",""
"null","","html-keyboard-response","230","487546","0.0-6.0-1.3","","<img src=""img/grey-n.png"">","null","trial","null","","0.2,0.8","4:nogo_d","0",""
"null","","html-keyboard-response","231","488550","0.0-6.0-2.3","","<div style=""font-size:60px;"">+</div>","null","","","","","","",""
"null","","image-keyboard-response","232","490053","0.0-6.0-0.4","","img/grey.png","null","trial","null","true","0.2,0.8","4:nogo_d","",""
"null","","html-keyboard-response","233","491059","0.0-6.0-1.4","","<img src=""img/grey-r.png"">","null","trial","null","","0.2,0.8","4:nogo_d","1",""
"null","","html-keyboard-response","234","492061","0.0-6.0-2.4","","<div style=""font-size:60px;"">+</div>","null","","","","","","",""
"560.1800000004005","","image-keyboard-response","235","492625","0.0-6.0-0.5","","img/yellow.png","32","trial","null","false","0.2,0.8","2:nogo_b","",""
"null","","html-keyboard-response","236","493627","0.0-6.0-1.5","","<img src=""img/yellow-n.png"" border=""10"">","null","trial","null","","0.2,0.8","2:nogo_b","0",""
"null","","html-keyboard-response","237","494629","0.0-6.0-2.5","","<div style=""font-size:60px;"">+</div>","null","","","","","","",""
"303.5799999925075","","image-keyboard-response","238","494935","0.0-6.0-0.6","","img/blue.png","32","trial","32","true","0.8,0.2","1:go_a","",""
"null","","html-keyboard-response","239","495938","0.0-6.0-1.6","","<img src=""img/blue-r.png"" border=""10"">","null","trial","32","","0.8,0.2","1:go_a","1",""
"null","","html-keyboard-response","240","496940","0.0-6.0-2.6","","<div style=""font-size:60px;"">+</div>","null","","","","","","",""
"null","","image-keyboard-response","241","498443","0.0-6.0-0.7","","img/green.png","null","trial","32","false","0.8,0.2","3:go_c","",""
"null","","html-keyboard-response","242","499448","0.0-6.0-1.7","","<img src=""img/green-r.png"">","null","trial","32","","0.8,0.2","3:go_c","1",""
"null","","html-keyboard-response","243","500451","0.0-6.0-2.7","","<div style=""font-size:60px;"">+</div>","null","","","","","","",""
"null","","image-keyboard-response","244","501954","0.0-6.0-0.8","","img/green.png","null","trial","32","false","0.8,0.2","3:go_c","",""
"null","","html-keyboard-response","245","502959","0.0-6.0-1.8","","<img src=""img/green-n.png"">","null","trial","32","","0.8,0.2","3:go_c","0",""
"null","","html-keyboard-response","246","503961","0.0-6.0-2.8","","<div style=""font-size:60px;"">+</div>","null","","","","","","",""
"332.13500000420026","","image-keyboard-response","247","504295","0.0-6.0-0.9","","img/blue.png","32","trial","32","true","0.8,0.2","1:go_a","",""
"null","","html-keyboard-response","248","505298","0.0-6.0-1.9","","<img src=""img/blue-r.png"" border=""10"">","null","trial","32","","0.8,0.2","1:go_a","1",""
"null","","html-keyboard-response","249","506300","0.0-6.0-2.9","","<div style=""font-size:60px;"">+</div>","null","","","","","","",""
"1074.430000007851","","image-keyboard-response","250","507377","0.0-6.0-0.10","","img/yellow.png","32","trial","null","false","0.2,0.8","2:nogo_b","",""
"null","","html-keyboard-response","251","508382","0.0-6.0-1.10","","<img src=""img/yellow-n.png"" border=""10"">","null","trial","null","","0.2,0.8","2:nogo_b","0",""
"null","","html-keyboard-response","252","509384","0.0-6.0-2.10","","<div style=""font-size:60px;"">+</div>","null","","","","","","",""
"1426.6850000130944","","image-keyboard-response","253","510816","0.0-6.0-0.11","","img/grey.png","32","trial","null","false","0.2,0.8","4:nogo_d","",""
"null","","html-keyboard-response","254","511819","0.0-6.0-1.11","","<img src=""img/grey-n.png"" border=""10"">","null","trial","null","","0.2,0.8","4:nogo_d","0",""
"null","","html-keyboard-response","255","512822","0.0-6.0-2.11","","<div style=""font-size:60px;"">+</div>","null","","","","","","",""
"1162.1350000059465","","image-keyboard-response","256","513987","0.0-6.0-0.12","","img/blue.png","32","trial","32","true","0.8,0.2","1:go_a","",""
"null","","html-keyboard-response","257","514992","0.0-6.0-1.12","","<img src=""img/blue-r.png"" border=""10"">","null","trial","32","","0.8,0.2","1:go_a","1",""
"null","","html-keyboard-response","258","515994","0.0-6.0-2.12","","<div style=""font-size:60px;"">+</div>","null","","","","","","",""
"null","","image-keyboard-response","259","517497","0.0-6.0-0.13","","img/grey.png","null","trial","null","true","0.2,0.8","4:nogo_d","",""
"null","","html-keyboard-response","260","518501","0.0-6.0-1.13","","<img src=""img/grey-r.png"">","null","trial","null","","0.2,0.8","4:nogo_d","1",""
"null","","html-keyboard-response","261","519504","0.0-6.0-2.13","","<div style=""font-size:60px;"">+</div>","null","","","","","","",""
"null","","image-keyboard-response","262","521007","0.0-6.0-0.14","","img/green.png","null","trial","32","false","0.8,0.2","3:go_c","",""
"null","","html-keyboard-response","263","522013","0.0-6.0-1.14","","<img src=""img/green-n.png"">","null","trial","32","","0.8,0.2","3:go_c","0",""
"null","","html-keyboard-response","264","523014","0.0-6.0-2.14","","<div style=""font-size:60px;"">+</div>","null","","","","","","",""
"479.1700000059791","","image-keyboard-response","265","523496","0.0-6.0-0.15","","img/yellow.png","32","trial","null","false","0.2,0.8","2:nogo_b","",""
"null","","html-keyboard-response","266","524499","0.0-6.0-1.15","","<img src=""img/yellow-r.png"" border=""10"">","null","trial","null","","0.2,0.8","2:nogo_b","1",""
"null","","html-keyboard-response","267","525501","0.0-6.0-2.15","","<div style=""font-size:60px;"">+</div>","null","","","","","","",""
"488.3150000096066","","image-keyboard-response","268","525993","0.0-6.0-0.16","","img/yellow.png","32","trial","null","false","0.2,0.8","2:nogo_b","",""
"null","","html-keyboard-response","269","526996","0.0-6.0-1.16","","<img src=""img/yellow-n.png"" border=""10"">","null","trial","null","","0.2,0.8","2:nogo_b","0",""
"null","","html-keyboard-response","270","527998","0.0-6.0-2.16","","<div style=""font-size:60px;"">+</div>","null","","","","","","",""
"439.70999999146443","","image-keyboard-response","271","528440","0.0-6.0-0.17","","img/blue.png","32","trial","32","true","0.8,0.2","1:go_a","",""
"null","","html-keyboard-response","272","529443","0.0-6.0-1.17","","<img src=""img/blue-r.png"" border=""10"">","null","trial","32","","0.8,0.2","1:go_a","1",""
"null","","html-keyboard-response","273","530445","0.0-6.0-2.17","","<div style=""font-size:60px;"">+</div>","null","","","","","","",""
"null","","image-keyboard-response","274","531949","0.0-6.0-0.18","","img/grey.png","null","trial","null","true","0.2,0.8","4:nogo_d","",""
"null","","html-keyboard-response","275","532953","0.0-6.0-1.18","","<img src=""img/grey-r.png"">","null","trial","null","","0.2,0.8","4:nogo_d","1",""
"null","","html-keyboard-response","276","533955","0.0-6.0-2.18","","<div style=""font-size:60px;"">+</div>","null","","","","","","",""
"null","","image-keyboard-response","277","535458","0.0-6.0-0.19","","img/green.png","null","trial","32","false","0.8,0.2","3:go_c","",""
"null","","html-keyboard-response","278","536462","0.0-6.0-1.19","","<img src=""img/green-n.png"">","null","trial","32","","0.8,0.2","3:go_c","0",""
"null","","html-keyboard-response","279","537464","0.0-6.0-2.19","","<div style=""font-size:60px;"">+</div>","null","","","","","","",""
"457.3400000081165","","image-keyboard-response","280","537924","0.0-6.0-0.20","","img/blue.png","32","trial","32","true","0.8,0.2","1:go_a","",""
"null","","html-keyboard-response","281","538927","0.0-6.0-1.20","","<img src=""img/blue-r.png"" border=""10"">","null","trial","32","","0.8,0.2","1:go_a","1",""
"null","","html-keyboard-response","282","539929","0.0-6.0-2.20","","<div style=""font-size:60px;"">+</div>","null","","","","","","",""
"584.7650000068825","","image-keyboard-response","283","540517","0.0-6.0-0.21","","img/green.png","32","trial","32","true","0.8,0.2","3:go_c","",""
"null","","html-keyboard-response","284","541520","0.0-6.0-1.21","","<img src=""img/green-n.png"" border=""10"">","null","trial","32","","0.8,0.2","3:go_c","0",""
"null","","html-keyboard-response","285","542523","0.0-6.0-2.21","","<div style=""font-size:60px;"">+</div>","null","","","","","","",""
"1231.3799999974435","","image-keyboard-response","286","543757","0.0-6.0-0.22","","img/grey.png","32","trial","null","false","0.2,0.8","4:nogo_d","",""
"null","","html-keyboard-response","287","544760","0.0-6.0-1.22","","<img src=""img/grey-n.png"" border=""10"">","null","trial","null","","0.2,0.8","4:nogo_d","0",""
"null","","html-keyboard-response","288","545762","0.0-6.0-2.22","","<div style=""font-size:60px;"">+</div>","null","","","","","","",""
"499.69499999133404","","image-keyboard-response","289","546266","0.0-6.0-0.23","","img/yellow.png","32","trial","null","false","0.2,0.8","2:nogo_b","",""
"null","","html-keyboard-response","290","547269","0.0-6.0-1.23","","<img src=""img/yellow-r.png"" border=""10"">","null","trial","null","","0.2,0.8","2:nogo_b","1",""
"null","","html-keyboard-response","291","548271","0.0-6.0-2.23","","<div style=""font-size:60px;"">+</div>","null","","","","","","",""
"518.0399999953806","","image-keyboard-response","292","548792","0.0-6.0-0.24","","img/grey.png","32","trial","null","false","0.2,0.8","4:nogo_d","",""
"null","","html-keyboard-response","293","549794","0.0-6.0-1.24","","<img src=""img/grey-n.png"" border=""10"">","null","trial","null","","0.2,0.8","4:nogo_d","0",""
"null","","html-keyboard-response","294","550795","0.0-6.0-2.24","","<div style=""font-size:60px;"">+</div>","null","","","","","","",""
"null","","image-keyboard-response","295","552297","0.0-6.0-0.25","","img/green.png","null","trial","32","false","0.8,0.2","3:go_c","",""
"null","","html-keyboard-response","296","553302","0.0-6.0-1.25","","<img src=""img/green-n.png"">","null","trial","32","","0.8,0.2","3:go_c","0",""
"null","","html-keyboard-response","297","554304","0.0-6.0-2.25","","<div style=""font-size:60px;"">+</div>","null","","","","","","",""
"1242.6350000023376","","image-keyboard-response","298","555551","0.0-6.0-0.26","","img/blue.png","32","trial","32","true","0.8,0.2","1:go_a","",""
"null","","html-keyboard-response","299","556554","0.0-6.0-1.26","","<img src=""img/blue-r.png"" border=""10"">","null","trial","32","","0.8,0.2","1:go_a","1",""
"null","","html-keyboard-response","300","557556","0.0-6.0-2.26","","<div style=""font-size:60px;"">+</div>","null","","","","","","",""
"1165.7300000078976","","image-keyboard-response","301","558724","0.0-6.0-0.27","","img/yellow.png","32","trial","null","false","0.2,0.8","2:nogo_b","",""
"null","","html-keyboard-response","302","559728","0.0-6.0-1.27","","<img src=""img/yellow-n.png"" border=""10"">","null","trial","null","","0.2,0.8","2:nogo_b","0",""
"null","","html-keyboard-response","303","560730","0.0-6.0-2.27","","<div style=""font-size:60px;"">+</div>","null","","","","","","",""
"null","","image-keyboard-response","304","562233","0.0-6.0-0.28","","img/blue.png","null","trial","32","false","0.8,0.2","1:go_a","",""
"null","","html-keyboard-response","305","563237","0.0-6.0-1.28","","<img src=""img/blue-n.png"">","null","trial","32","","0.8,0.2","1:go_a","0",""
"null","","html-keyboard-response","306","564239","0.0-6.0-2.28","","<div style=""font-size:60px;"">+</div>","null","","","","","","",""
"996.9200000050478","","image-keyboard-response","307","565239","0.0-6.0-0.29","","img/green.png","32","trial","32","true","0.8,0.2","3:go_c","",""
"null","","html-keyboard-response","308","566242","0.0-6.0-1.29","","<img src=""img/green-r.png"" border=""10"">","null","trial","32","","0.8,0.2","3:go_c","1",""
"null","","html-keyboard-response","309","567246","0.0-6.0-2.29","","<div style=""font-size:60px;"">+</div>","null","","","","","","",""
"null","","image-keyboard-response","310","568748","0.0-6.0-0.30","","img/grey.png","null","trial","null","true","0.2,0.8","4:nogo_d","",""
"null","","html-keyboard-response","311","569753","0.0-6.0-1.30","","<img src=""img/grey-n.png"">","null","trial","null","","0.2,0.8","4:nogo_d","0",""
"null","","html-keyboard-response","312","570755","0.0-6.0-2.30","","<div style=""font-size:60px;"">+</div>","null","","","","","","",""
"1419.3899999954738","","image-keyboard-response","313","572181","0.0-6.0-0.31","","img/yellow.png","32","trial","null","false","0.2,0.8","2:nogo_b","",""
"null","","html-keyboard-response","314","573185","0.0-6.0-1.31","","<img src=""img/yellow-n.png"" border=""10"">","null","trial","null","","0.2,0.8","2:nogo_b","0",""
"null","","html-keyboard-response","315","574187","0.0-6.0-2.31","","<div style=""font-size:60px;"">+</div>","null","","","","","","",""
"null","","image-keyboard-response","316","575690","0.0-6.0-0.32","","img/yellow.png","null","trial","null","true","0.2,0.8","2:nogo_b","",""
"null","","html-keyboard-response","317","576694","0.0-6.0-1.32","","<img src=""img/yellow-r.png"">","null","trial","null","","0.2,0.8","2:nogo_b","1",""
"null","","html-keyboard-response","318","577697","0.0-6.0-2.32","","<div style=""font-size:60px;"">+</div>","null","","","","","","",""
"null","","image-keyboard-response","319","579199","0.0-6.0-0.33","","img/grey.png","null","trial","null","true","0.2,0.8","4:nogo_d","",""
"null","","html-keyboard-response","320","580205","0.0-6.0-1.33","","<img src=""img/grey-r.png"">","null","trial","null","","0.2,0.8","4:nogo_d","1",""
"null","","html-keyboard-response","321","581208","0.0-6.0-2.33","","<div style=""font-size:60px;"">+</div>","null","","","","","","",""
"639.6550000063144","","image-keyboard-response","322","581850","0.0-6.0-0.34","","img/blue.png","32","trial","32","true","0.8,0.2","1:go_a","",""
"null","","html-keyboard-response","323","582854","0.0-6.0-1.34","","<img src=""img/blue-n.png"" border=""10"">","null","trial","32","","0.8,0.2","1:go_a","0",""
"null","","html-keyboard-response","324","583856","0.0-6.0-2.34","","<div style=""font-size:60px;"">+</div>","null","","","","","","",""
"1275.885000010021","","image-keyboard-response","325","585135","0.0-6.0-0.35","","img/green.png","32","trial","32","true","0.8,0.2","3:go_c","",""
"null","","html-keyboard-response","326","586141","0.0-6.0-1.35","","<img src=""img/green-r.png"" border=""10"">","null","trial","32","","0.8,0.2","3:go_c","1",""
"null","","html-keyboard-response","327","587143","0.0-6.0-2.35","","<div style=""font-size:60px;"">+</div>","null","","","","","","",""
"null","","image-keyboard-response","328","588646","0.0-6.0-0.36","","img/blue.png","null","trial","32","false","0.8,0.2","1:go_a","",""
"null","","html-keyboard-response","329","589652","0.0-6.0-1.36","","<img src=""img/blue-r.png"">","null","trial","32","","0.8,0.2","1:go_a","1",""
"null","","html-keyboard-response","330","590654","0.0-6.0-2.36","","<div style=""font-size:60px;"">+</div>","null","","","","","","",""
"null","","image-keyboard-response","331","592157","0.0-6.0-0.37","","img/grey.png","null","trial","null","true","0.2,0.8","4:nogo_d","",""
"null","","html-keyboard-response","332","593162","0.0-6.0-1.37","","<img src=""img/grey-n.png"">","null","trial","null","","0.2,0.8","4:nogo_d","0",""
"null","","html-keyboard-response","333","594164","0.0-6.0-2.37","","<div style=""font-size:60px;"">+</div>","null","","","","","","",""
"765.9649999986868","","image-keyboard-response","334","594933","0.0-6.0-0.38","","img/yellow.png","32","trial","null","false","0.2,0.8","2:nogo_b","",""
"null","","html-keyboard-response","335","595936","0.0-6.0-1.38","","<img src=""img/yellow-n.png"" border=""10"">","null","trial","null","","0.2,0.8","2:nogo_b","0",""
"null","","html-keyboard-response","336","596939","0.0-6.0-2.38","","<div style=""font-size:60px;"">+</div>","null","","","","","","",""
"1202.9550000006566","","image-keyboard-response","337","598145","0.0-6.0-0.39","","img/green.png","32","trial","32","true","0.8,0.2","3:go_c","",""
"null","","html-keyboard-response","338","599150","0.0-6.0-1.39","","<img src=""img/green-r.png"" border=""10"">","null","trial","32","","0.8,0.2","3:go_c","1",""
"null","","html-keyboard-response","339","600152","0.0-6.0-2.39","","<div style=""font-size:60px;"">+</div>","null","","","","","","",""
"null","","image-keyboard-response","340","601655","0.0-6.0-0.40","","img/green.png","null","trial","32","false","0.8,0.2","3:go_c","",""
"null","","html-keyboard-response","341","602658","0.0-6.0-1.40","","<img src=""img/green-n.png"">","null","trial","32","","0.8,0.2","3:go_c","0",""
"null","","html-keyboard-response","342","603660","0.0-6.0-2.40","","<div style=""font-size:60px;"">+</div>","null","","","","","","",""
"870.3050000040093","","image-keyboard-response","343","604533","0.0-6.0-0.41","","img/yellow.png","32","trial","null","false","0.2,0.8","2:nogo_b","",""
"null","","html-keyboard-response","344","605537","0.0-6.0-1.41","","<img src=""img/yellow-n.png"" border=""10"">","null","trial","null","","0.2,0.8","2:nogo_b","0",""
"null","","html-keyboard-response","345","606538","0.0-6.0-2.41","","<div style=""font-size:60px;"">+</div>","null","","","","","","",""
"null","","image-keyboard-response","346","608041","0.0-6.0-0.42","","img/grey.png","null","trial","null","true","0.2,0.8","4:nogo_d","",""
"null","","html-keyboard-response","347","609048","0.0-6.0-1.42","","<img src=""img/grey-r.png"">","null","trial","null","","0.2,0.8","4:nogo_d","1",""
"null","","html-keyboard-response","348","610050","0.0-6.0-2.42","","<div style=""font-size:60px;"">+</div>","null","","","","","","",""
"null","","image-keyboard-response","349","611553","0.0-6.0-0.43","","img/blue.png","null","trial","32","false","0.8,0.2","1:go_a","",""
"null","","html-keyboard-response","350","612555","0.0-6.0-1.43","","<img src=""img/blue-n.png"">","null","trial","32","","0.8,0.2","1:go_a","0",""
"null","","html-keyboard-response","351","613557","0.0-6.0-2.43","","<div style=""font-size:60px;"">+</div>","null","","","","","","",""
"null","","image-keyboard-response","352","615059","0.0-6.0-0.44","","img/grey.png","null","trial","null","true","0.2,0.8","4:nogo_d","",""
"null","","html-keyboard-response","353","616061","0.0-6.0-1.44","","<img src=""img/grey-r.png"">","null","trial","null","","0.2,0.8","4:nogo_d","1",""
"null","","html-keyboard-response","354","617062","0.0-6.0-2.44","","<div style=""font-size:60px;"">+</div>","null","","","","","","",""
"null","","image-keyboard-response","355","618565","0.0-6.0-0.45","","img/yellow.png","null","trial","null","true","0.2,0.8","2:nogo_b","",""
"null","","html-keyboard-response","356","619569","0.0-6.0-1.45","","<img src=""img/yellow-r.png"">","null","trial","null","","0.2,0.8","2:nogo_b","1",""
"null","","html-keyboard-response","357","620572","0.0-6.0-2.45","","<div style=""font-size:60px;"">+</div>","null","","","","","","",""
"375.240000008489","","image-keyboard-response","358","620950","0.0-6.0-0.46","","img/green.png","32","trial","32","true","0.8,0.2","3:go_c","",""
"null","","html-keyboard-response","359","621953","0.0-6.0-1.46","","<img src=""img/green-r.png"" border=""10"">","null","trial","32","","0.8,0.2","3:go_c","1",""
"null","","html-keyboard-response","360","622954","0.0-6.0-2.46","","<div style=""font-size:60px;"">+</div>","null","","","","","","",""
"1318.7899999902584","","image-keyboard-response","361","624274","0.0-6.0-0.47","","img/blue.png","32","trial","32","true","0.8,0.2","1:go_a","",""
"null","","html-keyboard-response","362","625277","0.0-6.0-1.47","","<img src=""img/blue-n.png"" border=""10"">","null","trial","32","","0.8,0.2","1:go_a","0",""
"null","","html-keyboard-response","363","626281","0.0-6.0-2.47","","<div style=""font-size:60px;"">+</div>","null","","","","","","",""
"null","","image-keyboard-response","364","627784","0.0-6.0-0.48","","img/yellow.png","null","trial","null","true","0.2,0.8","2:nogo_b","",""
"null","","html-keyboard-response","365","628792","0.0-6.0-1.48","","<img src=""img/yellow-r.png"">","null","trial","null","","0.2,0.8","2:nogo_b","1",""
"null","","html-keyboard-response","366","629794","0.0-6.0-2.48","","<div style=""font-size:60px;"">+</div>","null","","","","","","",""
"264.00000001012813","","image-keyboard-response","367","630060","0.0-6.0-0.49","","img/green.png","32","trial","32","true","0.8,0.2","3:go_c","",""
"null","","html-keyboard-response","368","631063","0.0-6.0-1.49","","<img src=""img/green-n.png"" border=""10"">","null","trial","32","","0.8,0.2","3:go_c","0",""
"null","","html-keyboard-response","369","632065","0.0-6.0-2.49","","<div style=""font-size:60px;"">+</div>","null","","","","","","",""
"532.4899999977788","","image-keyboard-response","370","632600","0.0-6.0-0.50","","img/blue.png","32","trial","32","true","0.8,0.2","1:go_a","",""
"null","","html-keyboard-response","371","633604","0.0-6.0-1.50","","<img src=""img/blue-r.png"" border=""10"">","null","trial","32","","0.8,0.2","1:go_a","1",""
"null","","html-keyboard-response","372","634609","0.0-6.0-2.50","","<div style=""font-size:60px;"">+</div>","null","","","","","","",""
"null","","image-keyboard-response","373","636112","0.0-6.0-0.51","","img/grey.png","null","trial","null","true","0.2,0.8","4:nogo_d","",""
"null","","html-keyboard-response","374","637118","0.0-6.0-1.51","","<img src=""img/grey-r.png"">","null","trial","null","","0.2,0.8","4:nogo_d","1",""
"null","","html-keyboard-response","375","638120","0.0-6.0-2.51","","<div style=""font-size:60px;"">+</div>","null","","","","","","",""
"null","","image-keyboard-response","376","639622","0.0-6.0-0.52","","img/yellow.png","null","trial","null","true","0.2,0.8","2:nogo_b","",""
"null","","html-keyboard-response","377","640626","0.0-6.0-1.52","","<img src=""img/yellow-r.png"">","null","trial","null","","0.2,0.8","2:nogo_b","1",""
"null","","html-keyboard-response","378","641628","0.0-6.0-2.52","","<div style=""font-size:60px;"">+</div>","null","","","","","","",""
"515.319999991334","","image-keyboard-response","379","642146","0.0-6.0-0.53","","img/green.png","32","trial","32","true","0.8,0.2","3:go_c","",""
"null","","html-keyboard-response","380","643149","0.0-6.0-1.53","","<img src=""img/green-n.png"" border=""10"">","null","trial","32","","0.8,0.2","3:go_c","0",""
"null","","html-keyboard-response","381","644151","0.0-6.0-2.53","","<div style=""font-size:60px;"">+</div>","null","","","","","","",""
"null","","image-keyboard-response","382","645654","0.0-6.0-0.54","","img/grey.png","null","trial","null","true","0.2,0.8","4:nogo_d","",""
"null","","html-keyboard-response","383","646658","0.0-6.0-1.54","","<img src=""img/grey-r.png"">","null","trial","null","","0.2,0.8","4:nogo_d","1",""
"null","","html-keyboard-response","384","647660","0.0-6.0-2.54","","<div style=""font-size:60px;"">+</div>","null","","","","","","",""
"599.0750000055414","","image-keyboard-response","385","648262","0.0-6.0-0.55","","img/blue.png","32","trial","32","true","0.8,0.2","1:go_a","",""
"null","","html-keyboard-response","386","649268","0.0-6.0-1.55","","<img src=""img/blue-r.png"" border=""10"">","null","trial","32","","0.8,0.2","1:go_a","1",""
"null","","html-keyboard-response","387","650270","0.0-6.0-2.55","","<div style=""font-size:60px;"">+</div>","null","","","","","","",""
"null","","image-keyboard-response","388","651773","0.0-6.0-0.56","","img/yellow.png","null","trial","null","true","0.2,0.8","2:nogo_b","",""
"null","","html-keyboard-response","389","652778","0.0-6.0-1.56","","<img src=""img/yellow-r.png"">","null","trial","null","","0.2,0.8","2:nogo_b","1",""
"null","","html-keyboard-response","390","653779","0.0-6.0-2.56","","<div style=""font-size:60px;"">+</div>","null","","","","","","",""
"null","","image-keyboard-response","391","655283","0.0-6.0-0.57","","img/blue.png","null","trial","32","false","0.8,0.2","1:go_a","",""
"null","","html-keyboard-response","392","656286","0.0-6.0-1.57","","<img src=""img/blue-n.png"">","null","trial","32","","0.8,0.2","1:go_a","0",""
"null","","html-keyboard-response","393","657291","0.0-6.0-2.57","","<div style=""font-size:60px;"">+</div>","null","","","","","","",""
"577.2599999909289","","image-keyboard-response","394","657870","0.0-6.0-0.58","","img/grey.png","32","trial","null","false","0.2,0.8","4:nogo_d","",""
"null","","html-keyboard-response","395","658874","0.0-6.0-1.58","","<img src=""img/grey-n.png"" border=""10"">","null","trial","null","","0.2,0.8","4:nogo_d","0",""
"null","","html-keyboard-response","396","659880","0.0-6.0-2.58","","<div style=""font-size:60px;"">+</div>","null","","","","","","",""
"379.72500000614673","","image-keyboard-response","397","660262","0.0-6.0-0.59","","img/green.png","32","trial","32","true","0.8,0.2","3:go_c","",""
"null","","html-keyboard-response","398","661266","0.0-6.0-1.59","","<img src=""img/green-r.png"" border=""10"">","null","trial","32","","0.8,0.2","3:go_c","1",""
"null","","html-keyboard-response","399","662268","0.0-6.0-2.59","","<div style=""font-size:60px;"">+</div>","null","","","","","","",""
"null","","image-keyboard-response","400","663772","0.0-6.0-0.60","","img/blue.png","null","trial","32","false","0.8,0.2","1:go_a","",""
"null","","html-keyboard-response","401","664777","0.0-6.0-1.60","","<img src=""img/blue-n.png"">","null","trial","32","","0.8,0.2","1:go_a","0",""
"null","","html-keyboard-response","402","665779","0.0-6.0-2.60","","<div style=""font-size:60px;"">+</div>","null","","","","","","",""
"462.8599999996368","","image-keyboard-response","403","666244","0.0-6.0-0.61","","img/yellow.png","32","trial","null","false","0.2,0.8","2:nogo_b","",""
"null","","html-keyboard-response","404","667248","0.0-6.0-1.61","","<img src=""img/yellow-r.png"" border=""10"">","null","trial","null","","0.2,0.8","2:nogo_b","1",""
"null","","html-keyboard-response","405","668250","0.0-6.0-2.61","","<div style=""font-size:60px;"">+</div>","null","","","","","","",""
"600.800000000163","","image-keyboard-response","406","668852","0.0-6.0-0.62","","img/green.png","32","trial","32","true","0.8,0.2","3:go_c","",""
"null","","html-keyboard-response","407","669855","0.0-6.0-1.62","","<img src=""img/green-r.png"" border=""10"">","null","trial","32","","0.8,0.2","3:go_c","1",""
"null","","html-keyboard-response","408","670857","0.0-6.0-2.62","","<div style=""font-size:60px;"">+</div>","null","","","","","","",""
"null","","image-keyboard-response","409","672360","0.0-6.0-0.63","","img/grey.png","null","trial","null","true","0.2,0.8","4:nogo_d","",""
"null","","html-keyboard-response","410","673365","0.0-6.0-1.63","","<img src=""img/grey-r.png"">","null","trial","null","","0.2,0.8","4:nogo_d","1",""
"null","","html-keyboard-response","411","674367","0.0-6.0-2.63","","<div style=""font-size:60px;"">+</div>","null","","","","","","",""
"906.7050000012387","","image-keyboard-response","412","675277","0.0-6.0-0.64","","img/green.png","32","trial","32","true","0.8,0.2","3:go_c","",""
"null","","html-keyboard-response","413","676282","0.0-6.0-1.64","","<img src=""img/green-r.png"" border=""10"">","null","trial","32","","0.8,0.2","3:go_c","1",""
"null","","html-keyboard-response","414","677284","0.0-6.0-2.64","","<div style=""font-size:60px;"">+</div>","null","","","","","","",""
"694.6800000005169","","image-keyboard-response","415","677981","0.0-6.0-0.65","","img/yellow.png","32","trial","null","false","0.2,0.8","2:nogo_b","",""
"null","","html-keyboard-response","416","678986","0.0-6.0-1.65","","<img src=""img/yellow-n.png"" border=""10"">","null","trial","null","","0.2,0.8","2:nogo_b","0",""
"null","","html-keyboard-response","417","679988","0.0-6.0-2.65","","<div style=""font-size:60px;"">+</div>","null","","","","","","",""
"672.8399999992689","","image-keyboard-response","418","680664","0.0-6.0-0.66","","img/blue.png","32","trial","32","true","0.8,0.2","1:go_a","",""
"null","","html-keyboard-response","419","681667","0.0-6.0-1.66","","<img src=""img/blue-r.png"" border=""10"">","null","trial","32","","0.8,0.2","1:go_a","1",""
"null","","html-keyboard-response","420","682670","0.0-6.0-2.66","","<div style=""font-size:60px;"">+</div>","null","","","","","","",""
"null","","image-keyboard-response","421","684172","0.0-6.0-0.67","","img/grey.png","null","trial","null","true","0.2,0.8","4:nogo_d","",""
"null","","html-keyboard-response","422","685177","0.0-6.0-1.67","","<img src=""img/grey-r.png"">","null","trial","null","","0.2,0.8","4:nogo_d","1",""
"null","","html-keyboard-response","423","686178","0.0-6.0-2.67","","<div style=""font-size:60px;"">+</div>","null","","","","","","",""
"null","","image-keyboard-response","424","687680","0.0-6.0-0.68","","img/grey.png","null","trial","null","true","0.2,0.8","4:nogo_d","",""
"null","","html-keyboard-response","425","688683","0.0-6.0-1.68","","<img src=""img/grey-r.png"">","null","trial","null","","0.2,0.8","4:nogo_d","1",""
"null","","html-keyboard-response","426","689685","0.0-6.0-2.68","","<div style=""font-size:60px;"">+</div>","null","","","","","","",""
"511.9199999899138","","image-keyboard-response","427","690198","0.0-6.0-0.69","","img/blue.png","32","trial","32","true","0.8,0.2","1:go_a","",""
"null","","html-keyboard-response","428","691204","0.0-6.0-1.69","","<img src=""img/blue-r.png"" border=""10"">","null","trial","32","","0.8,0.2","1:go_a","1",""
"null","","html-keyboard-response","429","692205","0.0-6.0-2.69","","<div style=""font-size:60px;"">+</div>","null","","","","","","",""
"614.8899999971036","","image-keyboard-response","430","692821","0.0-6.0-0.70","","img/yellow.png","32","trial","null","false","0.2,0.8","2:nogo_b","",""
"null","","html-keyboard-response","431","693826","0.0-6.0-1.70","","<img src=""img/yellow-n.png"" border=""10"">","null","trial","null","","0.2,0.8","2:nogo_b","0",""
"null","","html-keyboard-response","432","694827","0.0-6.0-2.70","","<div style=""font-size:60px;"">+</div>","null","","","","","","",""
"568.779999986873","","image-keyboard-response","433","695398","0.0-6.0-0.71","","img/green.png","32","trial","32","true","0.8,0.2","3:go_c","",""
"null","","html-keyboard-response","434","696408","0.0-6.0-1.71","","<img src=""img/green-r.png"" border=""10"">","null","trial","32","","0.8,0.2","3:go_c","1",""
"null","","html-keyboard-response","435","697411","0.0-6.0-2.71","","<div style=""font-size:60px;"">+</div>","null","","","","","","",""
"null","","image-keyboard-response","436","698914","0.0-6.0-0.72","","img/yellow.png","null","trial","null","true","0.2,0.8","2:nogo_b","",""
"null","","html-keyboard-response","437","699917","0.0-6.0-1.72","","<img src=""img/yellow-r.png"">","null","trial","null","","0.2,0.8","2:nogo_b","1",""
"null","","html-keyboard-response","438","700919","0.0-6.0-2.72","","<div style=""font-size:60px;"">+</div>","null","","","","","","",""
"null","","image-keyboard-response","439","702422","0.0-6.0-0.73","","img/green.png","null","trial","32","false","0.8,0.2","3:go_c","",""
"null","","html-keyboard-response","440","703425","0.0-6.0-1.73","","<img src=""img/green-n.png"">","null","trial","32","","0.8,0.2","3:go_c","0",""
"null","","html-keyboard-response","441","704427","0.0-6.0-2.73","","<div style=""font-size:60px;"">+</div>","null","","","","","","",""
"null","","image-keyboard-response","442","705929","0.0-6.0-0.74","","img/grey.png","null","trial","null","true","0.2,0.8","4:nogo_d","",""
"null","","html-keyboard-response","443","706932","0.0-6.0-1.74","","<img src=""img/grey-r.png"">","null","trial","null","","0.2,0.8","4:nogo_d","1",""
"null","","html-keyboard-response","444","707933","0.0-6.0-2.74","","<div style=""font-size:60px;"">+</div>","null","","","","","","",""
"407.245000009425","","image-keyboard-response","445","708342","0.0-6.0-0.75","","img/blue.png","32","trial","32","true","0.8,0.2","1:go_a","",""
"null","","html-keyboard-response","446","709346","0.0-6.0-1.75","","<img src=""img/blue-r.png"" border=""10"">","null","trial","32","","0.8,0.2","1:go_a","1",""
"null","","html-keyboard-response","447","710347","0.0-6.0-2.75","","<div style=""font-size:60px;"">+</div>","null","","","","","","",""
"454.1999999928521","","image-keyboard-response","448","710803","0.0-6.0-0.76","","img/yellow.png","32","trial","null","false","0.2,0.8","2:nogo_b","",""
"null","","html-keyboard-response","449","711806","0.0-6.0-1.76","","<img src=""img/yellow-n.png"" border=""10"">","null","trial","null","","0.2,0.8","2:nogo_b","0",""
"null","","html-keyboard-response","450","712807","0.0-6.0-2.76","","<div style=""font-size:60px;"">+</div>","null","","","","","","",""
"524.6550000010757","","image-keyboard-response","451","713333","0.0-6.0-0.77","","img/green.png","32","trial","32","true","0.8,0.2","3:go_c","",""
"null","","html-keyboard-response","452","714336","0.0-6.0-1.77","","<img src=""img/green-r.png"" border=""10"">","null","trial","32","","0.8,0.2","3:go_c","1",""
"null","","html-keyboard-response","453","715337","0.0-6.0-2.77","","<div style=""font-size:60px;"">+</div>","null","","","","","","",""
"795.285000000149","","image-keyboard-response","454","716135","0.0-6.0-0.78","","img/grey.png","32","trial","null","false","0.2,0.8","4:nogo_d","",""
"null","","html-keyboard-response","455","717139","0.0-6.0-1.78","","<img src=""img/grey-n.png"" border=""10"">","null","trial","null","","0.2,0.8","4:nogo_d","0",""
"null","","html-keyboard-response","456","718141","0.0-6.0-2.78","","<div style=""font-size:60px;"">+</div>","null","","","","","","",""
"680.0150000053691","","image-keyboard-response","457","718823","0.0-6.0-0.79","","img/blue.png","32","trial","32","true","0.8,0.2","1:go_a","",""
"null","","html-keyboard-response","458","719826","0.0-6.0-1.79","","<img src=""img/blue-n.png"" border=""10"">","null","trial","32","","0.8,0.2","1:go_a","0",""
"null","","html-keyboard-response","459","720829","0.0-6.0-2.79","","<div style=""font-size:60px;"">+</div>","null","","","","","","",""
"929.7800000058487","","image-keyboard-response","460","721760","0.0-6.0-0.80","","img/yellow.png","32","trial","null","false","0.2,0.8","2:nogo_b","",""
"null","","html-keyboard-response","461","722764","0.0-6.0-1.80","","<img src=""img/yellow-n.png"" border=""10"">","null","trial","null","","0.2,0.8","2:nogo_b","0",""
"null","","html-keyboard-response","462","723767","0.0-6.0-2.80","","<div style=""font-size:60px;"">+</div>","null","","","","","","",""
"279.59000000555534","","image-keyboard-response","463","724049","0.0-6.0-0.81","","img/blue.png","32","trial","32","true","0.8,0.2","1:go_a","",""
"null","","html-keyboard-response","464","725053","0.0-6.0-1.81","","<img src=""img/blue-n.png"" border=""10"">","null","trial","32","","0.8,0.2","1:go_a","0",""
"null","","html-keyboard-response","465","726055","0.0-6.0-2.81","","<div style=""font-size:60px;"">+</div>","null","","","","","","",""
"295.7699999969918","","image-keyboard-response","466","726353","0.0-6.0-0.82","","img/green.png","32","trial","32","true","0.8,0.2","3:go_c","",""
"null","","html-keyboard-response","467","727356","0.0-6.0-1.82","","<img src=""img/green-r.png"" border=""10"">","null","trial","32","","0.8,0.2","3:go_c","1",""
"null","","html-keyboard-response","468","728357","0.0-6.0-2.82","","<div style=""font-size:60px;"">+</div>","null","","","","","","",""
"1257.8399999911198","","image-keyboard-response","469","729617","0.0-6.0-0.83","","img/grey.png","32","trial","null","false","0.2,0.8","4:nogo_d","",""
"null","","html-keyboard-response","470","730622","0.0-6.0-1.83","","<img src=""img/grey-n.png"" border=""10"">","null","trial","null","","0.2,0.8","4:nogo_d","0",""
"null","","html-keyboard-response","471","731624","0.0-6.0-2.83","","<div style=""font-size:60px;"">+</div>","null","","","","","","",""
"null","","image-keyboard-response","472","733127","0.0-6.0-0.84","","img/grey.png","null","trial","null","true","0.2,0.8","4:nogo_d","",""
"null","","html-keyboard-response","473","734131","0.0-6.0-1.84","","<img src=""img/grey-r.png"">","null","trial","null","","0.2,0.8","4:nogo_d","1",""
"null","","html-keyboard-response","474","735134","0.0-6.0-2.84","","<div style=""font-size:60px;"">+</div>","null","","","","","","",""
"1168.0300000007264","","image-keyboard-response","475","736305","0.0-6.0-0.85","","img/green.png","32","trial","32","true","0.8,0.2","3:go_c","",""
"null","","html-keyboard-response","476","737309","0.0-6.0-1.85","","<img src=""img/green-r.png"" border=""10"">","null","trial","32","","0.8,0.2","3:go_c","1",""
"null","","html-keyboard-response","477","738312","0.0-6.0-2.85","","<div style=""font-size:60px;"">+</div>","null","","","","","","",""
"null","","image-keyboard-response","478","739815","0.0-6.0-0.86","","img/yellow.png","null","trial","null","true","0.2,0.8","2:nogo_b","",""
"null","","html-keyboard-response","479","740820","0.0-6.0-1.86","","<img src=""img/yellow-n.png"">","null","trial","null","","0.2,0.8","2:nogo_b","0",""
"null","","html-keyboard-response","480","741822","0.0-6.0-2.86","","<div style=""font-size:60px;"">+</div>","null","","","","","","",""
"null","","image-keyboard-response","481","743325","0.0-6.0-0.87","","img/blue.png","null","trial","32","false","0.8,0.2","1:go_a","",""
"null","","html-keyboard-response","482","744330","0.0-6.0-1.87","","<img src=""img/blue-n.png"">","null","trial","32","","0.8,0.2","1:go_a","0",""
"null","","html-keyboard-response","483","745332","0.0-6.0-2.87","","<div style=""font-size:60px;"">+</div>","null","","","","","","",""
"472.03499999886844","","image-keyboard-response","484","745807","0.0-6.0-0.88","","img/green.png","32","trial","32","true","0.8,0.2","3:go_c","",""
"null","","html-keyboard-response","485","746810","0.0-6.0-1.88","","<img src=""img/green-r.png"" border=""10"">","null","trial","32","","0.8,0.2","3:go_c","1",""
"null","","html-keyboard-response","486","747812","0.0-6.0-2.88","","<div style=""font-size:60px;"">+</div>","null","","","","","","",""
"1068.1099999928847","","image-keyboard-response","487","748883","0.0-6.0-0.89","","img/blue.png","32","trial","32","true","0.8,0.2","1:go_a","",""
"null","","html-keyboard-response","488","749886","0.0-6.0-1.89","","<img src=""img/blue-r.png"" border=""10"">","null","trial","32","","0.8,0.2","1:go_a","1",""
"null","","html-keyboard-response","489","750891","0.0-6.0-2.89","","<div style=""font-size:60px;"">+</div>","null","","","","","","",""
"null","","image-keyboard-response","490","752393","0.0-6.0-0.90","","img/yellow.png","null","trial","null","true","0.2,0.8","2:nogo_b","",""
"null","","html-keyboard-response","491","753399","0.0-6.0-1.90","","<img src=""img/yellow-r.png"">","null","trial","null","","0.2,0.8","2:nogo_b","1",""
"null","","html-keyboard-response","492","754401","0.0-6.0-2.90","","<div style=""font-size:60px;"">+</div>","null","","","","","","",""
"null","","image-keyboard-response","493","755904","0.0-6.0-0.91","","img/grey.png","null","trial","null","true","0.2,0.8","4:nogo_d","",""
"null","","html-keyboard-response","494","756909","0.0-6.0-1.91","","<img src=""img/grey-r.png"">","null","trial","null","","0.2,0.8","4:nogo_d","1",""
"null","","html-keyboard-response","495","757911","0.0-6.0-2.91","","<div style=""font-size:60px;"">+</div>","null","","","","","","",""
"null","","image-keyboard-response","496","759415","0.0-6.0-0.92","","img/yellow.png","null","trial","null","true","0.2,0.8","2:nogo_b","",""
"null","","html-keyboard-response","497","760421","0.0-6.0-1.92","","<img src=""img/yellow-r.png"">","null","trial","null","","0.2,0.8","2:nogo_b","1",""
"null","","html-keyboard-response","498","761422","0.0-6.0-2.92","","<div style=""font-size:60px;"">+</div>","null","","","","","","",""
"465.3449999896111","","image-keyboard-response","499","761889","0.0-6.0-0.93","","img/blue.png","32","trial","32","true","0.8,0.2","1:go_a","",""
"null","","html-keyboard-response","500","762898","0.0-6.0-1.93","","<img src=""img/blue-r.png"" border=""10"">","null","trial","32","","0.8,0.2","1:go_a","1",""
"null","","html-keyboard-response","501","763899","0.0-6.0-2.93","","<div style=""font-size:60px;"">+</div>","null","","","","","","",""
"null","","image-keyboard-response","502","765401","0.0-6.0-0.94","","img/green.png","null","trial","32","false","0.8,0.2","3:go_c","",""
"null","","html-keyboard-response","503","766405","0.0-6.0-1.94","","<img src=""img/green-n.png"">","null","trial","32","","0.8,0.2","3:go_c","0",""
"null","","html-keyboard-response","504","767407","0.0-6.0-2.94","","<div style=""font-size:60px;"">+</div>","null","","","","","","",""
"null","","image-keyboard-response","505","768908","0.0-6.0-0.95","","img/grey.png","null","trial","null","true","0.2,0.8","4:nogo_d","",""
"null","","html-keyboard-response","506","769911","0.0-6.0-1.95","","<img src=""img/grey-r.png"">","null","trial","null","","0.2,0.8","4:nogo_d","1",""
"null","","html-keyboard-response","507","770913","0.0-6.0-2.95","","<div style=""font-size:60px;"">+</div>","null","","","","","","",""
"613.3799999952316","","image-keyboard-response","508","771528","0.0-6.0-0.96","","img/blue.png","32","trial","32","true","0.8,0.2","1:go_a","",""
"null","","html-keyboard-response","509","772533","0.0-6.0-1.96","","<img src=""img/blue-r.png"" border=""10"">","null","trial","32","","0.8,0.2","1:go_a","1",""
"null","","html-keyboard-response","510","773535","0.0-6.0-2.96","","<div style=""font-size:60px;"">+</div>","null","","","","","","",""
"685.7400000008056","","image-keyboard-response","511","774222","0.0-6.0-0.97","","img/green.png","32","trial","32","true","0.8,0.2","3:go_c","",""
"null","","html-keyboard-response","512","775225","0.0-6.0-1.97","","<img src=""img/green-r.png"" border=""10"">","null","trial","32","","0.8,0.2","3:go_c","1",""
"null","","html-keyboard-response","513","776227","0.0-6.0-2.97","","<div style=""font-size:60px;"">+</div>","null","","","","","","",""
"413.35000000253785","","image-keyboard-response","514","776642","0.0-6.0-0.98","","img/grey.png","32","trial","null","false","0.2,0.8","4:nogo_d","",""
"null","","html-keyboard-response","515","777646","0.0-6.0-1.98","","<img src=""img/grey-n.png"" border=""10"">","null","trial","null","","0.2,0.8","4:nogo_d","0",""
"null","","html-keyboard-response","516","778647","0.0-6.0-2.98","","<div style=""font-size:60px;"">+</div>","null","","","","","","",""
"760.9149999916553","","image-keyboard-response","517","779411","0.0-6.0-0.99","","img/yellow.png","32","trial","null","false","0.2,0.8","2:nogo_b","",""
"null","","html-keyboard-response","518","780413","0.0-6.0-1.99","","<img src=""img/yellow-n.png"" border=""10"">","null","trial","null","","0.2,0.8","2:nogo_b","0",""
"null","","html-keyboard-response","519","781415","0.0-6.0-2.99","","<div style=""font-size:60px;"">+</div>","null","","","","","","",""
"1189.8199999995995","","image-keyboard-response","520","782607","0.0-6.0-0.100","","img/blue.png","32","trial","32","true","0.8,0.2","1:go_a","",""
"null","","html-keyboard-response","521","783610","0.0-6.0-1.100","","<img src=""img/blue-r.png"" border=""10"">","null","trial","32","","0.8,0.2","1:go_a","1",""
"null","","html-keyboard-response","522","784612","0.0-6.0-2.100","","<div style=""font-size:60px;"">+</div>","null","","","","","","",""
"null","","image-keyboard-response","523","786114","0.0-6.0-0.101","","img/grey.png","null","trial","null","true","0.2,0.8","4:nogo_d","",""
"null","","html-keyboard-response","524","787118","0.0-6.0-1.101","","<img src=""img/grey-r.png"">","null","trial","null","","0.2,0.8","4:nogo_d","1",""
"null","","html-keyboard-response","525","788120","0.0-6.0-2.101","","<div style=""font-size:60px;"">+</div>","null","","","","","","",""
"429.1700000030687","","image-keyboard-response","526","788551","0.0-6.0-0.102","","img/green.png","32","trial","32","true","0.8,0.2","3:go_c","",""
"null","","html-keyboard-response","527","789555","0.0-6.0-1.102","","<img src=""img/green-r.png"" border=""10"">","null","trial","32","","0.8,0.2","3:go_c","1",""
"null","","html-keyboard-response","528","790557","0.0-6.0-2.102","","<div style=""font-size:60px;"">+</div>","null","","","","","","",""
"969.3949999928009","","image-keyboard-response","529","791528","0.0-6.0-0.103","","img/yellow.png","32","trial","null","false","0.2,0.8","2:nogo_b","",""
"null","","html-keyboard-response","530","792531","0.0-6.0-1.103","","<img src=""img/yellow-n.png"" border=""10"">","null","trial","null","","0.2,0.8","2:nogo_b","0",""
"null","","html-keyboard-response","531","793534","0.0-6.0-2.103","","<div style=""font-size:60px;"">+</div>","null","","","","","","",""
"962.1100000076694","","image-keyboard-response","532","794497","0.0-6.0-0.104","","img/grey.png","32","trial","null","false","0.2,0.8","4:nogo_d","",""
"null","","html-keyboard-response","533","795501","0.0-6.0-1.104","","<img src=""img/grey-n.png"" border=""10"">","null","trial","null","","0.2,0.8","4:nogo_d","0",""
"null","","html-keyboard-response","534","796508","0.0-6.0-2.104","","<div style=""font-size:60px;"">+</div>","null","","","","","","",""
"null","","image-keyboard-response","535","798011","0.0-6.0-0.105","","img/yellow.png","null","trial","null","true","0.2,0.8","2:nogo_b","",""
"null","","html-keyboard-response","536","799017","0.0-6.0-1.105","","<img src=""img/yellow-n.png"">","null","trial","null","","0.2,0.8","2:nogo_b","0",""
"null","","html-keyboard-response","537","800019","0.0-6.0-2.105","","<div style=""font-size:60px;"">+</div>","null","","","","","","",""
"null","","image-keyboard-response","538","801523","0.0-6.0-0.106","","img/blue.png","null","trial","32","false","0.8,0.2","1:go_a","",""
"null","","html-keyboard-response","539","802527","0.0-6.0-1.106","","<img src=""img/blue-n.png"">","null","trial","32","","0.8,0.2","1:go_a","0",""
"null","","html-keyboard-response","540","803530","0.0-6.0-2.106","","<div style=""font-size:60px;"">+</div>","null","","","","","","",""
"922.2500000032596","","image-keyboard-response","541","804454","0.0-6.0-0.107","","img/green.png","32","trial","32","true","0.8,0.2","3:go_c","",""
"null","","html-keyboard-response","542","805458","0.0-6.0-1.107","","<img src=""img/green-r.png"" border=""10"">","null","trial","32","","0.8,0.2","3:go_c","1",""
"null","","html-keyboard-response","543","806460","0.0-6.0-2.107","","<div style=""font-size:60px;"">+</div>","null","","","","","","",""
"null","","image-keyboard-response","544","807964","0.0-6.0-0.108","","img/grey.png","null","trial","null","true","0.2,0.8","4:nogo_d","",""
"null","","html-keyboard-response","545","808968","0.0-6.0-1.108","","<img src=""img/grey-r.png"">","null","trial","null","","0.2,0.8","4:nogo_d","1",""
"null","","html-keyboard-response","546","809971","0.0-6.0-2.108","","<div style=""font-size:60px;"">+</div>","null","","","","","","",""
"null","","image-keyboard-response","547","811474","0.0-6.0-0.109","","img/green.png","null","trial","32","false","0.8,0.2","3:go_c","",""
"null","","html-keyboard-response","548","812478","0.0-6.0-1.109","","<img src=""img/green-n.png"">","null","trial","32","","0.8,0.2","3:go_c","0",""
"null","","html-keyboard-response","549","813481","0.0-6.0-2.109","","<div style=""font-size:60px;"">+</div>","null","","","","","","",""
"null","","image-keyboard-response","550","814984","0.0-6.0-0.110","","img/blue.png","null","trial","32","false","0.8,0.2","1:go_a","",""
"null","","html-keyboard-response","551","815990","0.0-6.0-1.110","","<img src=""img/blue-n.png"">","null","trial","32","","0.8,0.2","1:go_a","0",""
"null","","html-keyboard-response","552","816992","0.0-6.0-2.110","","<div style=""font-size:60px;"">+</div>","null","","","","","","",""
"711.6349999996601","","image-keyboard-response","553","817706","0.0-6.0-0.111","","img/yellow.png","32","trial","null","false","0.2,0.8","2:nogo_b","",""
"null","","html-keyboard-response","554","818709","0.0-6.0-1.111","","<img src=""img/yellow-n.png"" border=""10"">","null","trial","null","","0.2,0.8","2:nogo_b","0",""
"null","","html-keyboard-response","555","819711","0.0-6.0-2.111","","<div style=""font-size:60px;"">+</div>","null","","","","","","",""
"987.3399999924004","","image-keyboard-response","556","820701","0.0-6.0-0.112","","img/blue.png","32","trial","32","true","0.8,0.2","1:go_a","",""
"null","","html-keyboard-response","557","821705","0.0-6.0-1.112","","<img src=""img/blue-r.png"" border=""10"">","null","trial","32","","0.8,0.2","1:go_a","1",""
"null","","html-keyboard-response","558","822706","0.0-6.0-2.112","","<div style=""font-size:60px;"">+</div>","null","","","","","","",""
"1475.109999999404","","image-keyboard-response","559","824185","0.0-6.0-0.113","","img/green.png","32","trial","32","true","0.8,0.2","3:go_c","",""
"null","","html-keyboard-response","560","825190","0.0-6.0-1.113","","<img src=""img/green-r.png"" border=""10"">","null","trial","32","","0.8,0.2","3:go_c","1",""
"null","","html-keyboard-response","561","826192","0.0-6.0-2.113","","<div style=""font-size:60px;"">+</div>","null","","","","","","",""
"762.8350000013597","","image-keyboard-response","562","826958","0.0-6.0-0.114","","img/grey.png","32","trial","null","false","0.2,0.8","4:nogo_d","",""
"null","","html-keyboard-response","563","827962","0.0-6.0-1.114","","<img src=""img/grey-n.png"" border=""10"">","null","trial","null","","0.2,0.8","4:nogo_d","0",""
"null","","html-keyboard-response","564","828964","0.0-6.0-2.114","","<div style=""font-size:60px;"">+</div>","null","","","","","","",""
"null","","image-keyboard-response","565","830467","0.0-6.0-0.115","","img/yellow.png","null","trial","null","true","0.2,0.8","2:nogo_b","",""
"null","","html-keyboard-response","566","831475","0.0-6.0-1.115","","<img src=""img/yellow-r.png"">","null","trial","null","","0.2,0.8","2:nogo_b","1",""
"null","","html-keyboard-response","567","832477","0.0-6.0-2.115","","<div style=""font-size:60px;"">+</div>","null","","","","","","",""
"null","","image-keyboard-response","568","833980","0.0-6.0-0.116","","img/yellow.png","null","trial","null","true","0.2,0.8","2:nogo_b","",""
"null","","html-keyboard-response","569","834986","0.0-6.0-1.116","","<img src=""img/yellow-n.png"">","null","trial","null","","0.2,0.8","2:nogo_b","0",""
"null","","html-keyboard-response","570","835988","0.0-6.0-2.116","","<div style=""font-size:60px;"">+</div>","null","","","","","","",""
"440.34000000101514","","image-keyboard-response","571","836430","0.0-6.0-0.117","","img/green.png","32","trial","32","true","0.8,0.2","3:go_c","",""
"null","","html-keyboard-response","572","837433","0.0-6.0-1.117","","<img src=""img/green-n.png"" border=""10"">","null","trial","32","","0.8,0.2","3:go_c","0",""
"null","","html-keyboard-response","573","838435","0.0-6.0-2.117","","<div style=""font-size:60px;"">+</div>","null","","","","","","",""
"null","","image-keyboard-response","574","839940","0.0-6.0-0.118","","img/grey.png","null","trial","null","true","0.2,0.8","4:nogo_d","",""
"null","","html-keyboard-response","575","840944","0.0-6.0-1.118","","<img src=""img/grey-r.png"">","null","trial","null","","0.2,0.8","4:nogo_d","1",""
"null","","html-keyboard-response","576","841947","0.0-6.0-2.118","","<div style=""font-size:60px;"">+</div>","null","","","","","","",""
"580.6500000035157","","image-keyboard-response","577","842529","0.0-6.0-0.119","","img/blue.png","32","trial","32","true","0.8,0.2","1:go_a","",""
"null","","html-keyboard-response","578","843532","0.0-6.0-1.119","","<img src=""img/blue-r.png"" border=""10"">","null","trial","32","","0.8,0.2","1:go_a","1",""
"null","","html-keyboard-response","579","844535","0.0-6.0-2.119","","<div style=""font-size:60px;"">+</div>","null","","","","","","",""
"54189.92999999318","","instructions","580","898727","0.0-7.0","[{""page_index"":0,""viewing_time"":54189.44999999076}]","","","","","","","","",""
"1024.5550000108778","","image-keyboard-response","581","899754","0.0-8.0-0.0","","img/pink.png","32","trial","null","false","0.4,0.6","4:nogo_d","",""
"null","","html-keyboard-response","582","900758","0.0-8.0-1.0","","<img src=""img/pink-r.png"" border=""10"">","null","trial","null","","0.4,0.6","4:nogo_d","1",""
"null","","html-keyboard-response","583","901761","0.0-8.0-2.0","","<div style=""font-size:60px;"">+</div>","null","","","","","","",""
"794.3200000008801","","image-keyboard-response","584","902558","0.0-8.0-0.1","","img/purple.png","32","trial","32","true","0.6,0.4","1:go_a","",""
"null","","html-keyboard-response","585","903565","0.0-8.0-1.1","","<img src=""img/purple-n.png"" border=""10"">","null","trial","32","","0.6,0.4","1:go_a","0",""
"null","","html-keyboard-response","586","904568","0.0-8.0-2.1","","<div style=""font-size:60px;"">+</div>","null","","","","","","",""
"594.1649999876972","","image-keyboard-response","587","905165","0.0-8.0-0.2","","img/orange.png","32","trial","32","true","0.6,0.4","3:go_c","",""
"null","","html-keyboard-response","588","906168","0.0-8.0-1.2","","<img src=""img/orange-r.png"" border=""10"">","null","trial","32","","0.6,0.4","3:go_c","1",""
"null","","html-keyboard-response","589","907170","0.0-8.0-2.2","","<div style=""font-size:60px;"">+</div>","null","","","","","","",""
"586.9350000139093","","image-keyboard-response","590","907760","0.0-8.0-0.3","","img/yellow.png","32","trial","null","false","0.4,0.6","2:nogo_b","",""
"null","","html-keyboard-response","591","908763","0.0-8.0-1.3","","<img src=""img/yellow-r.png"" border=""10"">","null","trial","null","","0.4,0.6","2:nogo_b","1",""
"null","","html-keyboard-response","592","909766","0.0-8.0-2.3","","<div style=""font-size:60px;"">+</div>","null","","","","","","",""
"null","","image-keyboard-response","593","911269","0.0-8.0-0.4","","img/orange.png","null","trial","32","false","0.6,0.4","3:go_c","",""
"null","","html-keyboard-response","594","912272","0.0-8.0-1.4","","<img src=""img/orange-r.png"">","null","trial","32","","0.6,0.4","3:go_c","1",""
"null","","html-keyboard-response","595","913274","0.0-8.0-2.4","","<div style=""font-size:60px;"">+</div>","null","","","","","","",""
"null","","image-keyboard-response","596","914776","0.0-8.0-0.5","","img/yellow.png","null","trial","null","true","0.4,0.6","2:nogo_b","",""
"null","","html-keyboard-response","597","915781","0.0-8.0-1.5","","<img src=""img/yellow-r.png"">","null","trial","null","","0.4,0.6","2:nogo_b","1",""
"null","","html-keyboard-response","598","916783","0.0-8.0-2.5","","<div style=""font-size:60px;"">+</div>","null","","","","","","",""
"null","","image-keyboard-response","599","918286","0.0-8.0-0.6","","img/purple.png","null","trial","32","false","0.6,0.4","1:go_a","",""
"null","","html-keyboard-response","600","919295","0.0-8.0-1.6","","<img src=""img/purple-r.png"">","null","trial","32","","0.6,0.4","1:go_a","1",""
"null","","html-keyboard-response","601","920297","0.0-8.0-2.6","","<div style=""font-size:60px;"">+</div>","null","","","","","","",""
"798.6000000091735","","image-keyboard-response","602","921099","0.0-8.0-0.7","","img/pink.png","32","trial","null","false","0.4,0.6","4:nogo_d","",""
"null","","html-keyboard-response","603","922102","0.0-8.0-1.7","","<img src=""img/pink-n.png"" border=""10"">","null","trial","null","","0.4,0.6","4:nogo_d","0",""
"null","","html-keyboard-response","604","923107","0.0-8.0-2.7","","<div style=""font-size:60px;"">+</div>","null","","","","","","",""
"613.7099999905331","","image-keyboard-response","605","923723","0.0-8.0-0.8","","img/yellow.png","32","trial","null","false","0.4,0.6","2:nogo_b","",""
"null","","html-keyboard-response","606","924727","0.0-8.0-1.8","","<img src=""img/yellow-r.png"" border=""10"">","null","trial","null","","0.4,0.6","2:nogo_b","1",""
"null","","html-keyboard-response","607","925729","0.0-8.0-2.8","","<div style=""font-size:60px;"">+</div>","null","","","","","","",""
"866.3650000089547","","image-keyboard-response","608","926597","0.0-8.0-0.9","","img/pink.png","32","trial","null","false","0.4,0.6","4:nogo_d","",""
"null","","html-keyboard-response","609","927599","0.0-8.0-1.9","","<img src=""img/pink-n.png"" border=""10"">","null","trial","null","","0.4,0.6","4:nogo_d","0",""
"null","","html-keyboard-response","610","928601","0.0-8.0-2.9","","<div style=""font-size:60px;"">+</div>","null","","","","","","",""
"442.6400000083959","","image-keyboard-response","611","929046","0.0-8.0-0.10","","img/purple.png","32","trial","32","true","0.6,0.4","1:go_a","",""
"null","","html-keyboard-response","612","930050","0.0-8.0-1.10","","<img src=""img/purple-r.png"" border=""10"">","null","trial","32","","0.6,0.4","1:go_a","1",""
"null","","html-keyboard-response","613","931051","0.0-8.0-2.10","","<div style=""font-size:60px;"">+</div>","null","","","","","","",""
"null","","image-keyboard-response","614","932557","0.0-8.0-0.11","","img/orange.png","null","trial","32","false","0.6,0.4","3:go_c","",""
"null","","html-keyboard-response","615","933561","0.0-8.0-1.11","","<img src=""img/orange-n.png"">","null","trial","32","","0.6,0.4","3:go_c","0",""
"null","","html-keyboard-response","616","934563","0.0-8.0-2.11","","<div style=""font-size:60px;"">+</div>","null","","","","","","",""
"356.2850000016624","","image-keyboard-response","617","934924","0.0-8.0-0.12","","img/orange.png","32","trial","32","true","0.6,0.4","3:go_c","",""
"null","","html-keyboard-response","618","935927","0.0-8.0-1.12","","<img src=""img/orange-n.png"" border=""10"">","null","trial","32","","0.6,0.4","3:go_c","0",""
"null","","html-keyboard-response","619","936930","0.0-8.0-2.12","","<div style=""font-size:60px;"">+</div>","null","","","","","","",""
"1089.2000000021653","","image-keyboard-response","620","938021","0.0-8.0-0.13","","img/pink.png","32","trial","null","false","0.4,0.6","4:nogo_d","",""
"null","","html-keyboard-response","621","939025","0.0-8.0-1.13","","<img src=""img/pink-n.png"" border=""10"">","null","trial","null","","0.4,0.6","4:nogo_d","0",""
"null","","html-keyboard-response","622","940027","0.0-8.0-2.13","","<div style=""font-size:60px;"">+</div>","null","","","","","","",""
"468.9399999915622","","image-keyboard-response","623","940499","0.0-8.0-0.14","","img/purple.png","32","trial","32","true","0.6,0.4","1:go_a","",""
"null","","html-keyboard-response","624","941502","0.0-8.0-1.14","","<img src=""img/purple-r.png"" border=""10"">","null","trial","32","","0.6,0.4","1:go_a","1",""
"null","","html-keyboard-response","625","942508","0.0-8.0-2.14","","<div style=""font-size:60px;"">+</div>","null","","","","","","",""
"null","","image-keyboard-response","626","944011","0.0-8.0-0.15","","img/yellow.png","null","trial","null","true","0.4,0.6","2:nogo_b","",""
"null","","html-keyboard-response","627","945016","0.0-8.0-1.15","","<img src=""img/yellow-r.png"">","null","trial","null","","0.4,0.6","2:nogo_b","1",""
"null","","html-keyboard-response","628","946019","0.0-8.0-2.15","","<div style=""font-size:60px;"">+</div>","null","","","","","","",""
"null","","image-keyboard-response","629","947522","0.0-8.0-0.16","","img/purple.png","null","trial","32","false","0.6,0.4","1:go_a","",""
"null","","html-keyboard-response","630","948529","0.0-8.0-1.16","","<img src=""img/purple-r.png"">","null","trial","32","","0.6,0.4","1:go_a","1",""
"null","","html-keyboard-response","631","949531","0.0-8.0-2.16","","<div style=""font-size:60px;"">+</div>","null","","","","","","",""
"null","","image-keyboard-response","632","951034","0.0-8.0-0.17","","img/yellow.png","null","trial","null","true","0.4,0.6","2:nogo_b","",""
"null","","html-keyboard-response","633","952038","0.0-8.0-1.17","","<img src=""img/yellow-r.png"">","null","trial","null","","0.4,0.6","2:nogo_b","1",""
"null","","html-keyboard-response","634","953041","0.0-8.0-2.17","","<div style=""font-size:60px;"">+</div>","null","","","","","","",""
"560.6800000095973","","image-keyboard-response","635","953606","0.0-8.0-0.18","","img/orange.png","32","trial","32","true","0.6,0.4","3:go_c","",""
"null","","html-keyboard-response","636","954610","0.0-8.0-1.18","","<img src=""img/orange-n.png"" border=""10"">","null","trial","32","","0.6,0.4","3:go_c","0",""
"null","","html-keyboard-response","637","955612","0.0-8.0-2.18","","<div style=""font-size:60px;"">+</div>","null","","","","","","",""
"825.4500000039116","","image-keyboard-response","638","956440","0.0-8.0-0.19","","img/pink.png","32","trial","null","false","0.4,0.6","4:nogo_d","",""
"null","","html-keyboard-response","639","957443","0.0-8.0-1.19","","<img src=""img/pink-n.png"" border=""10"">","null","trial","null","","0.4,0.6","4:nogo_d","0",""
"null","","html-keyboard-response","640","958445","0.0-8.0-2.19","","<div style=""font-size:60px;"">+</div>","null","","","","","","",""
"null","","image-keyboard-response","641","959948","0.0-8.0-0.20","","img/pink.png","null","trial","null","true","0.4,0.6","4:nogo_d","",""
"null","","html-keyboard-response","642","960954","0.0-8.0-1.20","","<img src=""img/pink-n.png"">","null","trial","null","","0.4,0.6","4:nogo_d","0",""
"null","","html-keyboard-response","643","961955","0.0-8.0-2.20","","<div style=""font-size:60px;"">+</div>","null","","","","","","",""
"null","","image-keyboard-response","644","963458","0.0-8.0-0.21","","img/yellow.png","null","trial","null","true","0.4,0.6","2:nogo_b","",""
"null","","html-keyboard-response","645","964463","0.0-8.0-1.21","","<img src=""img/yellow-r.png"">","null","trial","null","","0.4,0.6","2:nogo_b","1",""
"null","","html-keyboard-response","646","965466","0.0-8.0-2.21","","<div style=""font-size:60px;"">+</div>","null","","","","","","",""
"445.26999999652617","","image-keyboard-response","647","965912","0.0-8.0-0.22","","img/purple.png","32","trial","32","true","0.6,0.4","1:go_a","",""
"null","","html-keyboard-response","648","966916","0.0-8.0-1.22","","<img src=""img/purple-n.png"" border=""10"">","null","trial","32","","0.6,0.4","1:go_a","0",""
"null","","html-keyboard-response","649","967918","0.0-8.0-2.22","","<div style=""font-size:60px;"">+</div>","null","","","","","","",""
"1084.2650000122376","","image-keyboard-response","650","969006","0.0-8.0-0.23","","img/orange.png","32","trial","32","true","0.6,0.4","3:go_c","",""
"null","","html-keyboard-response","651","970009","0.0-8.0-1.23","","<img src=""img/orange-r.png"" border=""10"">","null","trial","32","","0.6,0.4","3:go_c","1",""
"null","","html-keyboard-response","652","971011","0.0-8.0-2.23","","<div style=""font-size:60px;"">+</div>","null","","","","","","",""
"591.8300000048475","","image-keyboard-response","653","971605","0.0-8.0-0.24","","img/yellow.png","32","trial","null","false","0.4,0.6","2:nogo_b","",""
"null","","html-keyboard-response","654","972609","0.0-8.0-1.24","","<img src=""img/yellow-n.png"" border=""10"">","null","trial","null","","0.4,0.6","2:nogo_b","0",""
"null","","html-keyboard-response","655","973611","0.0-8.0-2.24","","<div style=""font-size:60px;"">+</div>","null","","","","","","",""
"675.5350000021281","","image-keyboard-response","656","974289","0.0-8.0-0.25","","img/purple.png","32","trial","32","true","0.6,0.4","1:go_a","",""
"null","","html-keyboard-response","657","975295","0.0-8.0-1.25","","<img src=""img/purple-r.png"" border=""10"">","null","trial","32","","0.6,0.4","1:go_a","1",""
"null","","html-keyboard-response","658","976297","0.0-8.0-2.25","","<div style=""font-size:60px;"">+</div>","null","","","","","","",""
"null","","image-keyboard-response","659","977799","0.0-8.0-0.26","","img/pink.png","null","trial","null","true","0.4,0.6","4:nogo_d","",""
"null","","html-keyboard-response","660","978803","0.0-8.0-1.26","","<img src=""img/pink-r.png"">","null","trial","null","","0.4,0.6","4:nogo_d","1",""
"null","","html-keyboard-response","661","979808","0.0-8.0-2.26","","<div style=""font-size:60px;"">+</div>","null","","","","","","",""
"1121.4800000016112","","image-keyboard-response","662","980933","0.0-8.0-0.27","","img/orange.png","32","trial","32","true","0.6,0.4","3:go_c","",""
"null","","html-keyboard-response","663","981935","0.0-8.0-1.27","","<img src=""img/orange-r.png"" border=""10"">","null","trial","32","","0.6,0.4","3:go_c","1",""
"null","","html-keyboard-response","664","982937","0.0-8.0-2.27","","<div style=""font-size:60px;"">+</div>","null","","","","","","",""
"505.8350000035716","","image-keyboard-response","665","983444","0.0-8.0-0.28","","img/pink.png","32","trial","null","false","0.4,0.6","4:nogo_d","",""
"null","","html-keyboard-response","666","984454","0.0-8.0-1.28","","<img src=""img/pink-n.png"" border=""10"">","null","trial","null","","0.4,0.6","4:nogo_d","0",""
"null","","html-keyboard-response","667","985457","0.0-8.0-2.28","","<div style=""font-size:60px;"">+</div>","null","","","","","","",""
"599.3350000062492","","image-keyboard-response","668","986059","0.0-8.0-0.29","","img/yellow.png","32","trial","null","false","0.4,0.6","2:nogo_b","",""
"null","","html-keyboard-response","669","987063","0.0-8.0-1.29","","<img src=""img/yellow-n.png"" border=""10"">","null","trial","null","","0.4,0.6","2:nogo_b","0",""
"null","","html-keyboard-response","670","988066","0.0-8.0-2.29","","<div style=""font-size:60px;"">+</div>","null","","","","","","",""
"300.3150000004098","","image-keyboard-response","671","988369","0.0-8.0-0.30","","img/orange.png","32","trial","32","true","0.6,0.4","3:go_c","",""
"null","","html-keyboard-response","672","989377","0.0-8.0-1.30","","<img src=""img/orange-n.png"" border=""10"">","null","trial","32","","0.6,0.4","3:go_c","0",""
"null","","html-keyboard-response","673","990379","0.0-8.0-2.30","","<div style=""font-size:60px;"">+</div>","null","","","","","","",""
"305.5250000033993","","image-keyboard-response","674","990688","0.0-8.0-0.31","","img/purple.png","32","trial","32","true","0.6,0.4","1:go_a","",""
"null","","html-keyboard-response","675","991692","0.0-8.0-1.31","","<img src=""img/purple-r.png"" border=""10"">","null","trial","32","","0.6,0.4","1:go_a","1",""
"null","","html-keyboard-response","676","992695","0.0-8.0-2.31","","<div style=""font-size:60px;"">+</div>","null","","","","","","",""
"null","","image-keyboard-response","677","994198","0.0-8.0-0.32","","img/pink.png","null","trial","null","true","0.4,0.6","4:nogo_d","",""
