"rt","url","trial_type","trial_index","time_elapsed","internal_node_id","view_history","stimulus","key_press","test_part","correct_response","correct","use_rew","which_stim","reward","responses"
"3861.4550000056624","consent.html","external-html","0","3953","0.0-0.0","","","","","","","","","",""
"111735.40000000503","","instructions","1","116433","0.0-1.0","[{""page_index"":0,""viewing_time"":6174.49000000488},{""page_index"":1,""viewing_time"":18501.57500000205},{""page_index"":2,""viewing_time"":15519.384999992326},{""page_index"":3,""viewing_time"":35026.05499996571},{""page_index"":4,""viewing_time"":19901.799999992363},{""page_index"":5,""viewing_time"":10219.7650000453},{""page_index"":6,""viewing_time"":6391.379999986384}]","","","","","","","","",""
"null","","image-keyboard-response","2","117935","0.0-2.0-0.0","","img/test2.PNG","null","practice","null","true","","","",""
"null","","html-keyboard-response","3","118936","0.0-2.0-1.0","","<img src=""img/test2-reward.PNG"">","null","","","","","","",""
"null","","html-keyboard-response","4","119937","0.0-2.0-2.0","","<div style=""font-size:60px;"">+</div>","null","","","","","","",""
"806.1649999581277","","image-keyboard-response","5","120744","0.0-2.0-0.1","","img/test1.PNG","32","practice","32","true","","","",""
"null","","html-keyboard-response","6","121745","0.0-2.0-1.1","","<img src=""img/test1-reward.PNG"" border=""10px; grey"">","null","","","","","","",""
"null","","html-keyboard-response","7","122746","0.0-2.0-2.1","","<div style=""font-size:60px;"">+</div>","null","","","","","","",""
"582.8450000262819","","image-keyboard-response","8","123330","0.0-2.0-0.2","","img/test3.PNG","32","practice","null","false","","","",""
"null","","html-keyboard-response","9","124331","0.0-2.0-1.2","","<img src=""img/test3-neutral.PNG"" border=""10px; grey"">","null","","","","","","",""
"null","","html-keyboard-response","10","126014","0.0-2.0-2.2","","<div style=""font-size:60px;"">+</div>","null","","","","","","",""
"1390.8899999805726","","image-keyboard-response","11","127406","0.0-2.0-0.3","","img/test2.PNG","32","practice","null","false","","","",""
"null","","html-keyboard-response","12","128407","0.0-2.0-1.3","","<img src=""img/test2-neutral.PNG"" border=""10px; grey"">","null","","","","","","",""
"null","","html-keyboard-response","13","129408","0.0-2.0-2.3","","<div style=""font-size:60px;"">+</div>","null","","","","","","",""
"607.3500000056811","","image-keyboard-response","14","130016","0.0-2.0-0.4","","img/test1.PNG","32","practice","32","true","","","",""
"null","","html-keyboard-response","15","131018","0.0-2.0-1.4","","<img src=""img/test1-reward.PNG"" border=""10px; grey"">","null","","","","","","",""
"null","","html-keyboard-response","16","132019","0.0-2.0-2.4","","<div style=""font-size:60px;"">+</div>","null","","","","","","",""
"932.120000012219","","image-keyboard-response","17","132951","0.0-2.0-0.5","","img/test3.PNG","32","practice","null","false","","","",""
"null","","html-keyboard-response","18","133953","0.0-2.0-1.5","","<img src=""img/test3-neutral.PNG"" border=""10px; grey"">","null","","","","","","",""
"null","","html-keyboard-response","19","134953","0.0-2.0-2.5","","<div style=""font-size:60px;"">+</div>","null","","","","","","",""
"773.5349999857135","","image-keyboard-response","20","135728","0.0-2.0-0.6","","img/test3.PNG","32","practice","null","false","","","",""
"null","","html-keyboard-response","21","136728","0.0-2.0-1.6","","<img src=""img/test3-neutral.PNG"" border=""10px; grey"">","null","","","","","","",""
"null","","html-keyboard-response","22","137729","0.0-2.0-2.6","","<div style=""font-size:60px;"">+</div>","null","","","","","","",""
"536.6200000280514","","image-keyboard-response","23","138267","0.0-2.0-0.7","","img/test1.PNG","32","practice","32","true","","","",""
"null","","html-keyboard-response","24","139268","0.0-2.0-1.7","","<img src=""img/test1-reward.PNG"" border=""10px; grey"">","null","","","","","","",""
"null","","html-keyboard-response","25","140268","0.0-2.0-2.7","","<div style=""font-size:60px;"">+</div>","null","","","","","","",""
"544.8149999720044","","image-keyboard-response","26","140814","0.0-2.0-0.8","","img/test2.PNG","32","practice","null","false","","","",""
"null","","html-keyboard-response","27","141815","0.0-2.0-1.8","","<img src=""img/test2-neutral.PNG"" border=""10px; grey"">","null","","","","","","",""
"null","","html-keyboard-response","28","142815","0.0-2.0-2.8","","<div style=""font-size:60px;"">+</div>","null","","","","","","",""
"null","","image-keyboard-response","29","144316","0.0-2.0-0.9","","img/test2.PNG","null","practice","null","true","","","",""
"null","","html-keyboard-response","30","145317","0.0-2.0-1.9","","<img src=""img/test2-reward.PNG"">","null","","","","","","",""
"null","","html-keyboard-response","31","146318","0.0-2.0-2.9","","<div style=""font-size:60px;"">+</div>","null","","","","","","",""
"506.77499995799735","","image-keyboard-response","32","146826","0.0-2.0-0.10","","img/test1.PNG","32","practice","32","true","","","",""
"null","","html-keyboard-response","33","147827","0.0-2.0-1.10","","<img src=""img/test1-reward.PNG"" border=""10px; grey"">","null","","","","","","",""
"null","","html-keyboard-response","34","148827","0.0-2.0-2.10","","<div style=""font-size:60px;"">+</div>","null","","","","","","",""
"679.2300000088289","","image-keyboard-response","35","149507","0.0-2.0-0.11","","img/test3.PNG","32","practice","null","false","","","",""
"null","","html-keyboard-response","36","150508","0.0-2.0-1.11","","<img src=""img/test3-neutral.PNG"" border=""10px; grey"">","null","","","","","","",""
"null","","html-keyboard-response","37","151509","0.0-2.0-2.11","","<div style=""font-size:60px;"">+</div>","null","","","","","","",""
"2364.06499997247","","instructions","38","153873","0.0-3.0","[{""page_index"":0,""viewing_time"":2363.9299999922514}]","","","","","","","","",""
"805.4150000098161","","image-keyboard-response","39","154680","0.0-4.0-0.0","","img/orange.png","32","trial","null","false","0.2,0.8","2:nogo_b","",""
"null","","html-keyboard-response","40","155682","0.0-4.0-1.0","","<img src=""img/orange-r.png"" border=""10"">","null","trial","null","","0.2,0.8","2:nogo_b","1",""
"null","","html-keyboard-response","41","156683","0.0-4.0-2.0","","<div style=""font-size:60px;"">+</div>","null","","","","","","",""
"710.2850000374019","","image-keyboard-response","42","157393","0.0-4.0-0.1","","img/purple.png","32","trial","32","true","0.8,0.2","1:go_a","",""
"null","","html-keyboard-response","43","158395","0.0-4.0-1.1","","<img src=""img/purple-n.png"" border=""10"">","null","trial","32","","0.8,0.2","1:go_a","0",""
"null","","html-keyboard-response","44","159396","0.0-4.0-2.1","","<div style=""font-size:60px;"">+</div>","null","","","","","","",""
"null","","image-keyboard-response","45","160897","0.0-4.0-0.2","","img/purple.png","null","trial","32","false","0.8,0.2","1:go_a","",""
"null","","html-keyboard-response","46","161899","0.0-4.0-1.2","","<img src=""img/purple-n.png"">","null","trial","32","","0.8,0.2","1:go_a","0",""
"null","","html-keyboard-response","47","162899","0.0-4.0-2.2","","<div style=""font-size:60px;"">+</div>","null","","","","","","",""
"504.91499999770895","","image-keyboard-response","48","163405","0.0-4.0-0.3","","img/orange.png","32","trial","null","false","0.2,0.8","2:nogo_b","",""
"null","","html-keyboard-response","49","164406","0.0-4.0-1.3","","<img src=""img/orange-n.png"" border=""10"">","null","trial","null","","0.2,0.8","2:nogo_b","0",""
"null","","html-keyboard-response","50","165407","0.0-4.0-2.3","","<div style=""font-size:60px;"">+</div>","null","","","","","","",""
"781.6549999988638","","image-keyboard-response","51","166189","0.0-4.0-0.4","","img/purple.png","32","trial","32","true","0.8,0.2","1:go_a","",""
"null","","html-keyboard-response","52","167191","0.0-4.0-1.4","","<img src=""img/purple-r.png"" border=""10"">","null","trial","32","","0.8,0.2","1:go_a","1",""
"null","","html-keyboard-response","53","168191","0.0-4.0-2.4","","<div style=""font-size:60px;"">+</div>","null","","","","","","",""
"null","","image-keyboard-response","54","169692","0.0-4.0-0.5","","img/orange.png","null","trial","null","true","0.2,0.8","2:nogo_b","",""
"null","","html-keyboard-response","55","170694","0.0-4.0-1.5","","<img src=""img/orange-r.png"">","null","trial","null","","0.2,0.8","2:nogo_b","1",""
"null","","html-keyboard-response","56","171695","0.0-4.0-2.5","","<div style=""font-size:60px;"">+</div>","null","","","","","","",""
"663.9399999985471","","image-keyboard-response","57","172359","0.0-4.0-0.6","","img/purple.png","32","trial","32","true","0.8,0.2","1:go_a","",""
"null","","html-keyboard-response","58","173361","0.0-4.0-1.6","","<img src=""img/purple-r.png"" border=""10"">","null","trial","32","","0.8,0.2","1:go_a","1",""
"null","","html-keyboard-response","59","174362","0.0-4.0-2.6","","<div style=""font-size:60px;"">+</div>","null","","","","","","",""
"null","","image-keyboard-response","60","175863","0.0-4.0-0.7","","img/orange.png","null","trial","null","true","0.2,0.8","2:nogo_b","",""
"null","","html-keyboard-response","61","176864","0.0-4.0-1.7","","<img src=""img/orange-n.png"">","null","trial","null","","0.2,0.8","2:nogo_b","0",""
"null","","html-keyboard-response","62","177865","0.0-4.0-2.7","","<div style=""font-size:60px;"">+</div>","null","","","","","","",""
"861.0200000111945","","image-keyboard-response","63","178727","0.0-4.0-0.8","","img/orange.png","32","trial","null","false","0.2,0.8","2:nogo_b","",""
"null","","html-keyboard-response","64","179728","0.0-4.0-1.8","","<img src=""img/orange-n.png"" border=""10"">","null","trial","null","","0.2,0.8","2:nogo_b","0",""
"null","","html-keyboard-response","65","180729","0.0-4.0-2.8","","<div style=""font-size:60px;"">+</div>","null","","","","","","",""
"607.8149999957532","","image-keyboard-response","66","181337","0.0-4.0-0.9","","img/purple.png","32","trial","32","true","0.8,0.2","1:go_a","",""
"null","","html-keyboard-response","67","182338","0.0-4.0-1.9","","<img src=""img/purple-r.png"" border=""10"">","null","trial","32","","0.8,0.2","1:go_a","1",""
"null","","html-keyboard-response","68","183339","0.0-4.0-2.9","","<div style=""font-size:60px;"">+</div>","null","","","","","","",""
"623.6349999671802","","image-keyboard-response","69","183963","0.0-4.0-0.10","","img/purple.png","32","trial","32","true","0.8,0.2","1:go_a","",""
"null","","html-keyboard-response","70","184966","0.0-4.0-1.10","","<img src=""img/purple-r.png"" border=""10"">","null","trial","32","","0.8,0.2","1:go_a","1",""
"null","","html-keyboard-response","71","185966","0.0-4.0-2.10","","<div style=""font-size:60px;"">+</div>","null","","","","","","",""
"null","","image-keyboard-response","72","188166","0.0-4.0-0.11","","img/orange.png","null","trial","null","true","0.2,0.8","2:nogo_b","",""
"null","","html-keyboard-response","73","189168","0.0-4.0-1.11","","<img src=""img/orange-n.png"">","null","trial","null","","0.2,0.8","2:nogo_b","0",""
"null","","html-keyboard-response","74","190168","0.0-4.0-2.11","","<div style=""font-size:60px;"">+</div>","null","","","","","","",""
"963.2149999961257","","image-keyboard-response","75","191132","0.0-4.0-0.12","","img/orange.png","32","trial","null","false","0.2,0.8","2:nogo_b","",""
"null","","html-keyboard-response","76","192133","0.0-4.0-1.12","","<img src=""img/orange-n.png"" border=""10"">","null","trial","null","","0.2,0.8","2:nogo_b","0",""
"null","","html-keyboard-response","77","193134","0.0-4.0-2.12","","<div style=""font-size:60px;"">+</div>","null","","","","","","",""
"647.655000037048","","image-keyboard-response","78","193782","0.0-4.0-0.13","","img/purple.png","32","trial","32","true","0.8,0.2","1:go_a","",""
"null","","html-keyboard-response","79","194783","0.0-4.0-1.13","","<img src=""img/purple-r.png"" border=""10"">","null","trial","32","","0.8,0.2","1:go_a","1",""
"null","","html-keyboard-response","80","195784","0.0-4.0-2.13","","<div style=""font-size:60px;"">+</div>","null","","","","","","",""
"932.4350000242703","","image-keyboard-response","81","196717","0.0-4.0-0.14","","img/orange.png","32","trial","null","false","0.2,0.8","2:nogo_b","",""
"null","","html-keyboard-response","82","197718","0.0-4.0-1.14","","<img src=""img/orange-n.png"" border=""10"">","null","trial","null","","0.2,0.8","2:nogo_b","0",""
"null","","html-keyboard-response","83","198719","0.0-4.0-2.14","","<div style=""font-size:60px;"">+</div>","null","","","","","","",""
"552.4500000174157","","image-keyboard-response","84","199272","0.0-4.0-0.15","","img/purple.png","32","trial","32","true","0.8,0.2","1:go_a","",""
"null","","html-keyboard-response","85","200273","0.0-4.0-1.15","","<img src=""img/purple-r.png"" border=""10"">","null","trial","32","","0.8,0.2","1:go_a","1",""
"null","","html-keyboard-response","86","201274","0.0-4.0-2.15","","<div style=""font-size:60px;"">+</div>","null","","","","","","",""
"null","","image-keyboard-response","87","202775","0.0-4.0-0.16","","img/orange.png","null","trial","null","true","0.2,0.8","2:nogo_b","",""
"null","","html-keyboard-response","88","203777","0.0-4.0-1.16","","<img src=""img/orange-r.png"">","null","trial","null","","0.2,0.8","2:nogo_b","1",""
"null","","html-keyboard-response","89","204777","0.0-4.0-2.16","","<div style=""font-size:60px;"">+</div>","null","","","","","","",""
"450.3499999991618","","image-keyboard-response","90","205228","0.0-4.0-0.17","","img/purple.png","32","trial","32","true","0.8,0.2","1:go_a","",""
"null","","html-keyboard-response","91","206230","0.0-4.0-1.17","","<img src=""img/purple-r.png"" border=""10"">","null","trial","32","","0.8,0.2","1:go_a","1",""
"null","","html-keyboard-response","92","207230","0.0-4.0-2.17","","<div style=""font-size:60px;"">+</div>","null","","","","","","",""
"null","","image-keyboard-response","93","208731","0.0-4.0-0.18","","img/purple.png","null","trial","32","false","0.8,0.2","1:go_a","",""
"null","","html-keyboard-response","94","209733","0.0-4.0-1.18","","<img src=""img/purple-n.png"">","null","trial","32","","0.8,0.2","1:go_a","0",""
"null","","html-keyboard-response","95","210734","0.0-4.0-2.18","","<div style=""font-size:60px;"">+</div>","null","","","","","","",""
"616.1699999938719","","image-keyboard-response","96","211351","0.0-4.0-0.19","","img/orange.png","32","trial","null","false","0.2,0.8","2:nogo_b","",""
"null","","html-keyboard-response","97","212352","0.0-4.0-1.19","","<img src=""img/orange-r.png"" border=""10"">","null","trial","null","","0.2,0.8","2:nogo_b","1",""
"null","","html-keyboard-response","98","213352","0.0-4.0-2.19","","<div style=""font-size:60px;"">+</div>","null","","","","","","",""
"924.3900000001304","","image-keyboard-response","99","214277","0.0-4.0-0.20","","img/purple.png","32","trial","32","true","0.8,0.2","1:go_a","",""
"null","","html-keyboard-response","100","215278","0.0-4.0-1.20","","<img src=""img/purple-r.png"" border=""10"">","null","trial","32","","0.8,0.2","1:go_a","1",""
"null","","html-keyboard-response","101","216279","0.0-4.0-2.20","","<div style=""font-size:60px;"">+</div>","null","","","","","","",""
"417.94499999377877","","image-keyboard-response","102","216698","0.0-4.0-0.21","","img/orange.png","32","trial","null","false","0.2,0.8","2:nogo_b","",""
"null","","html-keyboard-response","103","217699","0.0-4.0-1.21","","<img src=""img/orange-r.png"" border=""10"">","null","trial","null","","0.2,0.8","2:nogo_b","1",""
"null","","html-keyboard-response","104","218700","0.0-4.0-2.21","","<div style=""font-size:60px;"">+</div>","null","","","","","","",""
"386.11500000115484","","image-keyboard-response","105","219086","0.0-4.0-0.22","","img/purple.png","32","trial","32","true","0.8,0.2","1:go_a","",""
"null","","html-keyboard-response","106","220088","0.0-4.0-1.22","","<img src=""img/purple-r.png"" border=""10"">","null","trial","32","","0.8,0.2","1:go_a","1",""
"null","","html-keyboard-response","107","221089","0.0-4.0-2.22","","<div style=""font-size:60px;"">+</div>","null","","","","","","",""
"299.19000004883856","","image-keyboard-response","108","221388","0.0-4.0-0.23","","img/orange.png","32","trial","null","false","0.2,0.8","2:nogo_b","",""
"null","","html-keyboard-response","109","222390","0.0-4.0-1.23","","<img src=""img/orange-n.png"" border=""10"">","null","trial","null","","0.2,0.8","2:nogo_b","0",""
"null","","html-keyboard-response","110","223391","0.0-4.0-2.23","","<div style=""font-size:60px;"">+</div>","null","","","","","","",""
"425.42499996488914","","image-keyboard-response","111","223817","0.0-4.0-0.24","","img/purple.png","32","trial","32","true","0.8,0.2","1:go_a","",""
"null","","html-keyboard-response","112","224819","0.0-4.0-1.24","","<img src=""img/purple-r.png"" border=""10"">","null","trial","32","","0.8,0.2","1:go_a","1",""
"null","","html-keyboard-response","113","225819","0.0-4.0-2.24","","<div style=""font-size:60px;"">+</div>","null","","","","","","",""
"338.3299999986775","","image-keyboard-response","114","226158","0.0-4.0-0.25","","img/orange.png","32","trial","null","false","0.2,0.8","2:nogo_b","",""
"null","","html-keyboard-response","115","227161","0.0-4.0-1.25","","<img src=""img/orange-n.png"" border=""10"">","null","trial","null","","0.2,0.8","2:nogo_b","0",""
"null","","html-keyboard-response","116","228162","0.0-4.0-2.25","","<div style=""font-size:60px;"">+</div>","null","","","","","","",""
"392.43499998701736","","image-keyboard-response","117","228555","0.0-4.0-0.26","","img/orange.png","32","trial","null","false","0.2,0.8","2:nogo_b","",""
"null","","html-keyboard-response","118","229556","0.0-4.0-1.26","","<img src=""img/orange-r.png"" border=""10"">","null","trial","null","","0.2,0.8","2:nogo_b","1",""
"null","","html-keyboard-response","119","230557","0.0-4.0-2.26","","<div style=""font-size:60px;"">+</div>","null","","","","","","",""
"441.869999980554","","image-keyboard-response","120","230999","0.0-4.0-0.27","","img/purple.png","32","trial","32","true","0.8,0.2","1:go_a","",""
"null","","html-keyboard-response","121","232000","0.0-4.0-1.27","","<img src=""img/purple-n.png"" border=""10"">","null","trial","32","","0.8,0.2","1:go_a","0",""
"null","","html-keyboard-response","122","233001","0.0-4.0-2.27","","<div style=""font-size:60px;"">+</div>","null","","","","","","",""
"339.1399999964051","","image-keyboard-response","123","233341","0.0-4.0-0.28","","img/orange.png","32","trial","null","false","0.2,0.8","2:nogo_b","",""
"null","","html-keyboard-response","124","234342","0.0-4.0-1.28","","<img src=""img/orange-n.png"" border=""10"">","null","trial","null","","0.2,0.8","2:nogo_b","0",""
"null","","html-keyboard-response","125","235343","0.0-4.0-2.28","","<div style=""font-size:60px;"">+</div>","null","","","","","","",""
"639.3449999741279","","image-keyboard-response","126","235982","0.0-4.0-0.29","","img/purple.png","32","trial","32","true","0.8,0.2","1:go_a","",""
"null","","html-keyboard-response","127","236984","0.0-4.0-1.29","","<img src=""img/purple-n.png"" border=""10"">","null","trial","32","","0.8,0.2","1:go_a","0",""
"null","","html-keyboard-response","128","237985","0.0-4.0-2.29","","<div style=""font-size:60px;"">+</div>","null","","","","","","",""
"1002.9799999902025","","image-keyboard-response","129","238988","0.0-4.0-0.30","","img/purple.png","32","trial","32","true","0.8,0.2","1:go_a","",""
"null","","html-keyboard-response","130","239990","0.0-4.0-1.30","","<img src=""img/purple-r.png"" border=""10"">","null","trial","32","","0.8,0.2","1:go_a","1",""
"null","","html-keyboard-response","131","240991","0.0-4.0-2.30","","<div style=""font-size:60px;"">+</div>","null","","","","","","",""
"915.839999972377","","image-keyboard-response","132","241907","0.0-4.0-0.31","","img/orange.png","32","trial","null","false","0.2,0.8","2:nogo_b","",""
"null","","html-keyboard-response","133","242908","0.0-4.0-1.31","","<img src=""img/orange-n.png"" border=""10"">","null","trial","null","","0.2,0.8","2:nogo_b","0",""
"null","","html-keyboard-response","134","243909","0.0-4.0-2.31","","<div style=""font-size:60px;"">+</div>","null","","","","","","",""
"null","","image-keyboard-response","135","245410","0.0-4.0-0.32","","img/purple.png","null","trial","32","false","0.8,0.2","1:go_a","",""
"null","","html-keyboard-response","136","246411","0.0-4.0-1.32","","<img src=""img/purple-n.png"">","null","trial","32","","0.8,0.2","1:go_a","0",""
"null","","html-keyboard-response","137","247412","0.0-4.0-2.32","","<div style=""font-size:60px;"">+</div>","null","","","","","","",""
"null","","image-keyboard-response","138","249604","0.0-4.0-0.33","","img/orange.png","null","trial","null","true","0.2,0.8","2:nogo_b","",""
"null","","html-keyboard-response","139","250605","0.0-4.0-1.33","","<img src=""img/orange-r.png"">","null","trial","null","","0.2,0.8","2:nogo_b","1",""
"null","","html-keyboard-response","140","251606","0.0-4.0-2.33","","<div style=""font-size:60px;"">+</div>","null","","","","","","",""
"562.3999999952503","","image-keyboard-response","141","252169","0.0-4.0-0.34","","img/purple.png","32","trial","32","true","0.8,0.2","1:go_a","",""
"null","","html-keyboard-response","142","253170","0.0-4.0-1.34","","<img src=""img/purple-r.png"" border=""10"">","null","trial","32","","0.8,0.2","1:go_a","1",""
"null","","html-keyboard-response","143","254171","0.0-4.0-2.34","","<div style=""font-size:60px;"">+</div>","null","","","","","","",""
"null","","image-keyboard-response","144","255672","0.0-4.0-0.35","","img/orange.png","null","trial","null","true","0.2,0.8","2:nogo_b","",""
"null","","html-keyboard-response","145","256674","0.0-4.0-1.35","","<img src=""img/orange-n.png"">","null","trial","null","","0.2,0.8","2:nogo_b","0",""
"null","","html-keyboard-response","146","257674","0.0-4.0-2.35","","<div style=""font-size:60px;"">+</div>","null","","","","","","",""
"497.6299999980256","","image-keyboard-response","147","258173","0.0-4.0-0.36","","img/purple.png","32","trial","32","true","0.8,0.2","1:go_a","",""
"null","","html-keyboard-response","148","259174","0.0-4.0-1.36","","<img src=""img/purple-r.png"" border=""10"">","null","trial","32","","0.8,0.2","1:go_a","1",""
"null","","html-keyboard-response","149","260175","0.0-4.0-2.36","","<div style=""font-size:60px;"">+</div>","null","","","","","","",""
"346.3050000136718","","image-keyboard-response","150","260522","0.0-4.0-0.37","","img/orange.png","32","trial","null","false","0.2,0.8","2:nogo_b","",""
"null","","html-keyboard-response","151","261523","0.0-4.0-1.37","","<img src=""img/orange-n.png"" border=""10"">","null","trial","null","","0.2,0.8","2:nogo_b","0",""
"null","","html-keyboard-response","152","262523","0.0-4.0-2.37","","<div style=""font-size:60px;"">+</div>","null","","","","","","",""
"402.78000000398606","","image-keyboard-response","153","262927","0.0-4.0-0.38","","img/purple.png","32","trial","32","true","0.8,0.2","1:go_a","",""
"null","","html-keyboard-response","154","263929","0.0-4.0-1.38","","<img src=""img/purple-r.png"" border=""10"">","null","trial","32","","0.8,0.2","1:go_a","1",""
"null","","html-keyboard-response","155","264930","0.0-4.0-2.38","","<div style=""font-size:60px;"">+</div>","null","","","","","","",""
"null","","image-keyboard-response","156","266431","0.0-4.0-0.39","","img/orange.png","null","trial","null","true","0.2,0.8","2:nogo_b","",""
"null","","html-keyboard-response","157","267433","0.0-4.0-1.39","","<img src=""img/orange-r.png"">","null","trial","null","","0.2,0.8","2:nogo_b","1",""
"null","","html-keyboard-response","158","268434","0.0-4.0-2.39","","<div style=""font-size:60px;"">+</div>","null","","","","","","",""
"null","","image-keyboard-response","159","269935","0.0-4.0-0.40","","img/orange.png","null","trial","null","true","0.2,0.8","2:nogo_b","",""
"null","","html-keyboard-response","160","270936","0.0-4.0-1.40","","<img src=""img/orange-r.png"">","null","trial","null","","0.2,0.8","2:nogo_b","1",""
"null","","html-keyboard-response","161","271937","0.0-4.0-2.40","","<div style=""font-size:60px;"">+</div>","null","","","","","","",""
"409.92999996524304","","image-keyboard-response","162","272347","0.0-4.0-0.41","","img/purple.png","32","trial","32","true","0.8,0.2","1:go_a","",""
"null","","html-keyboard-response","163","273349","0.0-4.0-1.41","","<img src=""img/purple-r.png"" border=""10"">","null","trial","32","","0.8,0.2","1:go_a","1",""
"null","","html-keyboard-response","164","274350","0.0-4.0-2.41","","<div style=""font-size:60px;"">+</div>","null","","","","","","",""
"789.6799999871291","","image-keyboard-response","165","275140","0.0-4.0-0.42","","img/purple.png","32","trial","32","true","0.8,0.2","1:go_a","",""
"null","","html-keyboard-response","166","276141","0.0-4.0-1.42","","<img src=""img/purple-r.png"" border=""10"">","null","trial","32","","0.8,0.2","1:go_a","1",""
"null","","html-keyboard-response","167","277142","0.0-4.0-2.42","","<div style=""font-size:60px;"">+</div>","null","","","","","","",""
"null","","image-keyboard-response","168","278643","0.0-4.0-0.43","","img/orange.png","null","trial","null","true","0.2,0.8","2:nogo_b","",""
"null","","html-keyboard-response","169","279645","0.0-4.0-1.43","","<img src=""img/orange-r.png"">","null","trial","null","","0.2,0.8","2:nogo_b","1",""
"null","","html-keyboard-response","170","280646","0.0-4.0-2.43","","<div style=""font-size:60px;"">+</div>","null","","","","","","",""
"null","","image-keyboard-response","171","282146","0.0-4.0-0.44","","img/orange.png","null","trial","null","true","0.2,0.8","2:nogo_b","",""
"null","","html-keyboard-response","172","283148","0.0-4.0-1.44","","<img src=""img/orange-r.png"">","null","trial","null","","0.2,0.8","2:nogo_b","1",""
"null","","html-keyboard-response","173","284149","0.0-4.0-2.44","","<div style=""font-size:60px;"">+</div>","null","","","","","","",""
"450.539999990724","","image-keyboard-response","174","284600","0.0-4.0-0.45","","img/purple.png","32","trial","32","true","0.8,0.2","1:go_a","",""
"null","","html-keyboard-response","175","285601","0.0-4.0-1.45","","<img src=""img/purple-r.png"" border=""10"">","null","trial","32","","0.8,0.2","1:go_a","1",""
"null","","html-keyboard-response","176","286602","0.0-4.0-2.45","","<div style=""font-size:60px;"">+</div>","null","","","","","","",""
"734.6150000230409","","image-keyboard-response","177","287337","0.0-4.0-0.46","","img/purple.png","32","trial","32","true","0.8,0.2","1:go_a","",""
"null","","html-keyboard-response","178","288338","0.0-4.0-1.46","","<img src=""img/purple-r.png"" border=""10"">","null","trial","32","","0.8,0.2","1:go_a","1",""
"null","","html-keyboard-response","179","289339","0.0-4.0-2.46","","<div style=""font-size:60px;"">+</div>","null","","","","","","",""
"null","","image-keyboard-response","180","290840","0.0-4.0-0.47","","img/orange.png","null","trial","null","true","0.2,0.8","2:nogo_b","",""
"null","","html-keyboard-response","181","291842","0.0-4.0-1.47","","<img src=""img/orange-r.png"">","null","trial","null","","0.2,0.8","2:nogo_b","1",""
"null","","html-keyboard-response","182","292843","0.0-4.0-2.47","","<div style=""font-size:60px;"">+</div>","null","","","","","","",""
"null","","image-keyboard-response","183","294344","0.0-4.0-0.48","","img/orange.png","null","trial","null","true","0.2,0.8","2:nogo_b","",""
"null","","html-keyboard-response","184","295345","0.0-4.0-1.48","","<img src=""img/orange-r.png"">","null","trial","null","","0.2,0.8","2:nogo_b","1",""
"null","","html-keyboard-response","185","296346","0.0-4.0-2.48","","<div style=""font-size:60px;"">+</div>","null","","","","","","",""
"727.8349999687634","","image-keyboard-response","186","297074","0.0-4.0-0.49","","img/purple.png","32","trial","32","true","0.8,0.2","1:go_a","",""
"null","","html-keyboard-response","187","298075","0.0-4.0-1.49","","<img src=""img/purple-r.png"" border=""10"">","null","trial","32","","0.8,0.2","1:go_a","1",""
"null","","html-keyboard-response","188","299077","0.0-4.0-2.49","","<div style=""font-size:60px;"">+</div>","null","","","","","","",""
"638.9550000312738","","image-keyboard-response","189","299717","0.0-4.0-0.50","","img/purple.png","32","trial","32","true","0.8,0.2","1:go_a","",""
"null","","html-keyboard-response","190","300717","0.0-4.0-1.50","","<img src=""img/purple-r.png"" border=""10"">","null","trial","32","","0.8,0.2","1:go_a","1",""
"null","","html-keyboard-response","191","301718","0.0-4.0-2.50","","<div style=""font-size:60px;"">+</div>","null","","","","","","",""
"null","","image-keyboard-response","192","303219","0.0-4.0-0.51","","img/orange.png","null","trial","null","true","0.2,0.8","2:nogo_b","",""
"null","","html-keyboard-response","193","304221","0.0-4.0-1.51","","<img src=""img/orange-r.png"">","null","trial","null","","0.2,0.8","2:nogo_b","1",""
"null","","html-keyboard-response","194","305222","0.0-4.0-2.51","","<div style=""font-size:60px;"">+</div>","null","","","","","","",""
"956.6050000139512","","image-keyboard-response","195","306179","0.0-4.0-0.52","","img/purple.png","32","trial","32","true","0.8,0.2","1:go_a","",""
"null","","html-keyboard-response","196","307180","0.0-4.0-1.52","","<img src=""img/purple-r.png"" border=""10"">","null","trial","32","","0.8,0.2","1:go_a","1",""
"null","","html-keyboard-response","197","308181","0.0-4.0-2.52","","<div style=""font-size:60px;"">+</div>","null","","","","","","",""
"null","","image-keyboard-response","198","310365","0.0-4.0-0.53","","img/orange.png","null","trial","null","true","0.2,0.8","2:nogo_b","",""
"null","","html-keyboard-response","199","311367","0.0-4.0-1.53","","<img src=""img/orange-r.png"">","null","trial","null","","0.2,0.8","2:nogo_b","1",""
"null","","html-keyboard-response","200","312367","0.0-4.0-2.53","","<div style=""font-size:60px;"">+</div>","null","","","","","","",""
"513.4550000075251","","image-keyboard-response","201","312882","0.0-4.0-0.54","","img/purple.png","32","trial","32","true","0.8,0.2","1:go_a","",""
"null","","html-keyboard-response","202","313883","0.0-4.0-1.54","","<img src=""img/purple-r.png"" border=""10"">","null","trial","32","","0.8,0.2","1:go_a","1",""
"null","","html-keyboard-response","203","314884","0.0-4.0-2.54","","<div style=""font-size:60px;"">+</div>","null","","","","","","",""
"null","","image-keyboard-response","204","316385","0.0-4.0-0.55","","img/orange.png","null","trial","null","true","0.2,0.8","2:nogo_b","",""
"null","","html-keyboard-response","205","317387","0.0-4.0-1.55","","<img src=""img/orange-n.png"">","null","trial","null","","0.2,0.8","2:nogo_b","0",""
"null","","html-keyboard-response","206","318387","0.0-4.0-2.55","","<div style=""font-size:60px;"">+</div>","null","","","","","","",""
"481.3499999581836","","image-keyboard-response","207","318869","0.0-4.0-0.56","","img/purple.png","32","trial","32","true","0.8,0.2","1:go_a","",""
"null","","html-keyboard-response","208","319871","0.0-4.0-1.56","","<img src=""img/purple-r.png"" border=""10"">","null","trial","32","","0.8,0.2","1:go_a","1",""
"null","","html-keyboard-response","209","320871","0.0-4.0-2.56","","<div style=""font-size:60px;"">+</div>","null","","","","","","",""
"null","","image-keyboard-response","210","322372","0.0-4.0-0.57","","img/orange.png","null","trial","null","true","0.2,0.8","2:nogo_b","",""
"null","","html-keyboard-response","211","323374","0.0-4.0-1.57","","<img src=""img/orange-r.png"">","null","trial","null","","0.2,0.8","2:nogo_b","1",""
"null","","html-keyboard-response","212","324375","0.0-4.0-2.57","","<div style=""font-size:60px;"">+</div>","null","","","","","","",""
"null","","image-keyboard-response","213","325876","0.0-4.0-0.58","","img/orange.png","null","trial","null","true","0.2,0.8","2:nogo_b","",""
"null","","html-keyboard-response","214","326877","0.0-4.0-1.58","","<img src=""img/orange-r.png"">","null","trial","null","","0.2,0.8","2:nogo_b","1",""
"null","","html-keyboard-response","215","327878","0.0-4.0-2.58","","<div style=""font-size:60px;"">+</div>","null","","","","","","",""
"593.83499994874","","image-keyboard-response","216","328472","0.0-4.0-0.59","","img/purple.png","32","trial","32","true","0.8,0.2","1:go_a","",""
"null","","html-keyboard-response","217","329474","0.0-4.0-1.59","","<img src=""img/purple-n.png"" border=""10"">","null","trial","32","","0.8,0.2","1:go_a","0",""
"null","","html-keyboard-response","218","330475","0.0-4.0-2.59","","<div style=""font-size:60px;"">+</div>","null","","","","","","",""
"3645.0199999962933","","instructions","219","334120","0.0-5.0","[{""page_index"":0,""viewing_time"":3644.815000006929}]","","","","","","","","",""
"1019.3200000212528","","image-keyboard-response","220","335140","0.0-6.0-0.0","","img/yellow.png","32","trial","null","false","0,1","4:nogo_d","",""
"null","","html-keyboard-response","221","336142","0.0-6.0-1.0","","<img src=""img/yellow-n.png"" border=""10"">","null","trial","null","","0,1","4:nogo_d","0",""
"null","","html-keyboard-response","222","337142","0.0-6.0-2.0","","<div style=""font-size:60px;"">+</div>","null","","","","","","",""
"647.3750000004657","","image-keyboard-response","223","337790","0.0-6.0-0.1","","img/green.png","32","trial","32","true","0.8,0.2","1:go_a","",""
"null","","html-keyboard-response","224","338792","0.0-6.0-1.1","","<img src=""img/green-r.png"" border=""10"">","null","trial","32","","0.8,0.2","1:go_a","1",""
"null","","html-keyboard-response","225","339792","0.0-6.0-2.1","","<div style=""font-size:60px;"">+</div>","null","","","","","","",""
"1311.9350000051782","","image-keyboard-response","226","341105","0.0-6.0-0.2","","img/grey.png","32","trial","32","true","1,0","3:go_c","",""
"null","","html-keyboard-response","227","342106","0.0-6.0-1.2","","<img src=""img/grey-r.png"" border=""10"">","null","trial","32","","1,0","3:go_c","1",""
"null","","html-keyboard-response","228","343107","0.0-6.0-2.2","","<div style=""font-size:60px;"">+</div>","null","","","","","","",""
"1074.2750000208616","","image-keyboard-response","229","344182","0.0-6.0-0.3","","img/blue.png","32","trial","null","false","0.2,0.8","2:nogo_b","",""
"null","","html-keyboard-response","230","345183","0.0-6.0-1.3","","<img src=""img/blue-n.png"" border=""10"">","null","trial","null","","0.2,0.8","2:nogo_b","0",""
"null","","html-keyboard-response","231","346184","0.0-6.0-2.3","","<div style=""font-size:60px;"">+</div>","null","","","","","","",""
"null","","image-keyboard-response","232","347685","0.0-6.0-0.4","","img/yellow.png","null","trial","null","true","0,1","4:nogo_d","",""
"null","","html-keyboard-response","233","348687","0.0-6.0-1.4","","<img src=""img/yellow-r.png"">","null","trial","null","","0,1","4:nogo_d","1",""
"null","","html-keyboard-response","234","349687","0.0-6.0-2.4","","<div style=""font-size:60px;"">+</div>","null","","","","","","",""
"465.76499997172505","","image-keyboard-response","235","350154","0.0-6.0-0.5","","img/grey.png","32","trial","32","true","1,0","3:go_c","",""
"null","","html-keyboard-response","236","351155","0.0-6.0-1.5","","<img src=""img/grey-r.png"" border=""10"">","null","trial","32","","1,0","3:go_c","1",""
"null","","html-keyboard-response","237","352155","0.0-6.0-2.5","","<div style=""font-size:60px;"">+</div>","null","","","","","","",""
"null","","image-keyboard-response","238","353656","0.0-6.0-0.6","","img/blue.png","null","trial","null","true","0.2,0.8","2:nogo_b","",""
"null","","html-keyboard-response","239","354658","0.0-6.0-1.6","","<img src=""img/blue-r.png"">","null","trial","null","","0.2,0.8","2:nogo_b","1",""
"null","","html-keyboard-response","240","355659","0.0-6.0-2.6","","<div style=""font-size:60px;"">+</div>","null","","","","","","",""
"null","","image-keyboard-response","241","357160","0.0-6.0-0.7","","img/green.png","null","trial","32","false","0.8,0.2","1:go_a","",""
"null","","html-keyboard-response","242","358162","0.0-6.0-1.7","","<img src=""img/green-n.png"">","null","trial","32","","0.8,0.2","1:go_a","0",""
"null","","html-keyboard-response","243","359162","0.0-6.0-2.7","","<div style=""font-size:60px;"">+</div>","null","","","","","","",""
"1052.7099999599159","","image-keyboard-response","244","360215","0.0-6.0-0.8","","img/green.png","32","trial","32","true","0.8,0.2","1:go_a","",""
"null","","html-keyboard-response","245","361217","0.0-6.0-1.8","","<img src=""img/green-r.png"" border=""10"">","null","trial","32","","0.8,0.2","1:go_a","1",""
"null","","html-keyboard-response","246","362218","0.0-6.0-2.8","","<div style=""font-size:60px;"">+</div>","null","","","","","","",""
"null","","image-keyboard-response","247","363719","0.0-6.0-0.9","","img/yellow.png","null","trial","null","true","0,1","4:nogo_d","",""
"null","","html-keyboard-response","248","364720","0.0-6.0-1.9","","<img src=""img/yellow-r.png"">","null","trial","null","","0,1","4:nogo_d","1",""
"null","","html-keyboard-response","249","365721","0.0-6.0-2.9","","<div style=""font-size:60px;"">+</div>","null","","","","","","",""
"null","","image-keyboard-response","250","367222","0.0-6.0-0.10","","img/blue.png","null","trial","null","true","0.2,0.8","2:nogo_b","",""
"null","","html-keyboard-response","251","368224","0.0-6.0-1.10","","<img src=""img/blue-r.png"">","null","trial","null","","0.2,0.8","2:nogo_b","1",""
"null","","html-keyboard-response","252","369224","0.0-6.0-2.10","","<div style=""font-size:60px;"">+</div>","null","","","","","","",""
"846.27499995986","","image-keyboard-response","253","370071","0.0-6.0-0.11","","img/grey.png","32","trial","32","true","1,0","3:go_c","",""
"null","","html-keyboard-response","254","371763","0.0-6.0-1.11","","<img src=""img/grey-r.png"" border=""10"">","null","trial","32","","1,0","3:go_c","1",""
"null","","html-keyboard-response","255","372763","0.0-6.0-2.11","","<div style=""font-size:60px;"">+</div>","null","","","","","","",""
"null","","image-keyboard-response","256","374264","0.0-6.0-0.12","","img/yellow.png","null","trial","null","true","0,1","4:nogo_d","",""
"null","","html-keyboard-response","257","375266","0.0-6.0-1.12","","<img src=""img/yellow-r.png"">","null","trial","null","","0,1","4:nogo_d","1",""
"null","","html-keyboard-response","258","376267","0.0-6.0-2.12","","<div style=""font-size:60px;"">+</div>","null","","","","","","",""
"1471.114999963902","","image-keyboard-response","259","377738","0.0-6.0-0.13","","img/green.png","32","trial","32","true","0.8,0.2","1:go_a","",""
"null","","html-keyboard-response","260","378740","0.0-6.0-1.13","","<img src=""img/green-r.png"" border=""10"">","null","trial","32","","0.8,0.2","1:go_a","1",""
"null","","html-keyboard-response","261","379740","0.0-6.0-2.13","","<div style=""font-size:60px;"">+</div>","null","","","","","","",""
"512.4899999937043","","image-keyboard-response","262","380253","0.0-6.0-0.14","","img/grey.png","32","trial","32","true","1,0","3:go_c","",""
"null","","html-keyboard-response","263","381255","0.0-6.0-1.14","","<img src=""img/grey-r.png"" border=""10"">","null","trial","32","","1,0","3:go_c","1",""
"null","","html-keyboard-response","264","382256","0.0-6.0-2.14","","<div style=""font-size:60px;"">+</div>","null","","","","","","",""
"null","","image-keyboard-response","265","383757","0.0-6.0-0.15","","img/blue.png","null","trial","null","true","0.2,0.8","2:nogo_b","",""
"null","","html-keyboard-response","266","384759","0.0-6.0-1.15","","<img src=""img/blue-r.png"">","null","trial","null","","0.2,0.8","2:nogo_b","1",""
"null","","html-keyboard-response","267","385759","0.0-6.0-2.15","","<div style=""font-size:60px;"">+</div>","null","","","","","","",""
"null","","image-keyboard-response","268","387260","0.0-6.0-0.16","","img/blue.png","null","trial","null","true","0.2,0.8","2:nogo_b","",""
"null","","html-keyboard-response","269","388262","0.0-6.0-1.16","","<img src=""img/blue-n.png"">","null","trial","null","","0.2,0.8","2:nogo_b","0",""
"null","","html-keyboard-response","270","389263","0.0-6.0-2.16","","<div style=""font-size:60px;"">+</div>","null","","","","","","",""
"null","","image-keyboard-response","271","390764","0.0-6.0-0.17","","img/yellow.png","null","trial","null","true","0,1","4:nogo_d","",""
"null","","html-keyboard-response","272","391765","0.0-6.0-1.17","","<img src=""img/yellow-r.png"">","null","trial","null","","0,1","4:nogo_d","1",""
"null","","html-keyboard-response","273","392766","0.0-6.0-2.17","","<div style=""font-size:60px;"">+</div>","null","","","","","","",""
"1029.0449999738485","","image-keyboard-response","274","393796","0.0-6.0-0.18","","img/green.png","32","trial","32","true","0.8,0.2","1:go_a","",""
"null","","html-keyboard-response","275","394797","0.0-6.0-1.18","","<img src=""img/green-r.png"" border=""10"">","null","trial","32","","0.8,0.2","1:go_a","1",""
"null","","html-keyboard-response","276","395798","0.0-6.0-2.18","","<div style=""font-size:60px;"">+</div>","null","","","","","","",""
"480.9649999951944","","image-keyboard-response","277","396279","0.0-6.0-0.19","","img/grey.png","32","trial","32","true","1,0","3:go_c","",""
"null","","html-keyboard-response","278","397281","0.0-6.0-1.19","","<img src=""img/grey-r.png"" border=""10"">","null","trial","32","","1,0","3:go_c","1",""
"null","","html-keyboard-response","279","398282","0.0-6.0-2.19","","<div style=""font-size:60px;"">+</div>","null","","","","","","",""
"null","","image-keyboard-response","280","399783","0.0-6.0-0.20","","img/yellow.png","null","trial","null","true","0,1","4:nogo_d","",""
"null","","html-keyboard-response","281","400784","0.0-6.0-1.20","","<img src=""img/yellow-r.png"">","null","trial","null","","0,1","4:nogo_d","1",""
"null","","html-keyboard-response","282","401785","0.0-6.0-2.20","","<div style=""font-size:60px;"">+</div>","null","","","","","","",""
"782.1550000226125","","image-keyboard-response","283","402568","0.0-6.0-0.21","","img/grey.png","32","trial","32","true","1,0","3:go_c","",""
"null","","html-keyboard-response","284","403569","0.0-6.0-1.21","","<img src=""img/grey-r.png"" border=""10"">","null","trial","32","","1,0","3:go_c","1",""
"null","","html-keyboard-response","285","404570","0.0-6.0-2.21","","<div style=""font-size:60px;"">+</div>","null","","","","","","",""
"592.3849999671802","","image-keyboard-response","286","405163","0.0-6.0-0.22","","img/green.png","32","trial","32","true","0.8,0.2","1:go_a","",""
"null","","html-keyboard-response","287","406163","0.0-6.0-1.22","","<img src=""img/green-r.png"" border=""10"">","null","trial","32","","0.8,0.2","1:go_a","1",""
"null","","html-keyboard-response","288","407164","0.0-6.0-2.22","","<div style=""font-size:60px;"">+</div>","null","","","","","","",""
"null","","image-keyboard-response","289","408665","0.0-6.0-0.23","","img/blue.png","null","trial","null","true","0.2,0.8","2:nogo_b","",""
"null","","html-keyboard-response","290","409667","0.0-6.0-1.23","","<img src=""img/blue-r.png"">","null","trial","null","","0.2,0.8","2:nogo_b","1",""
"null","","html-keyboard-response","291","410668","0.0-6.0-2.23","","<div style=""font-size:60px;"">+</div>","null","","","","","","",""
"null","","image-keyboard-response","292","412169","0.0-6.0-0.24","","img/blue.png","null","trial","null","true","0.2,0.8","2:nogo_b","",""
"null","","html-keyboard-response","293","413170","0.0-6.0-1.24","","<img src=""img/blue-r.png"">","null","trial","null","","0.2,0.8","2:nogo_b","1",""
"null","","html-keyboard-response","294","414171","0.0-6.0-2.24","","<div style=""font-size:60px;"">+</div>","null","","","","","","",""
"997.220000019297","","image-keyboard-response","295","415169","0.0-6.0-0.25","","img/grey.png","32","trial","32","true","1,0","3:go_c","",""
"null","","html-keyboard-response","296","416170","0.0-6.0-1.25","","<img src=""img/grey-r.png"" border=""10"">","null","trial","32","","1,0","3:go_c","1",""
"null","","html-keyboard-response","297","417171","0.0-6.0-2.25","","<div style=""font-size:60px;"">+</div>","null","","","","","","",""
"1089.7899999981746","","image-keyboard-response","298","418261","0.0-6.0-0.26","","img/green.png","32","trial","32","true","0.8,0.2","1:go_a","",""
"null","","html-keyboard-response","299","419262","0.0-6.0-1.26","","<img src=""img/green-r.png"" border=""10"">","null","trial","32","","0.8,0.2","1:go_a","1",""
"null","","html-keyboard-response","300","420263","0.0-6.0-2.26","","<div style=""font-size:60px;"">+</div>","null","","","","","","",""
"null","","image-keyboard-response","301","421764","0.0-6.0-0.27","","img/yellow.png","null","trial","null","true","0,1","4:nogo_d","",""
"null","","html-keyboard-response","302","422766","0.0-6.0-1.27","","<img src=""img/yellow-r.png"">","null","trial","null","","0,1","4:nogo_d","1",""
"null","","html-keyboard-response","303","423766","0.0-6.0-2.27","","<div style=""font-size:60px;"">+</div>","null","","","","","","",""
"null","","image-keyboard-response","304","425268","0.0-6.0-0.28","","img/blue.png","null","trial","null","true","0.2,0.8","2:nogo_b","",""
"null","","html-keyboard-response","305","426269","0.0-6.0-1.28","","<img src=""img/blue-r.png"">","null","trial","null","","0.2,0.8","2:nogo_b","1",""
"null","","html-keyboard-response","306","427270","0.0-6.0-2.28","","<div style=""font-size:60px;"">+</div>","null","","","","","","",""
"null","","image-keyboard-response","307","428771","0.0-6.0-0.29","","img/yellow.png","null","trial","null","true","0,1","4:nogo_d","",""
"null","","html-keyboard-response","308","429772","0.0-6.0-1.29","","<img src=""img/yellow-r.png"">","null","trial","null","","0,1","4:nogo_d","1",""
"null","","html-keyboard-response","309","430773","0.0-6.0-2.29","","<div style=""font-size:60px;"">+</div>","null","","","","","","",""
"634.4299999764189","","image-keyboard-response","310","431408","0.0-6.0-0.30","","img/grey.png","32","trial","32","true","1,0","3:go_c","",""
"null","","html-keyboard-response","311","433099","0.0-6.0-1.30","","<img src=""img/grey-r.png"" border=""10"">","null","trial","32","","1,0","3:go_c","1",""
"null","","html-keyboard-response","312","434100","0.0-6.0-2.30","","<div style=""font-size:60px;"">+</div>","null","","","","","","",""
"662.6200000173412","","image-keyboard-response","313","434763","0.0-6.0-0.31","","img/green.png","32","trial","32","true","0.8,0.2","1:go_a","",""
"null","","html-keyboard-response","314","435764","0.0-6.0-1.31","","<img src=""img/green-r.png"" border=""10"">","null","trial","32","","0.8,0.2","1:go_a","1",""
"null","","html-keyboard-response","315","436765","0.0-6.0-2.31","","<div style=""font-size:60px;"">+</div>","null","","","","","","",""
"null","","image-keyboard-response","316","438266","0.0-6.0-0.32","","img/yellow.png","null","trial","null","true","0,1","4:nogo_d","",""
"null","","html-keyboard-response","317","439267","0.0-6.0-1.32","","<img src=""img/yellow-r.png"">","null","trial","null","","0,1","4:nogo_d","1",""
"null","","html-keyboard-response","318","440268","0.0-6.0-2.32","","<div style=""font-size:60px;"">+</div>","null","","","","","","",""
"854.1350000305101","","image-keyboard-response","319","441123","0.0-6.0-0.33","","img/green.png","32","trial","32","true","0.8,0.2","1:go_a","",""
"null","","html-keyboard-response","320","442124","0.0-6.0-1.33","","<img src=""img/green-r.png"" border=""10"">","null","trial","32","","0.8,0.2","1:go_a","1",""
"null","","html-keyboard-response","321","443125","0.0-6.0-2.33","","<div style=""font-size:60px;"">+</div>","null","","","","","","",""
"null","","image-keyboard-response","322","444626","0.0-6.0-0.34","","img/blue.png","null","trial","null","true","0.2,0.8","2:nogo_b","",""
"null","","html-keyboard-response","323","445627","0.0-6.0-1.34","","<img src=""img/blue-r.png"">","null","trial","null","","0.2,0.8","2:nogo_b","1",""
"null","","html-keyboard-response","324","446628","0.0-6.0-2.34","","<div style=""font-size:60px;"">+</div>","null","","","","","","",""
"806.6049999906681","","image-keyboard-response","325","447435","0.0-6.0-0.35","","img/grey.png","32","trial","32","true","1,0","3:go_c","",""
"null","","html-keyboard-response","326","448437","0.0-6.0-1.35","","<img src=""img/grey-r.png"" border=""10"">","null","trial","32","","1,0","3:go_c","1",""
"null","","html-keyboard-response","327","449437","0.0-6.0-2.35","","<div style=""font-size:60px;"">+</div>","null","","","","","","",""
"null","","image-keyboard-response","328","450938","0.0-6.0-0.36","","img/yellow.png","null","trial","null","true","0,1","4:nogo_d","",""
"null","","html-keyboard-response","329","451940","0.0-6.0-1.36","","<img src=""img/yellow-r.png"">","null","trial","null","","0,1","4:nogo_d","1",""
"null","","html-keyboard-response","330","452941","0.0-6.0-2.36","","<div style=""font-size:60px;"">+</div>","null","","","","","","",""
"null","","image-keyboard-response","331","454442","0.0-6.0-0.37","","img/blue.png","null","trial","null","true","0.2,0.8","2:nogo_b","",""
"null","","html-keyboard-response","332","455443","0.0-6.0-1.37","","<img src=""img/blue-r.png"">","null","trial","null","","0.2,0.8","2:nogo_b","1",""
"null","","html-keyboard-response","333","456444","0.0-6.0-2.37","","<div style=""font-size:60px;"">+</div>","null","","","","","","",""
"474.5450000045821","","image-keyboard-response","334","456919","0.0-6.0-0.38","","img/green.png","32","trial","32","true","0.8,0.2","1:go_a","",""
"null","","html-keyboard-response","335","457920","0.0-6.0-1.38","","<img src=""img/green-r.png"" border=""10"">","null","trial","32","","0.8,0.2","1:go_a","1",""
"null","","html-keyboard-response","336","458921","0.0-6.0-2.38","","<div style=""font-size:60px;"">+</div>","null","","","","","","",""
"829.6299999929033","","image-keyboard-response","337","459751","0.0-6.0-0.39","","img/grey.png","32","trial","32","true","1,0","3:go_c","",""
"null","","html-keyboard-response","338","460752","0.0-6.0-1.39","","<img src=""img/grey-r.png"" border=""10"">","null","trial","32","","1,0","3:go_c","1",""
"null","","html-keyboard-response","339","461753","0.0-6.0-2.39","","<div style=""font-size:60px;"">+</div>","null","","","","","","",""
"615.5850000213832","","image-keyboard-response","340","462369","0.0-6.0-0.40","","img/grey.png","32","trial","32","true","1,0","3:go_c","",""
"null","","html-keyboard-response","341","463371","0.0-6.0-1.40","","<img src=""img/grey-r.png"" border=""10"">","null","trial","32","","1,0","3:go_c","1",""
"null","","html-keyboard-response","342","464371","0.0-6.0-2.40","","<div style=""font-size:60px;"">+</div>","null","","","","","","",""
"null","","image-keyboard-response","343","465872","0.0-6.0-0.41","","img/blue.png","null","trial","null","true","0.2,0.8","2:nogo_b","",""
"null","","html-keyboard-response","344","466874","0.0-6.0-1.41","","<img src=""img/blue-n.png"">","null","trial","null","","0.2,0.8","2:nogo_b","0",""
"null","","html-keyboard-response","345","467875","0.0-6.0-2.41","","<div style=""font-size:60px;"">+</div>","null","","","","","","",""
"null","","image-keyboard-response","346","469376","0.0-6.0-0.42","","img/yellow.png","null","trial","null","true","0,1","4:nogo_d","",""
"null","","html-keyboard-response","347","470377","0.0-6.0-1.42","","<img src=""img/yellow-r.png"">","null","trial","null","","0,1","4:nogo_d","1",""
"null","","html-keyboard-response","348","471378","0.0-6.0-2.42","","<div style=""font-size:60px;"">+</div>","null","","","","","","",""
"585.6399999465793","","image-keyboard-response","349","471964","0.0-6.0-0.43","","img/green.png","32","trial","32","true","0.8,0.2","1:go_a","",""
"null","","html-keyboard-response","350","472965","0.0-6.0-1.43","","<img src=""img/green-r.png"" border=""10"">","null","trial","32","","0.8,0.2","1:go_a","1",""
"null","","html-keyboard-response","351","473966","0.0-6.0-2.43","","<div style=""font-size:60px;"">+</div>","null","","","","","","",""
"948.084999981802","","image-keyboard-response","352","474915","0.0-6.0-0.44","","img/green.png","32","trial","32","true","0.8,0.2","1:go_a","",""
"null","","html-keyboard-response","353","475916","0.0-6.0-1.44","","<img src=""img/green-r.png"" border=""10"">","null","trial","32","","0.8,0.2","1:go_a","1",""
"null","","html-keyboard-response","354","476917","0.0-6.0-2.44","","<div style=""font-size:60px;"">+</div>","null","","","","","","",""
"null","","image-keyboard-response","355","478418","0.0-6.0-0.45","","img/blue.png","null","trial","null","true","0.2,0.8","2:nogo_b","",""
"null","","html-keyboard-response","356","479419","0.0-6.0-1.45","","<img src=""img/blue-r.png"">","null","trial","null","","0.2,0.8","2:nogo_b","1",""
"null","","html-keyboard-response","357","480420","0.0-6.0-2.45","","<div style=""font-size:60px;"">+</div>","null","","","","","","",""
"null","","image-keyboard-response","358","481921","0.0-6.0-0.46","","img/yellow.png","null","trial","null","true","0,1","4:nogo_d","",""
"null","","html-keyboard-response","359","482923","0.0-6.0-1.46","","<img src=""img/yellow-r.png"">","null","trial","null","","0,1","4:nogo_d","1",""
"null","","html-keyboard-response","360","483923","0.0-6.0-2.46","","<div style=""font-size:60px;"">+</div>","null","","","","","","",""
"1084.1549999895506","","image-keyboard-response","361","485008","0.0-6.0-0.47","","img/grey.png","32","trial","32","true","1,0","3:go_c","",""
"null","","html-keyboard-response","362","486010","0.0-6.0-1.47","","<img src=""img/grey-r.png"" border=""10"">","null","trial","32","","1,0","3:go_c","1",""
"null","","html-keyboard-response","363","487010","0.0-6.0-2.47","","<div style=""font-size:60px;"">+</div>","null","","","","","","",""
"828.7650000420399","","image-keyboard-response","364","487840","0.0-6.0-0.48","","img/green.png","32","trial","32","true","0.8,0.2","1:go_a","",""
"null","","html-keyboard-response","365","488841","0.0-6.0-1.48","","<img src=""img/green-n.png"" border=""10"">","null","trial","32","","0.8,0.2","1:go_a","0",""
"null","","html-keyboard-response","366","489841","0.0-6.0-2.48","","<div style=""font-size:60px;"">+</div>","null","","","","","","",""
"null","","image-keyboard-response","367","491342","0.0-6.0-0.49","","img/yellow.png","null","trial","null","true","0,1","4:nogo_d","",""
"null","","html-keyboard-response","368","492344","0.0-6.0-1.49","","<img src=""img/yellow-r.png"">","null","trial","null","","0,1","4:nogo_d","1",""
"null","","html-keyboard-response","369","494030","0.0-6.0-2.49","","<div style=""font-size:60px;"">+</div>","null","","","","","","",""
"null","","image-keyboard-response","370","495530","0.0-6.0-0.50","","img/blue.png","null","trial","null","true","0.2,0.8","2:nogo_b","",""
"null","","html-keyboard-response","371","496532","0.0-6.0-1.50","","<img src=""img/blue-r.png"">","null","trial","null","","0.2,0.8","2:nogo_b","1",""
"null","","html-keyboard-response","372","497533","0.0-6.0-2.50","","<div style=""font-size:60px;"">+</div>","null","","","","","","",""
"823.4800000209361","","image-keyboard-response","373","498357","0.0-6.0-0.51","","img/grey.png","32","trial","32","true","1,0","3:go_c","",""
"null","","html-keyboard-response","374","499358","0.0-6.0-1.51","","<img src=""img/grey-r.png"" border=""10"">","null","trial","32","","1,0","3:go_c","1",""
"null","","html-keyboard-response","375","500359","0.0-6.0-2.51","","<div style=""font-size:60px;"">+</div>","null","","","","","","",""
"734.0200000326149","","image-keyboard-response","376","501094","0.0-6.0-0.52","","img/green.png","32","trial","32","true","0.8,0.2","1:go_a","",""
"null","","html-keyboard-response","377","502095","0.0-6.0-1.52","","<img src=""img/green-r.png"" border=""10"">","null","trial","32","","0.8,0.2","1:go_a","1",""
"null","","html-keyboard-response","378","503096","0.0-6.0-2.52","","<div style=""font-size:60px;"">+</div>","null","","","","","","",""
"null","","image-keyboard-response","379","504597","0.0-6.0-0.53","","img/blue.png","null","trial","null","true","0.2,0.8","2:nogo_b","",""
"null","","html-keyboard-response","380","505599","0.0-6.0-1.53","","<img src=""img/blue-r.png"">","null","trial","null","","0.2,0.8","2:nogo_b","1",""
"null","","html-keyboard-response","381","506599","0.0-6.0-2.53","","<div style=""font-size:60px;"">+</div>","null","","","","","","",""
"null","","image-keyboard-response","382","508100","0.0-6.0-0.54","","img/yellow.png","null","trial","null","true","0,1","4:nogo_d","",""
"null","","html-keyboard-response","383","509102","0.0-6.0-1.54","","<img src=""img/yellow-r.png"">","null","trial","null","","0,1","4:nogo_d","1",""
"null","","html-keyboard-response","384","510103","0.0-6.0-2.54","","<div style=""font-size:60px;"">+</div>","null","","","","","","",""
"1202.4550000205636","","image-keyboard-response","385","511306","0.0-6.0-0.55","","img/grey.png","32","trial","32","true","1,0","3:go_c","",""
"null","","html-keyboard-response","386","512307","0.0-6.0-1.55","","<img src=""img/grey-r.png"" border=""10"">","null","trial","32","","1,0","3:go_c","1",""
"null","","html-keyboard-response","387","513308","0.0-6.0-2.55","","<div style=""font-size:60px;"">+</div>","null","","","","","","",""
"623.589999973774","","image-keyboard-response","388","513932","0.0-6.0-0.56","","img/grey.png","32","trial","32","true","1,0","3:go_c","",""
"null","","html-keyboard-response","389","514933","0.0-6.0-1.56","","<img src=""img/grey-r.png"" border=""10"">","null","trial","32","","1,0","3:go_c","1",""
"null","","html-keyboard-response","390","515934","0.0-6.0-2.56","","<div style=""font-size:60px;"">+</div>","null","","","","","","",""
"null","","image-keyboard-response","391","517435","0.0-6.0-0.57","","img/blue.png","null","trial","null","true","0.2,0.8","2:nogo_b","",""
"null","","html-keyboard-response","392","518437","0.0-6.0-1.57","","<img src=""img/blue-r.png"">","null","trial","null","","0.2,0.8","2:nogo_b","1",""
"null","","html-keyboard-response","393","519438","0.0-6.0-2.57","","<div style=""font-size:60px;"">+</div>","null","","","","","","",""
"null","","image-keyboard-response","394","520939","0.0-6.0-0.58","","img/yellow.png","null","trial","null","true","0,1","4:nogo_d","",""
"null","","html-keyboard-response","395","521941","0.0-6.0-1.58","","<img src=""img/yellow-r.png"">","null","trial","null","","0,1","4:nogo_d","1",""
"null","","html-keyboard-response","396","522942","0.0-6.0-2.58","","<div style=""font-size:60px;"">+</div>","null","","","","","","",""
"663.8749999692664","","image-keyboard-response","397","523606","0.0-6.0-0.59","","img/green.png","32","trial","32","true","0.8,0.2","1:go_a","",""
"null","","html-keyboard-response","398","524608","0.0-6.0-1.59","","<img src=""img/green-r.png"" border=""10"">","null","trial","32","","0.8,0.2","1:go_a","1",""
"null","","html-keyboard-response","399","525608","0.0-6.0-2.59","","<div style=""font-size:60px;"">+</div>","null","","","","","","",""
"null","","image-keyboard-response","400","527109","0.0-6.0-0.60","","img/blue.png","null","trial","null","true","0.2,0.8","2:nogo_b","",""
"null","","html-keyboard-response","401","528111","0.0-6.0-1.60","","<img src=""img/blue-r.png"">","null","trial","null","","0.2,0.8","2:nogo_b","1",""
"null","","html-keyboard-response","402","529112","0.0-6.0-2.60","","<div style=""font-size:60px;"">+</div>","null","","","","","","",""
"null","","image-keyboard-response","403","530613","0.0-6.0-0.61","","img/yellow.png","null","trial","null","true","0,1","4:nogo_d","",""
"null","","html-keyboard-response","404","531614","0.0-6.0-1.61","","<img src=""img/yellow-r.png"">","null","trial","null","","0,1","4:nogo_d","1",""
"null","","html-keyboard-response","405","532615","0.0-6.0-2.61","","<div style=""font-size:60px;"">+</div>","null","","","","","","",""
"569.1000000224449","","image-keyboard-response","406","533185","0.0-6.0-0.62","","img/green.png","32","trial","32","true","0.8,0.2","1:go_a","",""
"null","","html-keyboard-response","407","534186","0.0-6.0-1.62","","<img src=""img/green-r.png"" border=""10"">","null","trial","32","","0.8,0.2","1:go_a","1",""
"null","","html-keyboard-response","408","535187","0.0-6.0-2.62","","<div style=""font-size:60px;"">+</div>","null","","","","","","",""
"465.3999999864027","","image-keyboard-response","409","535653","0.0-6.0-0.63","","img/grey.png","32","trial","32","true","1,0","3:go_c","",""
"null","","html-keyboard-response","410","536654","0.0-6.0-1.63","","<img src=""img/grey-r.png"" border=""10"">","null","trial","32","","1,0","3:go_c","1",""
"null","","html-keyboard-response","411","537655","0.0-6.0-2.63","","<div style=""font-size:60px;"">+</div>","null","","","","","","",""
"null","","image-keyboard-response","412","539156","0.0-6.0-0.64","","img/yellow.png","null","trial","null","true","0,1","4:nogo_d","",""
"null","","html-keyboard-response","413","540158","0.0-6.0-1.64","","<img src=""img/yellow-r.png"">","null","trial","null","","0,1","4:nogo_d","1",""
"null","","html-keyboard-response","414","541159","0.0-6.0-2.64","","<div style=""font-size:60px;"">+</div>","null","","","","","","",""
"1351.7100000171922","","image-keyboard-response","415","542511","0.0-6.0-0.65","","img/green.png","32","trial","32","true","0.8,0.2","1:go_a","",""
"null","","html-keyboard-response","416","543512","0.0-6.0-1.65","","<img src=""img/green-n.png"" border=""10"">","null","trial","32","","0.8,0.2","1:go_a","0",""
"null","","html-keyboard-response","417","544513","0.0-6.0-2.65","","<div style=""font-size:60px;"">+</div>","null","","","","","","",""
"552.5650000199676","","image-keyboard-response","418","545066","0.0-6.0-0.66","","img/grey.png","32","trial","32","true","1,0","3:go_c","",""
"null","","html-keyboard-response","419","546067","0.0-6.0-1.66","","<img src=""img/grey-r.png"" border=""10"">","null","trial","32","","1,0","3:go_c","1",""
"null","","html-keyboard-response","420","547068","0.0-6.0-2.66","","<div style=""font-size:60px;"">+</div>","null","","","","","","",""
"null","","image-keyboard-response","421","548569","0.0-6.0-0.67","","img/blue.png","null","trial","null","true","0.2,0.8","2:nogo_b","",""
"null","","html-keyboard-response","422","549570","0.0-6.0-1.67","","<img src=""img/blue-r.png"">","null","trial","null","","0.2,0.8","2:nogo_b","1",""
"null","","html-keyboard-response","423","550571","0.0-6.0-2.67","","<div style=""font-size:60px;"">+</div>","null","","","","","","",""
"719.5550000178628","","image-keyboard-response","424","551291","0.0-6.0-0.68","","img/grey.png","32","trial","32","true","1,0","3:go_c","",""
"null","","html-keyboard-response","425","552293","0.0-6.0-1.68","","<img src=""img/grey-r.png"" border=""10"">","null","trial","32","","1,0","3:go_c","1",""
"null","","html-keyboard-response","426","553294","0.0-6.0-2.68","","<div style=""font-size:60px;"">+</div>","null","","","","","","",""
"null","","image-keyboard-response","427","555486","0.0-6.0-0.69","","img/yellow.png","null","trial","null","true","0,1","4:nogo_d","",""
"null","","html-keyboard-response","428","556488","0.0-6.0-1.69","","<img src=""img/yellow-r.png"">","null","trial","null","","0,1","4:nogo_d","1",""
"null","","html-keyboard-response","429","557488","0.0-6.0-2.69","","<div style=""font-size:60px;"">+</div>","null","","","","","","",""
"null","","image-keyboard-response","430","558989","0.0-6.0-0.70","","img/blue.png","null","trial","null","true","0.2,0.8","2:nogo_b","",""
"null","","html-keyboard-response","431","559991","0.0-6.0-1.70","","<img src=""img/blue-n.png"">","null","trial","null","","0.2,0.8","2:nogo_b","0",""
"null","","html-keyboard-response","432","560992","0.0-6.0-2.70","","<div style=""font-size:60px;"">+</div>","null","","","","","","",""
"528.9350000093691","","image-keyboard-response","433","561521","0.0-6.0-0.71","","img/green.png","32","trial","32","true","0.8,0.2","1:go_a","",""
"null","","html-keyboard-response","434","562522","0.0-6.0-1.71","","<img src=""img/green-n.png"" border=""10"">","null","trial","32","","0.8,0.2","1:go_a","0",""
"null","","html-keyboard-response","435","563523","0.0-6.0-2.71","","<div style=""font-size:60px;"">+</div>","null","","","","","","",""
"837.6099999877624","","image-keyboard-response","436","564361","0.0-6.0-0.72","","img/green.png","32","trial","32","true","0.8,0.2","1:go_a","",""
"null","","html-keyboard-response","437","565362","0.0-6.0-1.72","","<img src=""img/green-n.png"" border=""10"">","null","trial","32","","0.8,0.2","1:go_a","0",""
"null","","html-keyboard-response","438","566363","0.0-6.0-2.72","","<div style=""font-size:60px;"">+</div>","null","","","","","","",""
"1438.3249999955297","","image-keyboard-response","439","567802","0.0-6.0-0.73","","img/blue.png","32","trial","null","false","0.2,0.8","2:nogo_b","",""
"null","","html-keyboard-response","440","568803","0.0-6.0-1.73","","<img src=""img/blue-n.png"" border=""10"">","null","trial","null","","0.2,0.8","2:nogo_b","0",""
"null","","html-keyboard-response","441","569804","0.0-6.0-2.73","","<div style=""font-size:60px;"">+</div>","null","","","","","","",""
"null","","image-keyboard-response","442","571305","0.0-6.0-0.74","","img/yellow.png","null","trial","null","true","0,1","4:nogo_d","",""
"null","","html-keyboard-response","443","572307","0.0-6.0-1.74","","<img src=""img/yellow-r.png"">","null","trial","null","","0,1","4:nogo_d","1",""
"null","","html-keyboard-response","444","573308","0.0-6.0-2.74","","<div style=""font-size:60px;"">+</div>","null","","","","","","",""
"1478.7500000093132","","image-keyboard-response","445","574787","0.0-6.0-0.75","","img/grey.png","32","trial","32","true","1,0","3:go_c","",""
"null","","html-keyboard-response","446","575788","0.0-6.0-1.75","","<img src=""img/grey-r.png"" border=""10"">","null","trial","32","","1,0","3:go_c","1",""
"null","","html-keyboard-response","447","576789","0.0-6.0-2.75","","<div style=""font-size:60px;"">+</div>","null","","","","","","",""
"null","","image-keyboard-response","448","578290","0.0-6.0-0.76","","img/green.png","null","trial","32","false","0.8,0.2","1:go_a","",""
"null","","html-keyboard-response","449","579292","0.0-6.0-1.76","","<img src=""img/green-n.png"">","null","trial","32","","0.8,0.2","1:go_a","0",""
"null","","html-keyboard-response","450","580293","0.0-6.0-2.76","","<div style=""font-size:60px;"">+</div>","null","","","","","","",""
"null","","image-keyboard-response","451","581794","0.0-6.0-0.77","","img/blue.png","null","trial","null","true","0.2,0.8","2:nogo_b","",""
"null","","html-keyboard-response","452","582795","0.0-6.0-1.77","","<img src=""img/blue-r.png"">","null","trial","null","","0.2,0.8","2:nogo_b","1",""
"null","","html-keyboard-response","453","583796","0.0-6.0-2.77","","<div style=""font-size:60px;"">+</div>","null","","","","","","",""
"null","","image-keyboard-response","454","585297","0.0-6.0-0.78","","img/yellow.png","null","trial","null","true","0,1","4:nogo_d","",""
"null","","html-keyboard-response","455","586299","0.0-6.0-1.78","","<img src=""img/yellow-r.png"">","null","trial","null","","0,1","4:nogo_d","1",""
"null","","html-keyboard-response","456","587299","0.0-6.0-2.78","","<div style=""font-size:60px;"">+</div>","null","","","","","","",""
"562.3049999703653","","image-keyboard-response","457","587862","0.0-6.0-0.79","","img/grey.png","32","trial","32","true","1,0","3:go_c","",""
"null","","html-keyboard-response","458","588864","0.0-6.0-1.79","","<img src=""img/grey-r.png"" border=""10"">","null","trial","32","","1,0","3:go_c","1",""
"null","","html-keyboard-response","459","589864","0.0-6.0-2.79","","<div style=""font-size:60px;"">+</div>","null","","","","","","",""
"null","","image-keyboard-response","460","591365","0.0-6.0-0.80","","img/blue.png","null","trial","null","true","0.2,0.8","2:nogo_b","",""
"null","","html-keyboard-response","461","592367","0.0-6.0-1.80","","<img src=""img/blue-r.png"">","null","trial","null","","0.2,0.8","2:nogo_b","1",""
"null","","html-keyboard-response","462","593368","0.0-6.0-2.80","","<div style=""font-size:60px;"">+</div>","null","","","","","","",""
"null","","image-keyboard-response","463","594869","0.0-6.0-0.81","","img/yellow.png","null","trial","null","true","0,1","4:nogo_d","",""
"null","","html-keyboard-response","464","595870","0.0-6.0-1.81","","<img src=""img/yellow-r.png"">","null","trial","null","","0,1","4:nogo_d","1",""
"null","","html-keyboard-response","465","596871","0.0-6.0-2.81","","<div style=""font-size:60px;"">+</div>","null","","","","","","",""
"695.9349999669939","","image-keyboard-response","466","597568","0.0-6.0-0.82","","img/grey.png","32","trial","32","true","1,0","3:go_c","",""
"null","","html-keyboard-response","467","598569","0.0-6.0-1.82","","<img src=""img/grey-r.png"" border=""10"">","null","trial","32","","1,0","3:go_c","1",""
"null","","html-keyboard-response","468","599570","0.0-6.0-2.82","","<div style=""font-size:60px;"">+</div>","null","","","","","","",""
"1193.440000002738","","image-keyboard-response","469","600764","0.0-6.0-0.83","","img/green.png","32","trial","32","true","0.8,0.2","1:go_a","",""
"null","","html-keyboard-response","470","601765","0.0-6.0-1.83","","<img src=""img/green-r.png"" border=""10"">","null","trial","32","","0.8,0.2","1:go_a","1",""
"null","","html-keyboard-response","471","602765","0.0-6.0-2.83","","<div style=""font-size:60px;"">+</div>","null","","","","","","",""
"892.3699999577366","","image-keyboard-response","472","603658","0.0-6.0-0.84","","img/grey.png","32","trial","32","true","1,0","3:go_c","",""
"null","","html-keyboard-response","473","604660","0.0-6.0-1.84","","<img src=""img/grey-r.png"" border=""10"">","null","trial","32","","1,0","3:go_c","1",""
"null","","html-keyboard-response","474","605661","0.0-6.0-2.84","","<div style=""font-size:60px;"">+</div>","null","","","","","","",""
"773.6250000307336","","image-keyboard-response","475","606435","0.0-6.0-0.85","","img/green.png","32","trial","32","true","0.8,0.2","1:go_a","",""
"null","","html-keyboard-response","476","607436","0.0-6.0-1.85","","<img src=""img/green-r.png"" border=""10"">","null","trial","32","","0.8,0.2","1:go_a","1",""
"null","","html-keyboard-response","477","608437","0.0-6.0-2.85","","<div style=""font-size:60px;"">+</div>","null","","","","","","",""
"null","","image-keyboard-response","478","609938","0.0-6.0-0.86","","img/yellow.png","null","trial","null","true","0,1","4:nogo_d","",""
"null","","html-keyboard-response","479","610940","0.0-6.0-1.86","","<img src=""img/yellow-r.png"">","null","trial","null","","0,1","4:nogo_d","1",""
"null","","html-keyboard-response","480","611941","0.0-6.0-2.86","","<div style=""font-size:60px;"">+</div>","null","","","","","","",""
"null","","image-keyboard-response","481","613442","0.0-6.0-0.87","","img/blue.png","null","trial","null","true","0.2,0.8","2:nogo_b","",""
"null","","html-keyboard-response","482","614443","0.0-6.0-1.87","","<img src=""img/blue-r.png"">","null","trial","null","","0.2,0.8","2:nogo_b","1",""
"null","","html-keyboard-response","483","615444","0.0-6.0-2.87","","<div style=""font-size:60px;"">+</div>","null","","","","","","",""
"null","","image-keyboard-response","484","617644","0.0-6.0-0.88","","img/yellow.png","null","trial","null","true","0,1","4:nogo_d","",""
"null","","html-keyboard-response","485","618645","0.0-6.0-1.88","","<img src=""img/yellow-r.png"">","null","trial","null","","0,1","4:nogo_d","1",""
"null","","html-keyboard-response","486","619646","0.0-6.0-2.88","","<div style=""font-size:60px;"">+</div>","null","","","","","","",""
"null","","image-keyboard-response","487","621147","0.0-6.0-0.89","","img/blue.png","null","trial","null","true","0.2,0.8","2:nogo_b","",""
"null","","html-keyboard-response","488","622149","0.0-6.0-1.89","","<img src=""img/blue-r.png"">","null","trial","null","","0.2,0.8","2:nogo_b","1",""
"null","","html-keyboard-response","489","623149","0.0-6.0-2.89","","<div style=""font-size:60px;"">+</div>","null","","","","","","",""
"634.5599999767728","","image-keyboard-response","490","623784","0.0-6.0-0.90","","img/green.png","32","trial","32","true","0.8,0.2","1:go_a","",""
"null","","html-keyboard-response","491","624786","0.0-6.0-1.90","","<img src=""img/green-r.png"" border=""10"">","null","trial","32","","0.8,0.2","1:go_a","1",""
"null","","html-keyboard-response","492","625787","0.0-6.0-2.90","","<div style=""font-size:60px;"">+</div>","null","","","","","","",""
"718.105000036303","","image-keyboard-response","493","626505","0.0-6.0-0.91","","img/grey.png","32","trial","32","true","1,0","3:go_c","",""
"null","","html-keyboard-response","494","627506","0.0-6.0-1.91","","<img src=""img/grey-r.png"" border=""10"">","null","trial","32","","1,0","3:go_c","1",""
"null","","html-keyboard-response","495","628507","0.0-6.0-2.91","","<div style=""font-size:60px;"">+</div>","null","","","","","","",""
"null","","image-keyboard-response","496","630008","0.0-6.0-0.92","","img/blue.png","null","trial","null","true","0.2,0.8","2:nogo_b","",""
"null","","html-keyboard-response","497","631009","0.0-6.0-1.92","","<img src=""img/blue-r.png"">","null","trial","null","","0.2,0.8","2:nogo_b","1",""
"null","","html-keyboard-response","498","632010","0.0-6.0-2.92","","<div style=""font-size:60px;"">+</div>","null","","","","","","",""
"null","","image-keyboard-response","499","633511","0.0-6.0-0.93","","img/yellow.png","null","trial","null","true","0,1","4:nogo_d","",""
"null","","html-keyboard-response","500","634513","0.0-6.0-1.93","","<img src=""img/yellow-r.png"">","null","trial","null","","0,1","4:nogo_d","1",""
"null","","html-keyboard-response","501","635514","0.0-6.0-2.93","","<div style=""font-size:60px;"">+</div>","null","","","","","","",""
"570.3600000124425","","image-keyboard-response","502","636084","0.0-6.0-0.94","","img/grey.png","32","trial","32","true","1,0","3:go_c","",""
"null","","html-keyboard-response","503","637086","0.0-6.0-1.94","","<img src=""img/grey-r.png"" border=""10"">","null","trial","32","","1,0","3:go_c","1",""
"null","","html-keyboard-response","504","638086","0.0-6.0-2.94","","<div style=""font-size:60px;"">+</div>","null","","","","","","",""
"631.290000048466","","image-keyboard-response","505","638718","0.0-6.0-0.95","","img/green.png","32","trial","32","true","0.8,0.2","1:go_a","",""
"null","","html-keyboard-response","506","639720","0.0-6.0-1.95","","<img src=""img/green-r.png"" border=""10"">","null","trial","32","","0.8,0.2","1:go_a","1",""
"null","","html-keyboard-response","507","640721","0.0-6.0-2.95","","<div style=""font-size:60px;"">+</div>","null","","","","","","",""
"599.5400000247173","","image-keyboard-response","508","641321","0.0-6.0-0.96","","img/grey.png","32","trial","32","true","1,0","3:go_c","",""
"null","","html-keyboard-response","509","642322","0.0-6.0-1.96","","<img src=""img/grey-r.png"" border=""10"">","null","trial","32","","1,0","3:go_c","1",""
"null","","html-keyboard-response","510","643323","0.0-6.0-2.96","","<div style=""font-size:60px;"">+</div>","null","","","","","","",""
"null","","image-keyboard-response","511","644824","0.0-6.0-0.97","","img/yellow.png","null","trial","null","true","0,1","4:nogo_d","",""
"null","","html-keyboard-response","512","645826","0.0-6.0-1.97","","<img src=""img/yellow-r.png"">","null","trial","null","","0,1","4:nogo_d","1",""
"null","","html-keyboard-response","513","646827","0.0-6.0-2.97","","<div style=""font-size:60px;"">+</div>","null","","","","","","",""
"null","","image-keyboard-response","514","648328","0.0-6.0-0.98","","img/blue.png","null","trial","null","true","0.2,0.8","2:nogo_b","",""
"null","","html-keyboard-response","515","649329","0.0-6.0-1.98","","<img src=""img/blue-r.png"">","null","trial","null","","0.2,0.8","2:nogo_b","1",""
"null","","html-keyboard-response","516","650330","0.0-6.0-2.98","","<div style=""font-size:60px;"">+</div>","null","","","","","","",""
"751.4649999793619","","image-keyboard-response","517","651082","0.0-6.0-0.99","","img/green.png","32","trial","32","true","0.8,0.2","1:go_a","",""
"null","","html-keyboard-response","518","652083","0.0-6.0-1.99","","<img src=""img/green-r.png"" border=""10"">","null","trial","32","","0.8,0.2","1:go_a","1",""
"null","","html-keyboard-response","519","653084","0.0-6.0-2.99","","<div style=""font-size:60px;"">+</div>","null","","","","","","",""
"908.434999990277","","image-keyboard-response","520","653993","0.0-6.0-0.100","","img/green.png","32","trial","32","true","0.8,0.2","1:go_a","",""
"null","","html-keyboard-response","521","654994","0.0-6.0-1.100","","<img src=""img/green-n.png"" border=""10"">","null","trial","32","","0.8,0.2","1:go_a","0",""
"null","","html-keyboard-response","522","655995","0.0-6.0-2.100","","<div style=""font-size:60px;"">+</div>","null","","","","","","",""
"null","","image-keyboard-response","523","657496","0.0-6.0-0.101","","img/yellow.png","null","trial","null","true","0,1","4:nogo_d","",""
"null","","html-keyboard-response","524","658498","0.0-6.0-1.101","","<img src=""img/yellow-r.png"">","null","trial","null","","0,1","4:nogo_d","1",""
"null","","html-keyboard-response","525","659498","0.0-6.0-2.101","","<div style=""font-size:60px;"">+</div>","null","","","","","","",""
"695.3799999901094","","image-keyboard-response","526","660194","0.0-6.0-0.102","","img/grey.png","32","trial","32","true","1,0","3:go_c","",""
"null","","html-keyboard-response","527","661196","0.0-6.0-1.102","","<img src=""img/grey-r.png"" border=""10"">","null","trial","32","","1,0","3:go_c","1",""
"null","","html-keyboard-response","528","662197","0.0-6.0-2.102","","<div style=""font-size:60px;"">+</div>","null","","","","","","",""
"null","","image-keyboard-response","529","663698","0.0-6.0-0.103","","img/blue.png","null","trial","null","true","0.2,0.8","2:nogo_b","",""
"null","","html-keyboard-response","530","664699","0.0-6.0-1.103","","<img src=""img/blue-r.png"">","null","trial","null","","0.2,0.8","2:nogo_b","1",""
"null","","html-keyboard-response","531","665700","0.0-6.0-2.103","","<div style=""font-size:60px;"">+</div>","null","","","","","","",""
"814.2150000203401","","image-keyboard-response","532","666515","0.0-6.0-0.104","","img/grey.png","32","trial","32","true","1,0","3:go_c","",""
"null","","html-keyboard-response","533","667517","0.0-6.0-1.104","","<img src=""img/grey-r.png"" border=""10"">","null","trial","32","","1,0","3:go_c","1",""
"null","","html-keyboard-response","534","668517","0.0-6.0-2.104","","<div style=""font-size:60px;"">+</div>","null","","","","","","",""
"535.6299999984913","","image-keyboard-response","535","669054","0.0-6.0-0.105","","img/green.png","32","trial","32","true","0.8,0.2","1:go_a","",""
"null","","html-keyboard-response","536","670055","0.0-6.0-1.105","","<img src=""img/green-r.png"" border=""10"">","null","trial","32","","0.8,0.2","1:go_a","1",""
"null","","html-keyboard-response","537","671056","0.0-6.0-2.105","","<div style=""font-size:60px;"">+</div>","null","","","","","","",""
"null","","image-keyboard-response","538","672557","0.0-6.0-0.106","","img/yellow.png","null","trial","null","true","0,1","4:nogo_d","",""
"null","","html-keyboard-response","539","673558","0.0-6.0-1.106","","<img src=""img/yellow-r.png"">","null","trial","null","","0,1","4:nogo_d","1",""
"null","","html-keyboard-response","540","674559","0.0-6.0-2.106","","<div style=""font-size:60px;"">+</div>","null","","","","","","",""
"null","","image-keyboard-response","541","676060","0.0-6.0-0.107","","img/blue.png","null","trial","null","true","0.2,0.8","2:nogo_b","",""
"null","","html-keyboard-response","542","677062","0.0-6.0-1.107","","<img src=""img/blue-n.png"">","null","trial","null","","0.2,0.8","2:nogo_b","0",""
"null","","html-keyboard-response","543","678749","0.0-6.0-2.107","","<div style=""font-size:60px;"">+</div>","null","","","","","","",""
"null","","image-keyboard-response","544","680250","0.0-6.0-0.108","","img/yellow.png","null","trial","null","true","0,1","4:nogo_d","",""
"null","","html-keyboard-response","545","681252","0.0-6.0-1.108","","<img src=""img/yellow-r.png"">","null","trial","null","","0,1","4:nogo_d","1",""
"null","","html-keyboard-response","546","682252","0.0-6.0-2.108","","<div style=""font-size:60px;"">+</div>","null","","","","","","",""
"null","","image-keyboard-response","547","683754","0.0-6.0-0.109","","img/blue.png","null","trial","null","true","0.2,0.8","2:nogo_b","",""
"null","","html-keyboard-response","548","684755","0.0-6.0-1.109","","<img src=""img/blue-r.png"">","null","trial","null","","0.2,0.8","2:nogo_b","1",""
"null","","html-keyboard-response","549","685757","0.0-6.0-2.109","","<div style=""font-size:60px;"">+</div>","null","","","","","","",""
"784.0100000030361","","image-keyboard-response","550","686541","0.0-6.0-0.110","","img/green.png","32","trial","32","true","0.8,0.2","1:go_a","",""
"null","","html-keyboard-response","551","687543","0.0-6.0-1.110","","<img src=""img/green-r.png"" border=""10"">","null","trial","32","","0.8,0.2","1:go_a","1",""
"null","","html-keyboard-response","552","688543","0.0-6.0-2.110","","<div style=""font-size:60px;"">+</div>","null","","","","","","",""
"678.940000012517","","image-keyboard-response","553","689223","0.0-6.0-0.111","","img/grey.png","32","trial","32","true","1,0","3:go_c","",""
"null","","html-keyboard-response","554","690224","0.0-6.0-1.111","","<img src=""img/grey-r.png"" border=""10"">","null","trial","32","","1,0","3:go_c","1",""
"null","","html-keyboard-response","555","691225","0.0-6.0-2.111","","<div style=""font-size:60px;"">+</div>","null","","","","","","",""
"null","","image-keyboard-response","556","692726","0.0-6.0-0.112","","img/yellow.png","null","trial","null","true","0,1","4:nogo_d","",""
"null","","html-keyboard-response","557","693728","0.0-6.0-1.112","","<img src=""img/yellow-r.png"">","null","trial","null","","0,1","4:nogo_d","1",""
"null","","html-keyboard-response","558","694728","0.0-6.0-2.112","","<div style=""font-size:60px;"">+</div>","null","","","","","","",""
"null","","image-keyboard-response","559","696229","0.0-6.0-0.113","","img/blue.png","null","trial","null","true","0.2,0.8","2:nogo_b","",""
"null","","html-keyboard-response","560","697231","0.0-6.0-1.113","","<img src=""img/blue-r.png"">","null","trial","null","","0.2,0.8","2:nogo_b","1",""
"null","","html-keyboard-response","561","698232","0.0-6.0-2.113","","<div style=""font-size:60px;"">+</div>","null","","","","","","",""
"728.1049999874085","","image-keyboard-response","562","698960","0.0-6.0-0.114","","img/grey.png","32","trial","32","true","1,0","3:go_c","",""
"null","","html-keyboard-response","563","699962","0.0-6.0-1.114","","<img src=""img/grey-r.png"" border=""10"">","null","trial","32","","1,0","3:go_c","1",""
"null","","html-keyboard-response","564","700963","0.0-6.0-2.114","","<div style=""font-size:60px;"">+</div>","null","","","","","","",""
"844.3400000105612","","image-keyboard-response","565","701808","0.0-6.0-0.115","","img/green.png","32","trial","32","true","0.8,0.2","1:go_a","",""
"null","","html-keyboard-response","566","702809","0.0-6.0-1.115","","<img src=""img/green-n.png"" border=""10"">","null","trial","32","","0.8,0.2","1:go_a","0",""
"null","","html-keyboard-response","567","703810","0.0-6.0-2.115","","<div style=""font-size:60px;"">+</div>","null","","","","","","",""
"631.6600000136532","","image-keyboard-response","568","704442","0.0-6.0-0.116","","img/grey.png","32","trial","32","true","1,0","3:go_c","",""
"null","","html-keyboard-response","569","705443","0.0-6.0-1.116","","<img src=""img/grey-r.png"" border=""10"">","null","trial","32","","1,0","3:go_c","1",""
"null","","html-keyboard-response","570","706444","0.0-6.0-2.116","","<div style=""font-size:60px;"">+</div>","null","","","","","","",""
"1034.830000018701","","image-keyboard-response","571","707479","0.0-6.0-0.117","","img/green.png","32","trial","32","true","0.8,0.2","1:go_a","",""
"null","","html-keyboard-response","572","708481","0.0-6.0-1.117","","<img src=""img/green-r.png"" border=""10"">","null","trial","32","","0.8,0.2","1:go_a","1",""
"null","","html-keyboard-response","573","709482","0.0-6.0-2.117","","<div style=""font-size:60px;"">+</div>","null","","","","","","",""
"null","","image-keyboard-response","574","710983","0.0-6.0-0.118","","img/blue.png","null","trial","null","true","0.2,0.8","2:nogo_b","",""
"null","","html-keyboard-response","575","711984","0.0-6.0-1.118","","<img src=""img/blue-r.png"">","null","trial","null","","0.2,0.8","2:nogo_b","1",""
"null","","html-keyboard-response","576","712985","0.0-6.0-2.118","","<div style=""font-size:60px;"">+</div>","null","","","","","","",""
"null","","image-keyboard-response","577","714486","0.0-6.0-0.119","","img/yellow.png","null","trial","null","true","0,1","4:nogo_d","",""
"null","","html-keyboard-response","578","715488","0.0-6.0-1.119","","<img src=""img/yellow-r.png"">","null","trial","null","","0,1","4:nogo_d","1",""
"null","","html-keyboard-response","579","716488","0.0-6.0-2.119","","<div style=""font-size:60px;"">+</div>","null","","","","","","",""
"9808.949999976903","","instructions","580","726298","0.0-7.0","[{""page_index"":0,""viewing_time"":9808.78500000108}]","","","","","","","","",""
"1050.8200000040233","","image-keyboard-response","581","727349","0.0-8.0-0.0","","img/pink.png","32","trial","32","true","0.8,0.2","1:go_a","",""
"null","","html-keyboard-response","582","728351","0.0-8.0-1.0","","<img src=""img/pink-r.png"" border=""10"">","null","trial","32","","0.8,0.2","1:go_a","1",""
"null","","html-keyboard-response","583","729352","0.0-8.0-2.0","","<div style=""font-size:60px;"">+</div>","null","","","","","","",""
"805.1650000270456","","image-keyboard-response","584","730158","0.0-8.0-0.1","","img/grey.png","32","trial","32","true","0.8,0.2","3:go_c","",""
"null","","html-keyboard-response","585","731159","0.0-8.0-1.1","","<img src=""img/grey-r.png"" border=""10"">","null","trial","32","","0.8,0.2","3:go_c","1",""
"null","","html-keyboard-response","586","732160","0.0-8.0-2.1","","<div style=""font-size:60px;"">+</div>","null","","","","","","",""
"null","","image-keyboard-response","587","733661","0.0-8.0-0.2","","img/yellow.png","null","trial","null","true","0.2,0.8","2:nogo_b","",""
"null","","html-keyboard-response","588","734663","0.0-8.0-1.2","","<img src=""img/yellow-r.png"">","null","trial","null","","0.2,0.8","2:nogo_b","1",""
"null","","html-keyboard-response","589","735664","0.0-8.0-2.2","","<div style=""font-size:60px;"">+</div>","null","","","","","","",""
"null","","image-keyboard-response","590","737165","0.0-8.0-0.3","","img/blue.png","null","trial","null","true","0.2,0.8","4:nogo_d","",""
"null","","html-keyboard-response","591","738167","0.0-8.0-1.3","","<img src=""img/blue-r.png"">","null","trial","null","","0.2,0.8","4:nogo_d","1",""
"null","","html-keyboard-response","592","739855","0.0-8.0-2.3","","<div style=""font-size:60px;"">+</div>","null","","","","","","",""
"null","","image-keyboard-response","593","741356","0.0-8.0-0.4","","img/yellow.png","null","trial","null","true","0.2,0.8","2:nogo_b","",""
"null","","html-keyboard-response","594","742357","0.0-8.0-1.4","","<img src=""img/yellow-r.png"">","null","trial","null","","0.2,0.8","2:nogo_b","1",""
"null","","html-keyboard-response","595","743358","0.0-8.0-2.4","","<div style=""font-size:60px;"">+</div>","null","","","","","","",""
"719.5100000244565","","image-keyboard-response","596","744078","0.0-8.0-0.5","","img/grey.png","32","trial","32","true","0.8,0.2","3:go_c","",""
"null","","html-keyboard-response","597","745079","0.0-8.0-1.5","","<img src=""img/grey-r.png"" border=""10"">","null","trial","32","","0.8,0.2","3:go_c","1",""
"null","","html-keyboard-response","598","746080","0.0-8.0-2.5","","<div style=""font-size:60px;"">+</div>","null","","","","","","",""
"null","","image-keyboard-response","599","747581","0.0-8.0-0.6","","img/blue.png","null","trial","null","true","0.2,0.8","4:nogo_d","",""
"null","","html-keyboard-response","600","748583","0.0-8.0-1.6","","<img src=""img/blue-r.png"">","null","trial","null","","0.2,0.8","4:nogo_d","1",""
"null","","html-keyboard-response","601","749584","0.0-8.0-2.6","","<div style=""font-size:60px;"">+</div>","null","","","","","","",""
"497.51000001560897","","image-keyboard-response","602","750082","0.0-8.0-0.7","","img/pink.png","32","trial","32","true","0.8,0.2","1:go_a","",""
"null","","html-keyboard-response","603","751084","0.0-8.0-1.7","","<img src=""img/pink-r.png"" border=""10"">","null","trial","32","","0.8,0.2","1:go_a","1",""
"null","","html-keyboard-response","604","752084","0.0-8.0-2.7","","<div style=""font-size:60px;"">+</div>","null","","","","","","",""
"null","","image-keyboard-response","605","753585","0.0-8.0-0.8","","img/yellow.png","null","trial","null","true","0.2,0.8","2:nogo_b","",""
"null","","html-keyboard-response","606","754587","0.0-8.0-1.8","","<img src=""img/yellow-n.png"">","null","trial","null","","0.2,0.8","2:nogo_b","0",""
"null","","html-keyboard-response","607","755588","0.0-8.0-2.8","","<div style=""font-size:60px;"">+</div>","null","","","","","","",""
"734.8050000146031","","image-keyboard-response","608","756323","0.0-8.0-0.9","","img/grey.png","32","trial","32","true","0.8,0.2","3:go_c","",""
"null","","html-keyboard-response","609","757324","0.0-8.0-1.9","","<img src=""img/grey-r.png"" border=""10"">","null","trial","32","","0.8,0.2","3:go_c","1",""
"null","","html-keyboard-response","610","758325","0.0-8.0-2.9","","<div style=""font-size:60px;"">+</div>","null","","","","","","",""
"null","","image-keyboard-response","611","759826","0.0-8.0-0.10","","img/blue.png","null","trial","null","true","0.2,0.8","4:nogo_d","",""
"null","","html-keyboard-response","612","760827","0.0-8.0-1.10","","<img src=""img/blue-n.png"">","null","trial","null","","0.2,0.8","4:nogo_d","0",""
"null","","html-keyboard-response","613","761828","0.0-8.0-2.10","","<div style=""font-size:60px;"">+</div>","null","","","","","","",""
"458.23500002734363","","image-keyboard-response","614","762287","0.0-8.0-0.11","","img/pink.png","32","trial","32","true","0.8,0.2","1:go_a","",""
"null","","html-keyboard-response","615","763289","0.0-8.0-1.11","","<img src=""img/pink-r.png"" border=""10"">","null","trial","32","","0.8,0.2","1:go_a","1",""
"null","","html-keyboard-response","616","764289","0.0-8.0-2.11","","<div style=""font-size:60px;"">+</div>","null","","","","","","",""
"631.1799999675713","","image-keyboard-response","617","764921","0.0-8.0-0.12","","img/pink.png","32","trial","32","true","0.8,0.2","1:go_a","",""
"null","","html-keyboard-response","618","765923","0.0-8.0-1.12","","<img src=""img/pink-r.png"" border=""10"">","null","trial","32","","0.8,0.2","1:go_a","1",""
"null","","html-keyboard-response","619","766923","0.0-8.0-2.12","","<div style=""font-size:60px;"">+</div>","null","","","","","","",""
"457.0650000241585","","image-keyboard-response","620","767381","0.0-8.0-0.13","","img/grey.png","32","trial","32","true","0.8,0.2","3:go_c","",""
"null","","html-keyboard-response","621","768383","0.0-8.0-1.13","","<img src=""img/grey-r.png"" border=""10"">","null","trial","32","","0.8,0.2","3:go_c","1",""
"null","","html-keyboard-response","622","769384","0.0-8.0-2.13","","<div style=""font-size:60px;"">+</div>","null","","","","","","",""
"null","","image-keyboard-response","623","770885","0.0-8.0-0.14","","img/yellow.png","null","trial","null","true","0.2,0.8","2:nogo_b","",""
"null","","html-keyboard-response","624","771886","0.0-8.0-1.14","","<img src=""img/yellow-r.png"">","null","trial","null","","0.2,0.8","2:nogo_b","1",""
"null","","html-keyboard-response","625","772887","0.0-8.0-2.14","","<div style=""font-size:60px;"">+</div>","null","","","","","","",""
"457.6750000123866","","image-keyboard-response","626","773345","0.0-8.0-0.15","","img/blue.png","32","trial","null","false","0.2,0.8","4:nogo_d","",""
"null","","html-keyboard-response","627","774346","0.0-8.0-1.15","","<img src=""img/blue-n.png"" border=""10"">","null","trial","null","","0.2,0.8","4:nogo_d","0",""
"null","","html-keyboard-response","628","775347","0.0-8.0-2.15","","<div style=""font-size:60px;"">+</div>","null","","","","","","",""
"null","","image-keyboard-response","629","776848","0.0-8.0-0.16","","img/blue.png","null","trial","null","true","0.2,0.8","4:nogo_d","",""
"null","","html-keyboard-response","630","777850","0.0-8.0-1.16","","<img src=""img/blue-r.png"">","null","trial","null","","0.2,0.8","4:nogo_d","1",""
"null","","html-keyboard-response","631","778851","0.0-8.0-2.16","","<div style=""font-size:60px;"">+</div>","null","","","","","","",""
"743.1799999903888","","image-keyboard-response","632","779594","0.0-8.0-0.17","","img/yellow.png","32","trial","null","false","0.2,0.8","2:nogo_b","",""
"null","","html-keyboard-response","633","780596","0.0-8.0-1.17","","<img src=""img/yellow-n.png"" border=""10"">","null","trial","null","","0.2,0.8","2:nogo_b","0",""
"null","","html-keyboard-response","634","781596","0.0-8.0-2.17","","<div style=""font-size:60px;"">+</div>","null","","","","","","",""
"567.864999989979","","image-keyboard-response","635","782165","0.0-8.0-0.18","","img/pink.png","32","trial","32","true","0.8,0.2","1:go_a","",""
"null","","html-keyboard-response","636","783167","0.0-8.0-1.18","","<img src=""img/pink-r.png"" border=""10"">","null","trial","32","","0.8,0.2","1:go_a","1",""
"null","","html-keyboard-response","637","784167","0.0-8.0-2.18","","<div style=""font-size:60px;"">+</div>","null","","","","","","",""
"456.9300000439398","","image-keyboard-response","638","784625","0.0-8.0-0.19","","img/grey.png","32","trial","32","true","0.8,0.2","3:go_c","",""
"null","","html-keyboard-response","639","785626","0.0-8.0-1.19","","<img src=""img/grey-r.png"" border=""10"">","null","trial","32","","0.8,0.2","3:go_c","1",""
"null","","html-keyboard-response","640","786627","0.0-8.0-2.19","","<div style=""font-size:60px;"">+</div>","null","","","","","","",""
"null","","image-keyboard-response","641","788128","0.0-8.0-0.20","","img/blue.png","null","trial","null","true","0.2,0.8","4:nogo_d","",""
"null","","html-keyboard-response","642","789129","0.0-8.0-1.20","","<img src=""img/blue-r.png"">","null","trial","null","","0.2,0.8","4:nogo_d","1",""
"null","","html-keyboard-response","643","790130","0.0-8.0-2.20","","<div style=""font-size:60px;"">+</div>","null","","","","","","",""
"680.3100000252016","","image-keyboard-response","644","790811","0.0-8.0-0.21","","img/grey.png","32","trial","32","true","0.8,0.2","3:go_c","",""
"null","","html-keyboard-response","645","791812","0.0-8.0-1.21","","<img src=""img/grey-n.png"" border=""10"">","null","trial","32","","0.8,0.2","3:go_c","0",""
"null","","html-keyboard-response","646","792813","0.0-8.0-2.21","","<div style=""font-size:60px;"">+</div>","null","","","","","","",""
"615.6499999924563","","image-keyboard-response","647","793429","0.0-8.0-0.22","","img/pink.png","32","trial","32","true","0.8,0.2","1:go_a","",""
"null","","html-keyboard-response","648","794430","0.0-8.0-1.22","","<img src=""img/pink-r.png"" border=""10"">","null","trial","32","","0.8,0.2","1:go_a","1",""
"null","","html-keyboard-response","649","795431","0.0-8.0-2.22","","<div style=""font-size:60px;"">+</div>","null","","","","","","",""
"null","","image-keyboard-response","650","796932","0.0-8.0-0.23","","img/yellow.png","null","trial","null","true","0.2,0.8","2:nogo_b","",""
"null","","html-keyboard-response","651","797934","0.0-8.0-1.23","","<img src=""img/yellow-r.png"">","null","trial","null","","0.2,0.8","2:nogo_b","1",""
"null","","html-keyboard-response","652","798934","0.0-8.0-2.23","","<div style=""font-size:60px;"">+</div>","null","","","","","","",""
"null","","image-keyboard-response","653","801124","0.0-8.0-0.24","","img/blue.png","null","trial","null","true","0.2,0.8","4:nogo_d","",""
"null","","html-keyboard-response","654","802126","0.0-8.0-1.24","","<img src=""img/blue-n.png"">","null","trial","null","","0.2,0.8","4:nogo_d","0",""
"null","","html-keyboard-response","655","803127","0.0-8.0-2.24","","<div style=""font-size:60px;"">+</div>","null","","","","","","",""
"807.1549999876879","","image-keyboard-response","656","803934","0.0-8.0-0.25","","img/grey.png","32","trial","32","true","0.8,0.2","3:go_c","",""
"null","","html-keyboard-response","657","804936","0.0-8.0-1.25","","<img src=""img/grey-n.png"" border=""10"">","null","trial","32","","0.8,0.2","3:go_c","0",""
"null","","html-keyboard-response","658","805937","0.0-8.0-2.25","","<div style=""font-size:60px;"">+</div>","null","","","","","","",""
"781.0150000150315","","image-keyboard-response","659","806718","0.0-8.0-0.26","","img/pink.png","32","trial","32","true","0.8,0.2","1:go_a","",""
"null","","html-keyboard-response","660","807719","0.0-8.0-1.26","","<img src=""img/pink-r.png"" border=""10"">","null","trial","32","","0.8,0.2","1:go_a","1",""
"null","","html-keyboard-response","661","808721","0.0-8.0-2.26","","<div style=""font-size:60px;"">+</div>","null","","","","","","",""
"733.490000013262","","image-keyboard-response","662","809455","0.0-8.0-0.27","","img/yellow.png","32","trial","null","false","0.2,0.8","2:nogo_b","",""
"null","","html-keyboard-response","663","810457","0.0-8.0-1.27","","<img src=""img/yellow-n.png"" border=""10"">","null","trial","null","","0.2,0.8","2:nogo_b","0",""
"null","","html-keyboard-response","664","811457","0.0-8.0-2.27","","<div style=""font-size:60px;"">+</div>","null","","","","","","",""
"805.4100000299513","","image-keyboard-response","665","812263","0.0-8.0-0.28","","img/pink.png","32","trial","32","true","0.8,0.2","1:go_a","",""
"null","","html-keyboard-response","666","813265","0.0-8.0-1.28","","<img src=""img/pink-r.png"" border=""10"">","null","trial","32","","0.8,0.2","1:go_a","1",""
"null","","html-keyboard-response","667","814266","0.0-8.0-2.28","","<div style=""font-size:60px;"">+</div>","null","","","","","","",""
"null","","image-keyboard-response","668","815766","0.0-8.0-0.29","","img/blue.png","null","trial","null","true","0.2,0.8","4:nogo_d","",""
"null","","html-keyboard-response","669","816768","0.0-8.0-1.29","","<img src=""img/blue-r.png"">","null","trial","null","","0.2,0.8","4:nogo_d","1",""
"null","","html-keyboard-response","670","817769","0.0-8.0-2.29","","<div style=""font-size:60px;"">+</div>","null","","","","","","",""
"687.6150000025518","","image-keyboard-response","671","818457","0.0-8.0-0.30","","img/grey.png","32","trial","32","true","0.8,0.2","3:go_c","",""
"null","","html-keyboard-response","672","819459","0.0-8.0-1.30","","<img src=""img/grey-r.png"" border=""10"">","null","trial","32","","0.8,0.2","3:go_c","1",""
"null","","html-keyboard-response","673","820459","0.0-8.0-2.30","","<div style=""font-size:60px;"">+</div>","null","","","","","","",""
"null","","image-keyboard-response","674","821960","0.0-8.0-0.31","","img/yellow.png","null","trial","null","true","0.2,0.8","2:nogo_b","",""
"null","","html-keyboard-response","675","822962","0.0-8.0-1.31","","<img src=""img/yellow-r.png"">","null","trial","null","","0.2,0.8","2:nogo_b","1",""
"null","","html-keyboard-response","676","823963","0.0-8.0-2.31","","<div style=""font-size:60px;"">+</div>","null","","","","","","",""
"639.5599999814294","","image-keyboard-response","677","824603","0.0-8.0-0.32","","img/pink.png","32","trial","32","true","0.8,0.2","1:go_a","",""
"null","","html-keyboard-response","678","825604","0.0-8.0-1.32","","<img src=""img/pink-r.png"" border=""10"">","null","trial","32","","0.8,0.2","1:go_a","1",""
"null","","html-keyboard-response","679","826605","0.0-8.0-2.32","","<div style=""font-size:60px;"">+</div>","null","","","","","","",""
"null","","image-keyboard-response","680","828106","0.0-8.0-0.33","","img/yellow.png","null","trial","null","true","0.2,0.8","2:nogo_b","",""
