"rt","url","trial_type","trial_index","time_elapsed","internal_node_id","view_history","stimulus","key_press","test_part","correct_response","correct","use_rew","which_stim","reward","responses"
"24774.714999832213","consent.html","external-html","0","25014","0.0-0.0","","","","","","","","","",""
"144681.21000006795","","instructions","1","169695","0.0-1.0","[{""page_index"":0,""viewing_time"":4126.5000000130385},{""page_index"":1,""viewing_time"":43753.52000002749},{""page_index"":2,""viewing_time"":8260.230000130832},{""page_index"":3,""viewing_time"":52450.889999978244},{""page_index"":4,""viewing_time"":14009.945000056177},{""page_index"":5,""viewing_time"":3839.7149997763336},{""page_index"":6,""viewing_time"":18239.700000034645}]","","","","","","","","",""
"null","","image-keyboard-response","2","171203","0.0-2.0-0.0","","img/test2.PNG","null","practice","null","true","","","",""
"null","","html-keyboard-response","3","172214","0.0-2.0-1.0","","<img src=""img/test2-reward.PNG"">","null","","","","","","",""
"null","","html-keyboard-response","4","173224","0.0-2.0-2.0","","<div style=""font-size:60px;"">+</div>","null","","","","","","",""
"418.1999999564141","","image-keyboard-response","5","173643","0.0-2.0-0.1","","img/test1.PNG","32","practice","32","true","","","",""
"null","","html-keyboard-response","6","174646","0.0-2.0-1.1","","<img src=""img/test1-reward.PNG"" border=""10px; grey"">","null","","","","","","",""
"null","","html-keyboard-response","7","175659","0.0-2.0-2.1","","<div style=""font-size:60px;"">+</div>","null","","","","","","",""
"null","","image-keyboard-response","8","177161","0.0-2.0-0.2","","img/test3.PNG","null","practice","null","true","","","",""
"null","","html-keyboard-response","9","178171","0.0-2.0-1.2","","<img src=""img/test3-reward.PNG"">","null","","","","","","",""
"null","","html-keyboard-response","10","179181","0.0-2.0-2.2","","<div style=""font-size:60px;"">+</div>","null","","","","","","",""
"null","","image-keyboard-response","11","180695","0.0-2.0-0.3","","img/test3.PNG","null","practice","null","true","","","",""
"null","","html-keyboard-response","12","181711","0.0-2.0-1.3","","<img src=""img/test3-reward.PNG"">","null","","","","","","",""
"null","","html-keyboard-response","13","182722","0.0-2.0-2.3","","<div style=""font-size:60px;"">+</div>","null","","","","","","",""
"null","","image-keyboard-response","14","184231","0.0-2.0-0.4","","img/test2.PNG","null","practice","null","true","","","",""
"null","","html-keyboard-response","15","185236","0.0-2.0-1.4","","<img src=""img/test2-reward.PNG"">","null","","","","","","",""
"null","","html-keyboard-response","16","186244","0.0-2.0-2.4","","<div style=""font-size:60px;"">+</div>","null","","","","","","",""
"402.2200000472367","","image-keyboard-response","17","186648","0.0-2.0-0.5","","img/test1.PNG","32","practice","32","true","","","",""
"null","","html-keyboard-response","18","187655","0.0-2.0-1.5","","<img src=""img/test1-reward.PNG"" border=""10px; grey"">","null","","","","","","",""
"null","","html-keyboard-response","19","188664","0.0-2.0-2.5","","<div style=""font-size:60px;"">+</div>","null","","","","","","",""
"600.414999993518","","image-keyboard-response","20","189265","0.0-2.0-0.6","","img/test1.PNG","32","practice","32","true","","","",""
"null","","html-keyboard-response","21","190275","0.0-2.0-1.6","","<img src=""img/test1-reward.PNG"" border=""10px; grey"">","null","","","","","","",""
"null","","html-keyboard-response","22","191282","0.0-2.0-2.6","","<div style=""font-size:60px;"">+</div>","null","","","","","","",""
"null","","image-keyboard-response","23","192789","0.0-2.0-0.7","","img/test2.PNG","null","practice","null","true","","","",""
"null","","html-keyboard-response","24","193797","0.0-2.0-1.7","","<img src=""img/test2-reward.PNG"">","null","","","","","","",""
"null","","html-keyboard-response","25","194813","0.0-2.0-2.7","","<div style=""font-size:60px;"">+</div>","null","","","","","","",""
"null","","image-keyboard-response","26","196323","0.0-2.0-0.8","","img/test3.PNG","null","practice","null","true","","","",""
"null","","html-keyboard-response","27","197333","0.0-2.0-1.8","","<img src=""img/test3-reward.PNG"">","null","","","","","","",""
"null","","html-keyboard-response","28","198339","0.0-2.0-2.8","","<div style=""font-size:60px;"">+</div>","null","","","","","","",""
"553.4750001970679","","image-keyboard-response","29","198894","0.0-2.0-0.9","","img/test1.PNG","32","practice","32","true","","","",""
"null","","html-keyboard-response","30","199904","0.0-2.0-1.9","","<img src=""img/test1-reward.PNG"" border=""10px; grey"">","null","","","","","","",""
"null","","html-keyboard-response","31","200915","0.0-2.0-2.9","","<div style=""font-size:60px;"">+</div>","null","","","","","","",""
"null","","image-keyboard-response","32","202418","0.0-2.0-0.10","","img/test2.PNG","null","practice","null","true","","","",""
"null","","html-keyboard-response","33","203425","0.0-2.0-1.10","","<img src=""img/test2-reward.PNG"">","null","","","","","","",""
"null","","html-keyboard-response","34","204433","0.0-2.0-2.10","","<div style=""font-size:60px;"">+</div>","null","","","","","","",""
"null","","image-keyboard-response","35","205938","0.0-2.0-0.11","","img/test3.PNG","null","practice","null","true","","","",""
"null","","html-keyboard-response","36","206949","0.0-2.0-1.11","","<img src=""img/test3-reward.PNG"">","null","","","","","","",""
"null","","html-keyboard-response","37","207958","0.0-2.0-2.11","","<div style=""font-size:60px;"">+</div>","null","","","","","","",""
"4430.685000028461","","instructions","38","212390","0.0-3.0","[{""page_index"":0,""viewing_time"":4430.5750001221895}]","","","","","","","","",""
"472.9700000025332","","image-keyboard-response","39","212864","0.0-4.0-0.0","","img/green.png","32","trial","null","false","0.2,0.8","2:nogo_b","",""
"null","","html-keyboard-response","40","213874","0.0-4.0-1.0","","<img src=""img/green-n.png"" border=""10"">","null","trial","null","","0.2,0.8","2:nogo_b","0",""
"null","","html-keyboard-response","41","214884","0.0-4.0-2.0","","<div style=""font-size:60px;"">+</div>","null","","","","","","",""
"496.9599999021739","","image-keyboard-response","42","215382","0.0-4.0-0.1","","img/purple.png","32","trial","32","true","0.8,0.2","1:go_a","",""
"null","","html-keyboard-response","43","216387","0.0-4.0-1.1","","<img src=""img/purple-r.png"" border=""10"">","null","trial","32","","0.8,0.2","1:go_a","1",""
"null","","html-keyboard-response","44","217395","0.0-4.0-2.1","","<div style=""font-size:60px;"">+</div>","null","","","","","","",""
"410.619999980554","","image-keyboard-response","45","217807","0.0-4.0-0.2","","img/green.png","32","trial","null","false","0.2,0.8","2:nogo_b","",""
"null","","html-keyboard-response","46","218821","0.0-4.0-1.2","","<img src=""img/green-n.png"" border=""10"">","null","trial","null","","0.2,0.8","2:nogo_b","0",""
"null","","html-keyboard-response","47","219829","0.0-4.0-2.2","","<div style=""font-size:60px;"">+</div>","null","","","","","","",""
"443.3899999130517","","image-keyboard-response","48","220274","0.0-4.0-0.3","","img/purple.png","32","trial","32","true","0.8,0.2","1:go_a","",""
"null","","html-keyboard-response","49","221289","0.0-4.0-1.3","","<img src=""img/purple-r.png"" border=""10"">","null","trial","32","","0.8,0.2","1:go_a","1",""
"null","","html-keyboard-response","50","222299","0.0-4.0-2.3","","<div style=""font-size:60px;"">+</div>","null","","","","","","",""
"545.1050000265241","","image-keyboard-response","51","222846","0.0-4.0-0.4","","img/purple.png","32","trial","32","true","0.8,0.2","1:go_a","",""
"null","","html-keyboard-response","52","223861","0.0-4.0-1.4","","<img src=""img/purple-r.png"" border=""10"">","null","trial","32","","0.8,0.2","1:go_a","1",""
"null","","html-keyboard-response","53","224870","0.0-4.0-2.4","","<div style=""font-size:60px;"">+</div>","null","","","","","","",""
"null","","image-keyboard-response","54","226376","0.0-4.0-0.5","","img/green.png","null","trial","null","true","0.2,0.8","2:nogo_b","",""
"null","","html-keyboard-response","55","227384","0.0-4.0-1.5","","<img src=""img/green-r.png"">","null","trial","null","","0.2,0.8","2:nogo_b","1",""
"null","","html-keyboard-response","56","228392","0.0-4.0-2.5","","<div style=""font-size:60px;"">+</div>","null","","","","","","",""
"null","","image-keyboard-response","57","229896","0.0-4.0-0.6","","img/green.png","null","trial","null","true","0.2,0.8","2:nogo_b","",""
"null","","html-keyboard-response","58","230902","0.0-4.0-1.6","","<img src=""img/green-r.png"">","null","trial","null","","0.2,0.8","2:nogo_b","1",""
"null","","html-keyboard-response","59","231913","0.0-4.0-2.6","","<div style=""font-size:60px;"">+</div>","null","","","","","","",""
"623.0049999430776","","image-keyboard-response","60","232536","0.0-4.0-0.7","","img/purple.png","32","trial","32","true","0.8,0.2","1:go_a","",""
"null","","html-keyboard-response","61","233542","0.0-4.0-1.7","","<img src=""img/purple-r.png"" border=""10"">","null","trial","32","","0.8,0.2","1:go_a","1",""
"null","","html-keyboard-response","62","234545","0.0-4.0-2.7","","<div style=""font-size:60px;"">+</div>","null","","","","","","",""
"431.4850000664592","","image-keyboard-response","63","234978","0.0-4.0-0.8","","img/green.png","32","trial","null","false","0.2,0.8","2:nogo_b","",""
"null","","html-keyboard-response","64","235990","0.0-4.0-1.8","","<img src=""img/green-n.png"" border=""10"">","null","trial","null","","0.2,0.8","2:nogo_b","0",""
"null","","html-keyboard-response","65","237006","0.0-4.0-2.8","","<div style=""font-size:60px;"">+</div>","null","","","","","","",""
"1069.405000191182","","image-keyboard-response","66","238077","0.0-4.0-0.9","","img/purple.png","32","trial","32","true","0.8,0.2","1:go_a","",""
"null","","html-keyboard-response","67","239092","0.0-4.0-1.9","","<img src=""img/purple-r.png"" border=""10"">","null","trial","32","","0.8,0.2","1:go_a","1",""
"null","","html-keyboard-response","68","240098","0.0-4.0-2.9","","<div style=""font-size:60px;"">+</div>","null","","","","","","",""
"543.2699997909367","","image-keyboard-response","69","240643","0.0-4.0-0.10","","img/purple.png","32","trial","32","true","0.8,0.2","1:go_a","",""
"null","","html-keyboard-response","70","241661","0.0-4.0-1.10","","<img src=""img/purple-n.png"" border=""10"">","null","trial","32","","0.8,0.2","1:go_a","0",""
"null","","html-keyboard-response","71","242672","0.0-4.0-2.10","","<div style=""font-size:60px;"">+</div>","null","","","","","","",""
"412.3700000345707","","image-keyboard-response","72","243086","0.0-4.0-0.11","","img/green.png","32","trial","null","false","0.2,0.8","2:nogo_b","",""
"null","","html-keyboard-response","73","244095","0.0-4.0-1.11","","<img src=""img/green-n.png"" border=""10"">","null","trial","null","","0.2,0.8","2:nogo_b","0",""
"null","","html-keyboard-response","74","245103","0.0-4.0-2.11","","<div style=""font-size:60px;"">+</div>","null","","","","","","",""
"468.16500020213425","","image-keyboard-response","75","245572","0.0-4.0-0.12","","img/green.png","32","trial","null","false","0.2,0.8","2:nogo_b","",""
"null","","html-keyboard-response","76","246578","0.0-4.0-1.12","","<img src=""img/green-r.png"" border=""10"">","null","trial","null","","0.2,0.8","2:nogo_b","1",""
"null","","html-keyboard-response","77","247582","0.0-4.0-2.12","","<div style=""font-size:60px;"">+</div>","null","","","","","","",""
"411.99500020593405","","image-keyboard-response","78","247995","0.0-4.0-0.13","","img/purple.png","32","trial","32","true","0.8,0.2","1:go_a","",""
"null","","html-keyboard-response","79","249009","0.0-4.0-1.13","","<img src=""img/purple-r.png"" border=""10"">","null","trial","32","","0.8,0.2","1:go_a","1",""
"null","","html-keyboard-response","80","250021","0.0-4.0-2.13","","<div style=""font-size:60px;"">+</div>","null","","","","","","",""
"441.6100000962615","","image-keyboard-response","81","250465","0.0-4.0-0.14","","img/green.png","32","trial","null","false","0.2,0.8","2:nogo_b","",""
"null","","html-keyboard-response","82","251472","0.0-4.0-1.14","","<img src=""img/green-n.png"" border=""10"">","null","trial","null","","0.2,0.8","2:nogo_b","0",""
"null","","html-keyboard-response","83","252483","0.0-4.0-2.14","","<div style=""font-size:60px;"">+</div>","null","","","","","","",""
"449.60499997250736","","image-keyboard-response","84","252934","0.0-4.0-0.15","","img/purple.png","32","trial","32","true","0.8,0.2","1:go_a","",""
"null","","html-keyboard-response","85","253943","0.0-4.0-1.15","","<img src=""img/purple-r.png"" border=""10"">","null","trial","32","","0.8,0.2","1:go_a","1",""
"null","","html-keyboard-response","86","254959","0.0-4.0-2.15","","<div style=""font-size:60px;"">+</div>","null","","","","","","",""
"571.4650000445545","","image-keyboard-response","87","255532","0.0-4.0-0.16","","img/purple.png","32","trial","32","true","0.8,0.2","1:go_a","",""
"null","","html-keyboard-response","88","256544","0.0-4.0-1.16","","<img src=""img/purple-r.png"" border=""10"">","null","trial","32","","0.8,0.2","1:go_a","1",""
"null","","html-keyboard-response","89","257553","0.0-4.0-2.16","","<div style=""font-size:60px;"">+</div>","null","","","","","","",""
"550.8699999190867","","image-keyboard-response","90","258105","0.0-4.0-0.17","","img/green.png","32","trial","null","false","0.2,0.8","2:nogo_b","",""
"null","","html-keyboard-response","91","259116","0.0-4.0-1.17","","<img src=""img/green-n.png"" border=""10"">","null","trial","null","","0.2,0.8","2:nogo_b","0",""
"null","","html-keyboard-response","92","260128","0.0-4.0-2.17","","<div style=""font-size:60px;"">+</div>","null","","","","","","",""
"375.84000010974705","","image-keyboard-response","93","260504","0.0-4.0-0.18","","img/purple.png","32","trial","32","true","0.8,0.2","1:go_a","",""
"null","","html-keyboard-response","94","261517","0.0-4.0-1.18","","<img src=""img/purple-r.png"" border=""10"">","null","trial","32","","0.8,0.2","1:go_a","1",""
"null","","html-keyboard-response","95","262526","0.0-4.0-2.18","","<div style=""font-size:60px;"">+</div>","null","","","","","","",""
"452.1850000601262","","image-keyboard-response","96","262979","0.0-4.0-0.19","","img/green.png","32","trial","null","false","0.2,0.8","2:nogo_b","",""
"null","","html-keyboard-response","97","263988","0.0-4.0-1.19","","<img src=""img/green-n.png"" border=""10"">","null","trial","null","","0.2,0.8","2:nogo_b","0",""
"null","","html-keyboard-response","98","264997","0.0-4.0-2.19","","<div style=""font-size:60px;"">+</div>","null","","","","","","",""
"536.3900000229478","","image-keyboard-response","99","265534","0.0-4.0-0.20","","img/purple.png","32","trial","32","true","0.8,0.2","1:go_a","",""
"null","","html-keyboard-response","100","266543","0.0-4.0-1.20","","<img src=""img/purple-r.png"" border=""10"">","null","trial","32","","0.8,0.2","1:go_a","1",""
"null","","html-keyboard-response","101","267549","0.0-4.0-2.20","","<div style=""font-size:60px;"">+</div>","null","","","","","","",""
"null","","image-keyboard-response","102","269051","0.0-4.0-0.21","","img/green.png","null","trial","null","true","0.2,0.8","2:nogo_b","",""
"null","","html-keyboard-response","103","270060","0.0-4.0-1.21","","<img src=""img/green-r.png"">","null","trial","null","","0.2,0.8","2:nogo_b","1",""
"null","","html-keyboard-response","104","271068","0.0-4.0-2.21","","<div style=""font-size:60px;"">+</div>","null","","","","","","",""
"422.07999993115664","","image-keyboard-response","105","271491","0.0-4.0-0.22","","img/green.png","32","trial","null","false","0.2,0.8","2:nogo_b","",""
"null","","html-keyboard-response","106","272495","0.0-4.0-1.22","","<img src=""img/green-n.png"" border=""10"">","null","trial","null","","0.2,0.8","2:nogo_b","0",""
"null","","html-keyboard-response","107","273501","0.0-4.0-2.22","","<div style=""font-size:60px;"">+</div>","null","","","","","","",""
"375.51499996334314","","image-keyboard-response","108","273878","0.0-4.0-0.23","","img/purple.png","32","trial","32","true","0.8,0.2","1:go_a","",""
"null","","html-keyboard-response","109","274891","0.0-4.0-1.23","","<img src=""img/purple-r.png"" border=""10"">","null","trial","32","","0.8,0.2","1:go_a","1",""
"null","","html-keyboard-response","110","275899","0.0-4.0-2.23","","<div style=""font-size:60px;"">+</div>","null","","","","","","",""
"518.7349999323487","","image-keyboard-response","111","276418","0.0-4.0-0.24","","img/purple.png","32","trial","32","true","0.8,0.2","1:go_a","",""
"null","","html-keyboard-response","112","277440","0.0-4.0-1.24","","<img src=""img/purple-r.png"" border=""10"">","null","trial","32","","0.8,0.2","1:go_a","1",""
"null","","html-keyboard-response","113","278452","0.0-4.0-2.24","","<div style=""font-size:60px;"">+</div>","null","","","","","","",""
"null","","image-keyboard-response","114","279968","0.0-4.0-0.25","","img/green.png","null","trial","null","true","0.2,0.8","2:nogo_b","",""
"null","","html-keyboard-response","115","280975","0.0-4.0-1.25","","<img src=""img/green-r.png"">","null","trial","null","","0.2,0.8","2:nogo_b","1",""
"null","","html-keyboard-response","116","281981","0.0-4.0-2.25","","<div style=""font-size:60px;"">+</div>","null","","","","","","",""
"null","","image-keyboard-response","117","283488","0.0-4.0-0.26","","img/green.png","null","trial","null","true","0.2,0.8","2:nogo_b","",""
"null","","html-keyboard-response","118","284497","0.0-4.0-1.26","","<img src=""img/green-r.png"">","null","trial","null","","0.2,0.8","2:nogo_b","1",""
"null","","html-keyboard-response","119","285505","0.0-4.0-2.26","","<div style=""font-size:60px;"">+</div>","null","","","","","","",""
"392.6549998577684","","image-keyboard-response","120","285899","0.0-4.0-0.27","","img/purple.png","32","trial","32","true","0.8,0.2","1:go_a","",""
"null","","html-keyboard-response","121","286914","0.0-4.0-1.27","","<img src=""img/purple-r.png"" border=""10"">","null","trial","32","","0.8,0.2","1:go_a","1",""
"null","","html-keyboard-response","122","287924","0.0-4.0-2.27","","<div style=""font-size:60px;"">+</div>","null","","","","","","",""
"490.75000011362135","","image-keyboard-response","123","288416","0.0-4.0-0.28","","img/purple.png","32","trial","32","true","0.8,0.2","1:go_a","",""
"null","","html-keyboard-response","124","289425","0.0-4.0-1.28","","<img src=""img/purple-r.png"" border=""10"">","null","trial","32","","0.8,0.2","1:go_a","1",""
"null","","html-keyboard-response","125","290433","0.0-4.0-2.28","","<div style=""font-size:60px;"">+</div>","null","","","","","","",""
"423.5099998768419","","image-keyboard-response","126","290857","0.0-4.0-0.29","","img/green.png","32","trial","null","false","0.2,0.8","2:nogo_b","",""
"null","","html-keyboard-response","127","291871","0.0-4.0-1.29","","<img src=""img/green-n.png"" border=""10"">","null","trial","null","","0.2,0.8","2:nogo_b","0",""
"null","","html-keyboard-response","128","292880","0.0-4.0-2.29","","<div style=""font-size:60px;"">+</div>","null","","","","","","",""
"446.3550001382828","","image-keyboard-response","129","293327","0.0-4.0-0.30","","img/purple.png","32","trial","32","true","0.8,0.2","1:go_a","",""
"null","","html-keyboard-response","130","294339","0.0-4.0-1.30","","<img src=""img/purple-r.png"" border=""10"">","null","trial","32","","0.8,0.2","1:go_a","1",""
"null","","html-keyboard-response","131","295348","0.0-4.0-2.30","","<div style=""font-size:60px;"">+</div>","null","","","","","","",""
"null","","image-keyboard-response","132","296864","0.0-4.0-0.31","","img/green.png","null","trial","null","true","0.2,0.8","2:nogo_b","",""
"null","","html-keyboard-response","133","297879","0.0-4.0-1.31","","<img src=""img/green-r.png"">","null","trial","null","","0.2,0.8","2:nogo_b","1",""
"null","","html-keyboard-response","134","298883","0.0-4.0-2.31","","<div style=""font-size:60px;"">+</div>","null","","","","","","",""
"436.2299998756498","","image-keyboard-response","135","299320","0.0-4.0-0.32","","img/purple.png","32","trial","32","true","0.8,0.2","1:go_a","",""
"null","","html-keyboard-response","136","300328","0.0-4.0-1.32","","<img src=""img/purple-r.png"" border=""10"">","null","trial","32","","0.8,0.2","1:go_a","1",""
"null","","html-keyboard-response","137","301337","0.0-4.0-2.32","","<div style=""font-size:60px;"">+</div>","null","","","","","","",""
"529.1350001934916","","image-keyboard-response","138","301867","0.0-4.0-0.33","","img/green.png","32","trial","null","false","0.2,0.8","2:nogo_b","",""
"null","","html-keyboard-response","139","302872","0.0-4.0-1.33","","<img src=""img/green-n.png"" border=""10"">","null","trial","null","","0.2,0.8","2:nogo_b","0",""
"null","","html-keyboard-response","140","303887","0.0-4.0-2.33","","<div style=""font-size:60px;"">+</div>","null","","","","","","",""
"661.8300001136959","","image-keyboard-response","141","304550","0.0-4.0-0.34","","img/green.png","32","trial","null","false","0.2,0.8","2:nogo_b","",""
"null","","html-keyboard-response","142","305558","0.0-4.0-1.34","","<img src=""img/green-n.png"" border=""10"">","null","trial","null","","0.2,0.8","2:nogo_b","0",""
"null","","html-keyboard-response","143","306566","0.0-4.0-2.34","","<div style=""font-size:60px;"">+</div>","null","","","","","","",""
"574.239999987185","","image-keyboard-response","144","307141","0.0-4.0-0.35","","img/purple.png","32","trial","32","true","0.8,0.2","1:go_a","",""
"null","","html-keyboard-response","145","308146","0.0-4.0-1.35","","<img src=""img/purple-n.png"" border=""10"">","null","trial","32","","0.8,0.2","1:go_a","0",""
"null","","html-keyboard-response","146","309156","0.0-4.0-2.35","","<div style=""font-size:60px;"">+</div>","null","","","","","","",""
"426.4850001782179","","image-keyboard-response","147","309584","0.0-4.0-0.36","","img/green.png","32","trial","null","false","0.2,0.8","2:nogo_b","",""
"null","","html-keyboard-response","148","310599","0.0-4.0-1.36","","<img src=""img/green-n.png"" border=""10"">","null","trial","null","","0.2,0.8","2:nogo_b","0",""
"null","","html-keyboard-response","149","311610","0.0-4.0-2.36","","<div style=""font-size:60px;"">+</div>","null","","","","","","",""
"358.90000010840595","","image-keyboard-response","150","311970","0.0-4.0-0.37","","img/purple.png","32","trial","32","true","0.8,0.2","1:go_a","",""
"null","","html-keyboard-response","151","312987","0.0-4.0-1.37","","<img src=""img/purple-r.png"" border=""10"">","null","trial","32","","0.8,0.2","1:go_a","1",""
"null","","html-keyboard-response","152","313998","0.0-4.0-2.37","","<div style=""font-size:60px;"">+</div>","null","","","","","","",""
"null","","image-keyboard-response","153","315502","0.0-4.0-0.38","","img/green.png","null","trial","null","true","0.2,0.8","2:nogo_b","",""
"null","","html-keyboard-response","154","316510","0.0-4.0-1.38","","<img src=""img/green-r.png"">","null","trial","null","","0.2,0.8","2:nogo_b","1",""
"null","","html-keyboard-response","155","317528","0.0-4.0-2.38","","<div style=""font-size:60px;"">+</div>","null","","","","","","",""
"473.1350000947714","","image-keyboard-response","156","318002","0.0-4.0-0.39","","img/purple.png","32","trial","32","true","0.8,0.2","1:go_a","",""
"null","","html-keyboard-response","157","319010","0.0-4.0-1.39","","<img src=""img/purple-r.png"" border=""10"">","null","trial","32","","0.8,0.2","1:go_a","1",""
"null","","html-keyboard-response","158","320017","0.0-4.0-2.39","","<div style=""font-size:60px;"">+</div>","null","","","","","","",""
"465.7199999783188","","image-keyboard-response","159","320484","0.0-4.0-0.40","","img/purple.png","32","trial","32","true","0.8,0.2","1:go_a","",""
"null","","html-keyboard-response","160","321500","0.0-4.0-1.40","","<img src=""img/purple-r.png"" border=""10"">","null","trial","32","","0.8,0.2","1:go_a","1",""
"null","","html-keyboard-response","161","322505","0.0-4.0-2.40","","<div style=""font-size:60px;"">+</div>","null","","","","","","",""
"null","","image-keyboard-response","162","324008","0.0-4.0-0.41","","img/green.png","null","trial","null","true","0.2,0.8","2:nogo_b","",""
"null","","html-keyboard-response","163","325020","0.0-4.0-1.41","","<img src=""img/green-r.png"">","null","trial","null","","0.2,0.8","2:nogo_b","1",""
"null","","html-keyboard-response","164","326028","0.0-4.0-2.41","","<div style=""font-size:60px;"">+</div>","null","","","","","","",""
"437.5249999575317","","image-keyboard-response","165","326466","0.0-4.0-0.42","","img/purple.png","32","trial","32","true","0.8,0.2","1:go_a","",""
"null","","html-keyboard-response","166","327472","0.0-4.0-1.42","","<img src=""img/purple-r.png"" border=""10"">","null","trial","32","","0.8,0.2","1:go_a","1",""
"null","","html-keyboard-response","167","328483","0.0-4.0-2.42","","<div style=""font-size:60px;"">+</div>","null","","","","","","",""
"430.4499998688698","","image-keyboard-response","168","328915","0.0-4.0-0.43","","img/green.png","32","trial","null","false","0.2,0.8","2:nogo_b","",""
"null","","html-keyboard-response","169","329925","0.0-4.0-1.43","","<img src=""img/green-r.png"" border=""10"">","null","trial","null","","0.2,0.8","2:nogo_b","1",""
"null","","html-keyboard-response","170","330933","0.0-4.0-2.43","","<div style=""font-size:60px;"">+</div>","null","","","","","","",""
"396.889999974519","","image-keyboard-response","171","331331","0.0-4.0-0.44","","img/purple.png","32","trial","32","true","0.8,0.2","1:go_a","",""
"null","","html-keyboard-response","172","332349","0.0-4.0-1.44","","<img src=""img/purple-n.png"" border=""10"">","null","trial","32","","0.8,0.2","1:go_a","0",""
"null","","html-keyboard-response","173","333358","0.0-4.0-2.44","","<div style=""font-size:60px;"">+</div>","null","","","","","","",""
"589.2500001937151","","image-keyboard-response","174","333948","0.0-4.0-0.45","","img/green.png","32","trial","null","false","0.2,0.8","2:nogo_b","",""
"null","","html-keyboard-response","175","334967","0.0-4.0-1.45","","<img src=""img/green-n.png"" border=""10"">","null","trial","null","","0.2,0.8","2:nogo_b","0",""
"null","","html-keyboard-response","176","335983","0.0-4.0-2.45","","<div style=""font-size:60px;"">+</div>","null","","","","","","",""
"371.8400001525879","","image-keyboard-response","177","336355","0.0-4.0-0.46","","img/purple.png","32","trial","32","true","0.8,0.2","1:go_a","",""
"null","","html-keyboard-response","178","337367","0.0-4.0-1.46","","<img src=""img/purple-r.png"" border=""10"">","null","trial","32","","0.8,0.2","1:go_a","1",""
"null","","html-keyboard-response","179","338371","0.0-4.0-2.46","","<div style=""font-size:60px;"">+</div>","null","","","","","","",""
"616.0299999173731","","image-keyboard-response","180","338990","0.0-4.0-0.47","","img/green.png","32","trial","null","false","0.2,0.8","2:nogo_b","",""
"null","","html-keyboard-response","181","340003","0.0-4.0-1.47","","<img src=""img/green-n.png"" border=""10"">","null","trial","null","","0.2,0.8","2:nogo_b","0",""
"null","","html-keyboard-response","182","341017","0.0-4.0-2.47","","<div style=""font-size:60px;"">+</div>","null","","","","","","",""
"514.5000000484288","","image-keyboard-response","183","341532","0.0-4.0-0.48","","img/purple.png","32","trial","32","true","0.8,0.2","1:go_a","",""
"null","","html-keyboard-response","184","342535","0.0-4.0-1.48","","<img src=""img/purple-r.png"" border=""10"">","null","trial","32","","0.8,0.2","1:go_a","1",""
"null","","html-keyboard-response","185","343546","0.0-4.0-2.48","","<div style=""font-size:60px;"">+</div>","null","","","","","","",""
"621.8299998436123","","image-keyboard-response","186","344169","0.0-4.0-0.49","","img/green.png","32","trial","null","false","0.2,0.8","2:nogo_b","",""
"null","","html-keyboard-response","187","345171","0.0-4.0-1.49","","<img src=""img/green-n.png"" border=""10"">","null","trial","null","","0.2,0.8","2:nogo_b","0",""
"null","","html-keyboard-response","188","346179","0.0-4.0-2.49","","<div style=""font-size:60px;"">+</div>","null","","","","","","",""
"450.8400000631809","","image-keyboard-response","189","346631","0.0-4.0-0.50","","img/purple.png","32","trial","32","true","0.8,0.2","1:go_a","",""
"null","","html-keyboard-response","190","347637","0.0-4.0-1.50","","<img src=""img/purple-n.png"" border=""10"">","null","trial","32","","0.8,0.2","1:go_a","0",""
"null","","html-keyboard-response","191","348644","0.0-4.0-2.50","","<div style=""font-size:60px;"">+</div>","null","","","","","","",""
"422.51499998383224","","image-keyboard-response","192","349067","0.0-4.0-0.51","","img/green.png","32","trial","null","false","0.2,0.8","2:nogo_b","",""
"null","","html-keyboard-response","193","350072","0.0-4.0-1.51","","<img src=""img/green-n.png"" border=""10"">","null","trial","null","","0.2,0.8","2:nogo_b","0",""
"null","","html-keyboard-response","194","351078","0.0-4.0-2.51","","<div style=""font-size:60px;"">+</div>","null","","","","","","",""
"354.5900001190603","","image-keyboard-response","195","351434","0.0-4.0-0.52","","img/purple.png","32","trial","32","true","0.8,0.2","1:go_a","",""
"null","","html-keyboard-response","196","352437","0.0-4.0-1.52","","<img src=""img/purple-r.png"" border=""10"">","null","trial","32","","0.8,0.2","1:go_a","1",""
"null","","html-keyboard-response","197","353444","0.0-4.0-2.52","","<div style=""font-size:60px;"">+</div>","null","","","","","","",""
"null","","image-keyboard-response","198","354952","0.0-4.0-0.53","","img/green.png","null","trial","null","true","0.2,0.8","2:nogo_b","",""
"null","","html-keyboard-response","199","355955","0.0-4.0-1.53","","<img src=""img/green-n.png"">","null","trial","null","","0.2,0.8","2:nogo_b","0",""
"null","","html-keyboard-response","200","356964","0.0-4.0-2.53","","<div style=""font-size:60px;"">+</div>","null","","","","","","",""
"510.3849999140948","","image-keyboard-response","201","357476","0.0-4.0-0.54","","img/green.png","32","trial","null","false","0.2,0.8","2:nogo_b","",""
"null","","html-keyboard-response","202","358487","0.0-4.0-1.54","","<img src=""img/green-n.png"" border=""10"">","null","trial","null","","0.2,0.8","2:nogo_b","0",""
"null","","html-keyboard-response","203","359494","0.0-4.0-2.54","","<div style=""font-size:60px;"">+</div>","null","","","","","","",""
"402.815000154078","","image-keyboard-response","204","359898","0.0-4.0-0.55","","img/purple.png","32","trial","32","true","0.8,0.2","1:go_a","",""
"null","","html-keyboard-response","205","360913","0.0-4.0-1.55","","<img src=""img/purple-r.png"" border=""10"">","null","trial","32","","0.8,0.2","1:go_a","1",""
"null","","html-keyboard-response","206","361925","0.0-4.0-2.55","","<div style=""font-size:60px;"">+</div>","null","","","","","","",""
"411.4250000566244","","image-keyboard-response","207","362337","0.0-4.0-0.56","","img/purple.png","32","trial","32","true","0.8,0.2","1:go_a","",""
"null","","html-keyboard-response","208","363345","0.0-4.0-1.56","","<img src=""img/purple-r.png"" border=""10"">","null","trial","32","","0.8,0.2","1:go_a","1",""
"null","","html-keyboard-response","209","364352","0.0-4.0-2.56","","<div style=""font-size:60px;"">+</div>","null","","","","","","",""
"516.6949999984354","","image-keyboard-response","210","364870","0.0-4.0-0.57","","img/green.png","32","trial","null","false","0.2,0.8","2:nogo_b","",""
"null","","html-keyboard-response","211","365888","0.0-4.0-1.57","","<img src=""img/green-n.png"" border=""10"">","null","trial","null","","0.2,0.8","2:nogo_b","0",""
"null","","html-keyboard-response","212","366897","0.0-4.0-2.57","","<div style=""font-size:60px;"">+</div>","null","","","","","","",""
"332.89000019431114","","image-keyboard-response","213","367231","0.0-4.0-0.58","","img/purple.png","32","trial","32","true","0.8,0.2","1:go_a","",""
"null","","html-keyboard-response","214","368247","0.0-4.0-1.58","","<img src=""img/purple-r.png"" border=""10"">","null","trial","32","","0.8,0.2","1:go_a","1",""
"null","","html-keyboard-response","215","369256","0.0-4.0-2.58","","<div style=""font-size:60px;"">+</div>","null","","","","","","",""
"null","","image-keyboard-response","216","370761","0.0-4.0-0.59","","img/green.png","null","trial","null","true","0.2,0.8","2:nogo_b","",""
"null","","html-keyboard-response","217","371769","0.0-4.0-1.59","","<img src=""img/green-n.png"">","null","trial","null","","0.2,0.8","2:nogo_b","0",""
"null","","html-keyboard-response","218","372775","0.0-4.0-2.59","","<div style=""font-size:60px;"">+</div>","null","","","","","","",""
"3004.7100000083447","","instructions","219","375780","0.0-5.0","[{""page_index"":0,""viewing_time"":3004.579999949783}]","","","","","","","","",""
"784.6649999264628","","image-keyboard-response","220","376566","0.0-6.0-0.0","","img/yellow.png","32","trial","32","true","0.6,0.4","3:go_c","",""
"null","","html-keyboard-response","221","377575","0.0-6.0-1.0","","<img src=""img/yellow-n.png"" border=""10"">","null","trial","32","","0.6,0.4","3:go_c","0",""
"null","","html-keyboard-response","222","378590","0.0-6.0-2.0","","<div style=""font-size:60px;"">+</div>","null","","","","","","",""
"604.7900000121444","","image-keyboard-response","223","379196","0.0-6.0-0.1","","img/grey.png","32","trial","null","false","0.4,0.6","2:nogo_b","",""
"null","","html-keyboard-response","224","380203","0.0-6.0-1.1","","<img src=""img/grey-n.png"" border=""10"">","null","trial","null","","0.4,0.6","2:nogo_b","0",""
"null","","html-keyboard-response","225","381209","0.0-6.0-2.1","","<div style=""font-size:60px;"">+</div>","null","","","","","","",""
"503.34500009194016","","image-keyboard-response","226","381714","0.0-6.0-0.2","","img/red.png","32","trial","null","false","0.4,0.6","4:nogo_d","",""
"null","","html-keyboard-response","227","382729","0.0-6.0-1.2","","<img src=""img/red-n.png"" border=""10"">","null","trial","null","","0.4,0.6","4:nogo_d","0",""
"null","","html-keyboard-response","228","383734","0.0-6.0-2.2","","<div style=""font-size:60px;"">+</div>","null","","","","","","",""
"754.4799998868257","","image-keyboard-response","229","384491","0.0-6.0-0.3","","img/pink.png","32","trial","32","true","0.6,0.4","1:go_a","",""
"null","","html-keyboard-response","230","385499","0.0-6.0-1.3","","<img src=""img/pink-r.png"" border=""10"">","null","trial","32","","0.6,0.4","1:go_a","1",""
"null","","html-keyboard-response","231","386508","0.0-6.0-2.3","","<div style=""font-size:60px;"">+</div>","null","","","","","","",""
"866.670000134036","","image-keyboard-response","232","387376","0.0-6.0-0.4","","img/red.png","32","trial","null","false","0.4,0.6","4:nogo_d","",""
"null","","html-keyboard-response","233","388384","0.0-6.0-1.4","","<img src=""img/red-n.png"" border=""10"">","null","trial","null","","0.4,0.6","4:nogo_d","0",""
"null","","html-keyboard-response","234","389388","0.0-6.0-2.4","","<div style=""font-size:60px;"">+</div>","null","","","","","","",""
"604.4199999887496","","image-keyboard-response","235","389994","0.0-6.0-0.5","","img/pink.png","32","trial","32","true","0.6,0.4","1:go_a","",""
"null","","html-keyboard-response","236","391003","0.0-6.0-1.5","","<img src=""img/pink-r.png"" border=""10"">","null","trial","32","","0.6,0.4","1:go_a","1",""
"null","","html-keyboard-response","237","392011","0.0-6.0-2.5","","<div style=""font-size:60px;"">+</div>","null","","","","","","",""
"967.8099998272955","","image-keyboard-response","238","392980","0.0-6.0-0.6","","img/yellow.png","32","trial","32","true","0.6,0.4","3:go_c","",""
"null","","html-keyboard-response","239","394002","0.0-6.0-1.6","","<img src=""img/yellow-n.png"" border=""10"">","null","trial","32","","0.6,0.4","3:go_c","0",""
"null","","html-keyboard-response","240","395024","0.0-6.0-2.6","","<div style=""font-size:60px;"">+</div>","null","","","","","","",""
"null","","image-keyboard-response","241","396541","0.0-6.0-0.7","","img/grey.png","null","trial","null","true","0.4,0.6","2:nogo_b","",""
"null","","html-keyboard-response","242","397547","0.0-6.0-1.7","","<img src=""img/grey-r.png"">","null","trial","null","","0.4,0.6","2:nogo_b","1",""
"null","","html-keyboard-response","243","398555","0.0-6.0-2.7","","<div style=""font-size:60px;"">+</div>","null","","","","","","",""
"411.94000001996756","","image-keyboard-response","244","398968","0.0-6.0-0.8","","img/pink.png","32","trial","32","true","0.6,0.4","1:go_a","",""
"null","","html-keyboard-response","245","399981","0.0-6.0-1.8","","<img src=""img/pink-r.png"" border=""10"">","null","trial","32","","0.6,0.4","1:go_a","1",""
"null","","html-keyboard-response","246","400989","0.0-6.0-2.8","","<div style=""font-size:60px;"">+</div>","null","","","","","","",""
"null","","image-keyboard-response","247","402496","0.0-6.0-0.9","","img/yellow.png","null","trial","32","false","0.6,0.4","3:go_c","",""
"null","","html-keyboard-response","248","403505","0.0-6.0-1.9","","<img src=""img/yellow-n.png"">","null","trial","32","","0.6,0.4","3:go_c","0",""
"null","","html-keyboard-response","249","404516","0.0-6.0-2.9","","<div style=""font-size:60px;"">+</div>","null","","","","","","",""
"null","","image-keyboard-response","250","406028","0.0-6.0-0.10","","img/red.png","null","trial","null","true","0.4,0.6","4:nogo_d","",""
"null","","html-keyboard-response","251","407035","0.0-6.0-1.10","","<img src=""img/red-r.png"">","null","trial","null","","0.4,0.6","4:nogo_d","1",""
"null","","html-keyboard-response","252","408044","0.0-6.0-2.10","","<div style=""font-size:60px;"">+</div>","null","","","","","","",""
"974.5350000448525","","image-keyboard-response","253","409022","0.0-6.0-0.11","","img/grey.png","32","trial","null","false","0.4,0.6","2:nogo_b","",""
"null","","html-keyboard-response","254","410028","0.0-6.0-1.11","","<img src=""img/grey-n.png"" border=""10"">","null","trial","null","","0.4,0.6","2:nogo_b","0",""
"null","","html-keyboard-response","255","411033","0.0-6.0-2.11","","<div style=""font-size:60px;"">+</div>","null","","","","","","",""
"511.04000001214445","","image-keyboard-response","256","411546","0.0-6.0-0.12","","img/pink.png","32","trial","32","true","0.6,0.4","1:go_a","",""
"null","","html-keyboard-response","257","412551","0.0-6.0-1.12","","<img src=""img/pink-r.png"" border=""10"">","null","trial","32","","0.6,0.4","1:go_a","1",""
"null","","html-keyboard-response","258","413560","0.0-6.0-2.12","","<div style=""font-size:60px;"">+</div>","null","","","","","","",""
"null","","image-keyboard-response","259","415071","0.0-6.0-0.13","","img/yellow.png","null","trial","32","false","0.6,0.4","3:go_c","",""
"null","","html-keyboard-response","260","416076","0.0-6.0-1.13","","<img src=""img/yellow-n.png"">","null","trial","32","","0.6,0.4","3:go_c","0",""
"null","","html-keyboard-response","261","417085","0.0-6.0-2.13","","<div style=""font-size:60px;"">+</div>","null","","","","","","",""
"762.5100000295788","","image-keyboard-response","262","417850","0.0-6.0-0.14","","img/grey.png","32","trial","null","false","0.4,0.6","2:nogo_b","",""
"null","","html-keyboard-response","263","418855","0.0-6.0-1.14","","<img src=""img/grey-n.png"" border=""10"">","null","trial","null","","0.4,0.6","2:nogo_b","0",""
"null","","html-keyboard-response","264","419863","0.0-6.0-2.14","","<div style=""font-size:60px;"">+</div>","null","","","","","","",""
"null","","image-keyboard-response","265","421370","0.0-6.0-0.15","","img/red.png","null","trial","null","true","0.4,0.6","4:nogo_d","",""
"null","","html-keyboard-response","266","422376","0.0-6.0-1.15","","<img src=""img/red-r.png"">","null","trial","null","","0.4,0.6","4:nogo_d","1",""
"null","","html-keyboard-response","267","423384","0.0-6.0-2.15","","<div style=""font-size:60px;"">+</div>","null","","","","","","",""
"524.6900001075119","","image-keyboard-response","268","423910","0.0-6.0-0.16","","img/pink.png","32","trial","32","true","0.6,0.4","1:go_a","",""
"null","","html-keyboard-response","269","424919","0.0-6.0-1.16","","<img src=""img/pink-n.png"" border=""10"">","null","trial","32","","0.6,0.4","1:go_a","0",""
"null","","html-keyboard-response","270","425924","0.0-6.0-2.16","","<div style=""font-size:60px;"">+</div>","null","","","","","","",""
"null","","image-keyboard-response","271","427439","0.0-6.0-0.17","","img/grey.png","null","trial","null","true","0.4,0.6","2:nogo_b","",""
"null","","html-keyboard-response","272","428447","0.0-6.0-1.17","","<img src=""img/grey-n.png"">","null","trial","null","","0.4,0.6","2:nogo_b","0",""
"null","","html-keyboard-response","273","429456","0.0-6.0-2.17","","<div style=""font-size:60px;"">+</div>","null","","","","","","",""
"770.3999998047948","","image-keyboard-response","274","430229","0.0-6.0-0.18","","img/yellow.png","32","trial","32","true","0.6,0.4","3:go_c","",""
"null","","html-keyboard-response","275","431239","0.0-6.0-1.18","","<img src=""img/yellow-r.png"" border=""10"">","null","trial","32","","0.6,0.4","3:go_c","1",""
"null","","html-keyboard-response","276","432247","0.0-6.0-2.18","","<div style=""font-size:60px;"">+</div>","null","","","","","","",""
"849.2600000463426","","image-keyboard-response","277","433098","0.0-6.0-0.19","","img/red.png","32","trial","null","false","0.4,0.6","4:nogo_d","",""
"null","","html-keyboard-response","278","434104","0.0-6.0-1.19","","<img src=""img/red-r.png"" border=""10"">","null","trial","null","","0.4,0.6","4:nogo_d","1",""
"null","","html-keyboard-response","279","435110","0.0-6.0-2.19","","<div style=""font-size:60px;"">+</div>","null","","","","","","",""
"null","","image-keyboard-response","280","436617","0.0-6.0-0.20","","img/yellow.png","null","trial","32","false","0.6,0.4","3:go_c","",""
"null","","html-keyboard-response","281","437623","0.0-6.0-1.20","","<img src=""img/yellow-r.png"">","null","trial","32","","0.6,0.4","3:go_c","1",""
"null","","html-keyboard-response","282","438634","0.0-6.0-2.20","","<div style=""font-size:60px;"">+</div>","null","","","","","","",""
"549.570000031963","","image-keyboard-response","283","439184","0.0-6.0-0.21","","img/red.png","32","trial","null","false","0.4,0.6","4:nogo_d","",""
"null","","html-keyboard-response","284","440193","0.0-6.0-1.21","","<img src=""img/red-n.png"" border=""10"">","null","trial","null","","0.4,0.6","4:nogo_d","0",""
"null","","html-keyboard-response","285","441203","0.0-6.0-2.21","","<div style=""font-size:60px;"">+</div>","null","","","","","","",""
"633.5750001017004","","image-keyboard-response","286","441838","0.0-6.0-0.22","","img/pink.png","32","trial","32","true","0.6,0.4","1:go_a","",""
"null","","html-keyboard-response","287","442842","0.0-6.0-1.22","","<img src=""img/pink-r.png"" border=""10"">","null","trial","32","","0.6,0.4","1:go_a","1",""
"null","","html-keyboard-response","288","443854","0.0-6.0-2.22","","<div style=""font-size:60px;"">+</div>","null","","","","","","",""
"null","","image-keyboard-response","289","445369","0.0-6.0-0.23","","img/grey.png","null","trial","null","true","0.4,0.6","2:nogo_b","",""
"null","","html-keyboard-response","290","446380","0.0-6.0-1.23","","<img src=""img/grey-r.png"">","null","trial","null","","0.4,0.6","2:nogo_b","1",""
"null","","html-keyboard-response","291","447388","0.0-6.0-2.23","","<div style=""font-size:60px;"">+</div>","null","","","","","","",""
"725.3650000784546","","image-keyboard-response","292","448115","0.0-6.0-0.24","","img/yellow.png","32","trial","32","true","0.6,0.4","3:go_c","",""
"null","","html-keyboard-response","293","449125","0.0-6.0-1.24","","<img src=""img/yellow-r.png"" border=""10"">","null","trial","32","","0.6,0.4","3:go_c","1",""
"null","","html-keyboard-response","294","450136","0.0-6.0-2.24","","<div style=""font-size:60px;"">+</div>","null","","","","","","",""
"638.0499999504536","","image-keyboard-response","295","450774","0.0-6.0-0.25","","img/pink.png","32","trial","32","true","0.6,0.4","1:go_a","",""
"null","","html-keyboard-response","296","451789","0.0-6.0-1.25","","<img src=""img/pink-n.png"" border=""10"">","null","trial","32","","0.6,0.4","1:go_a","0",""
"null","","html-keyboard-response","297","452797","0.0-6.0-2.25","","<div style=""font-size:60px;"">+</div>","null","","","","","","",""
"null","","image-keyboard-response","298","454311","0.0-6.0-0.26","","img/grey.png","null","trial","null","true","0.4,0.6","2:nogo_b","",""
"null","","html-keyboard-response","299","455327","0.0-6.0-1.26","","<img src=""img/grey-r.png"">","null","trial","null","","0.4,0.6","2:nogo_b","1",""
"null","","html-keyboard-response","300","456333","0.0-6.0-2.26","","<div style=""font-size:60px;"">+</div>","null","","","","","","",""
"536.3699998706579","","image-keyboard-response","301","456871","0.0-6.0-0.27","","img/red.png","32","trial","null","false","0.4,0.6","4:nogo_d","",""
"null","","html-keyboard-response","302","457885","0.0-6.0-1.27","","<img src=""img/red-n.png"" border=""10"">","null","trial","null","","0.4,0.6","4:nogo_d","0",""
"null","","html-keyboard-response","303","458892","0.0-6.0-2.27","","<div style=""font-size:60px;"">+</div>","null","","","","","","",""
"712.9300001543015","","image-keyboard-response","304","459609","0.0-6.0-0.28","","img/pink.png","32","trial","32","true","0.6,0.4","1:go_a","",""
"null","","html-keyboard-response","305","460616","0.0-6.0-1.28","","<img src=""img/pink-n.png"" border=""10"">","null","trial","32","","0.6,0.4","1:go_a","0",""
"null","","html-keyboard-response","306","461620","0.0-6.0-2.28","","<div style=""font-size:60px;"">+</div>","null","","","","","","",""
"696.5349998790771","","image-keyboard-response","307","462318","0.0-6.0-0.29","","img/grey.png","32","trial","null","false","0.4,0.6","2:nogo_b","",""
"null","","html-keyboard-response","308","463327","0.0-6.0-1.29","","<img src=""img/grey-n.png"" border=""10"">","null","trial","null","","0.4,0.6","2:nogo_b","0",""
"null","","html-keyboard-response","309","464333","0.0-6.0-2.29","","<div style=""font-size:60px;"">+</div>","null","","","","","","",""
"425.3150001168251","","image-keyboard-response","310","464759","0.0-6.0-0.30","","img/yellow.png","32","trial","32","true","0.6,0.4","3:go_c","",""
"null","","html-keyboard-response","311","465762","0.0-6.0-1.30","","<img src=""img/yellow-r.png"" border=""10"">","null","trial","32","","0.6,0.4","3:go_c","1",""
"null","","html-keyboard-response","312","466771","0.0-6.0-2.30","","<div style=""font-size:60px;"">+</div>","null","","","","","","",""
"772.2699998412281","","image-keyboard-response","313","467544","0.0-6.0-0.31","","img/red.png","32","trial","null","false","0.4,0.6","4:nogo_d","",""
"null","","html-keyboard-response","314","468557","0.0-6.0-1.31","","<img src=""img/red-n.png"" border=""10"">","null","trial","null","","0.4,0.6","4:nogo_d","0",""
"null","","html-keyboard-response","315","469562","0.0-6.0-2.31","","<div style=""font-size:60px;"">+</div>","null","","","","","","",""
"null","","image-keyboard-response","316","471070","0.0-6.0-0.32","","img/yellow.png","null","trial","32","false","0.6,0.4","3:go_c","",""
"null","","html-keyboard-response","317","472077","0.0-6.0-1.32","","<img src=""img/yellow-r.png"">","null","trial","32","","0.6,0.4","3:go_c","1",""
"null","","html-keyboard-response","318","473087","0.0-6.0-2.32","","<div style=""font-size:60px;"">+</div>","null","","","","","","",""
"809.9150001071393","","image-keyboard-response","319","473898","0.0-6.0-0.33","","img/grey.png","32","trial","null","false","0.4,0.6","2:nogo_b","",""
"null","","html-keyboard-response","320","474902","0.0-6.0-1.33","","<img src=""img/grey-n.png"" border=""10"">","null","trial","null","","0.4,0.6","2:nogo_b","0",""
"null","","html-keyboard-response","321","475906","0.0-6.0-2.33","","<div style=""font-size:60px;"">+</div>","null","","","","","","",""
"693.1000000331551","","image-keyboard-response","322","476600","0.0-6.0-0.34","","img/pink.png","32","trial","32","true","0.6,0.4","1:go_a","",""
"null","","html-keyboard-response","323","477609","0.0-6.0-1.34","","<img src=""img/pink-r.png"" border=""10"">","null","trial","32","","0.6,0.4","1:go_a","1",""
"null","","html-keyboard-response","324","478615","0.0-6.0-2.34","","<div style=""font-size:60px;"">+</div>","null","","","","","","",""
"757.6699999626726","","image-keyboard-response","325","479375","0.0-6.0-0.35","","img/red.png","32","trial","null","false","0.4,0.6","4:nogo_d","",""
"null","","html-keyboard-response","326","480381","0.0-6.0-1.35","","<img src=""img/red-r.png"" border=""10"">","null","trial","null","","0.4,0.6","4:nogo_d","1",""
"null","","html-keyboard-response","327","481391","0.0-6.0-2.35","","<div style=""font-size:60px;"">+</div>","null","","","","","","",""
"434.09500014968216","","image-keyboard-response","328","481826","0.0-6.0-0.36","","img/yellow.png","32","trial","32","true","0.6,0.4","3:go_c","",""
"null","","html-keyboard-response","329","482836","0.0-6.0-1.36","","<img src=""img/yellow-r.png"" border=""10"">","null","trial","32","","0.6,0.4","3:go_c","1",""
"null","","html-keyboard-response","330","483846","0.0-6.0-2.36","","<div style=""font-size:60px;"">+</div>","null","","","","","","",""
"null","","image-keyboard-response","331","485348","0.0-6.0-0.37","","img/red.png","null","trial","null","true","0.4,0.6","4:nogo_d","",""
"null","","html-keyboard-response","332","486355","0.0-6.0-1.37","","<img src=""img/red-r.png"">","null","trial","null","","0.4,0.6","4:nogo_d","1",""
"null","","html-keyboard-response","333","487362","0.0-6.0-2.37","","<div style=""font-size:60px;"">+</div>","null","","","","","","",""
"null","","image-keyboard-response","334","488867","0.0-6.0-0.38","","img/grey.png","null","trial","null","true","0.4,0.6","2:nogo_b","",""
"null","","html-keyboard-response","335","489872","0.0-6.0-1.38","","<img src=""img/grey-n.png"">","null","trial","null","","0.4,0.6","2:nogo_b","0",""
"null","","html-keyboard-response","336","490881","0.0-6.0-2.38","","<div style=""font-size:60px;"">+</div>","null","","","","","","",""
"596.4049999602139","","image-keyboard-response","337","491479","0.0-6.0-0.39","","img/pink.png","32","trial","32","true","0.6,0.4","1:go_a","",""
"null","","html-keyboard-response","338","492495","0.0-6.0-1.39","","<img src=""img/pink-r.png"" border=""10"">","null","trial","32","","0.6,0.4","1:go_a","1",""
"null","","html-keyboard-response","339","493503","0.0-6.0-2.39","","<div style=""font-size:60px;"">+</div>","null","","","","","","",""
"668.1550000794232","","image-keyboard-response","340","494172","0.0-6.0-0.40","","img/pink.png","32","trial","32","true","0.6,0.4","1:go_a","",""
"null","","html-keyboard-response","341","495187","0.0-6.0-1.40","","<img src=""img/pink-r.png"" border=""10"">","null","trial","32","","0.6,0.4","1:go_a","1",""
"null","","html-keyboard-response","342","496198","0.0-6.0-2.40","","<div style=""font-size:60px;"">+</div>","null","","","","","","",""
"700.1899997703731","","image-keyboard-response","343","496900","0.0-6.0-0.41","","img/red.png","32","trial","null","false","0.4,0.6","4:nogo_d","",""
"null","","html-keyboard-response","344","497917","0.0-6.0-1.41","","<img src=""img/red-r.png"" border=""10"">","null","trial","null","","0.4,0.6","4:nogo_d","1",""
"null","","html-keyboard-response","345","498923","0.0-6.0-2.41","","<div style=""font-size:60px;"">+</div>","null","","","","","","",""
"null","","image-keyboard-response","346","500427","0.0-6.0-0.42","","img/grey.png","null","trial","null","true","0.4,0.6","2:nogo_b","",""
"null","","html-keyboard-response","347","501434","0.0-6.0-1.42","","<img src=""img/grey-n.png"">","null","trial","null","","0.4,0.6","2:nogo_b","0",""
"null","","html-keyboard-response","348","502440","0.0-6.0-2.42","","<div style=""font-size:60px;"">+</div>","null","","","","","","",""
"459.2399999964982","","image-keyboard-response","349","502901","0.0-6.0-0.43","","img/yellow.png","32","trial","32","true","0.6,0.4","3:go_c","",""
"null","","html-keyboard-response","350","503918","0.0-6.0-1.43","","<img src=""img/yellow-r.png"" border=""10"">","null","trial","32","","0.6,0.4","3:go_c","1",""
"null","","html-keyboard-response","351","504925","0.0-6.0-2.43","","<div style=""font-size:60px;"">+</div>","null","","","","","","",""
"573.4049999155104","","image-keyboard-response","352","505500","0.0-6.0-0.44","","img/pink.png","32","trial","32","true","0.6,0.4","1:go_a","",""
"null","","html-keyboard-response","353","506507","0.0-6.0-1.44","","<img src=""img/pink-r.png"" border=""10"">","null","trial","32","","0.6,0.4","1:go_a","1",""
"null","","html-keyboard-response","354","507518","0.0-6.0-2.44","","<div style=""font-size:60px;"">+</div>","null","","","","","","",""
"620.945000089705","","image-keyboard-response","355","508140","0.0-6.0-0.45","","img/yellow.png","32","trial","32","true","0.6,0.4","3:go_c","",""
"null","","html-keyboard-response","356","509145","0.0-6.0-1.45","","<img src=""img/yellow-n.png"" border=""10"">","null","trial","32","","0.6,0.4","3:go_c","0",""
"null","","html-keyboard-response","357","510153","0.0-6.0-2.45","","<div style=""font-size:60px;"">+</div>","null","","","","","","",""
"null","","image-keyboard-response","358","511655","0.0-6.0-0.46","","img/grey.png","null","trial","null","true","0.4,0.6","2:nogo_b","",""
"null","","html-keyboard-response","359","512664","0.0-6.0-1.46","","<img src=""img/grey-r.png"">","null","trial","null","","0.4,0.6","2:nogo_b","1",""
"null","","html-keyboard-response","360","513670","0.0-6.0-2.46","","<div style=""font-size:60px;"">+</div>","null","","","","","","",""
"542.7299998700619","","image-keyboard-response","361","514214","0.0-6.0-0.47","","img/red.png","32","trial","null","false","0.4,0.6","4:nogo_d","",""
"null","","html-keyboard-response","362","515228","0.0-6.0-1.47","","<img src=""img/red-r.png"" border=""10"">","null","trial","null","","0.4,0.6","4:nogo_d","1",""
"null","","html-keyboard-response","363","516238","0.0-6.0-2.47","","<div style=""font-size:60px;"">+</div>","null","","","","","","",""
"758.1050000153482","","image-keyboard-response","364","516997","0.0-6.0-0.48","","img/yellow.png","32","trial","32","true","0.6,0.4","3:go_c","",""
"null","","html-keyboard-response","365","518002","0.0-6.0-1.48","","<img src=""img/yellow-n.png"" border=""10"">","null","trial","32","","0.6,0.4","3:go_c","0",""
"null","","html-keyboard-response","366","519005","0.0-6.0-2.48","","<div style=""font-size:60px;"">+</div>","null","","","","","","",""
"580.8600001037121","","image-keyboard-response","367","519587","0.0-6.0-0.49","","img/grey.png","32","trial","null","false","0.4,0.6","2:nogo_b","",""
"null","","html-keyboard-response","368","520603","0.0-6.0-1.49","","<img src=""img/grey-n.png"" border=""10"">","null","trial","null","","0.4,0.6","2:nogo_b","0",""
"null","","html-keyboard-response","369","521613","0.0-6.0-2.49","","<div style=""font-size:60px;"">+</div>","null","","","","","","",""
"778.1449998728931","","image-keyboard-response","370","522393","0.0-6.0-0.50","","img/red.png","32","trial","null","false","0.4,0.6","4:nogo_d","",""
"null","","html-keyboard-response","371","523397","0.0-6.0-1.50","","<img src=""img/red-n.png"" border=""10"">","null","trial","null","","0.4,0.6","4:nogo_d","0",""
"null","","html-keyboard-response","372","524407","0.0-6.0-2.50","","<div style=""font-size:60px;"">+</div>","null","","","","","","",""
"604.9399999901652","","image-keyboard-response","373","525014","0.0-6.0-0.51","","img/pink.png","32","trial","32","true","0.6,0.4","1:go_a","",""
"null","","html-keyboard-response","374","526021","0.0-6.0-1.51","","<img src=""img/pink-n.png"" border=""10"">","null","trial","32","","0.6,0.4","1:go_a","0",""
"null","","html-keyboard-response","375","527030","0.0-6.0-2.51","","<div style=""font-size:60px;"">+</div>","null","","","","","","",""
"509.72500001080334","","image-keyboard-response","376","527541","0.0-6.0-0.52","","img/red.png","32","trial","null","false","0.4,0.6","4:nogo_d","",""
"null","","html-keyboard-response","377","528555","0.0-6.0-1.52","","<img src=""img/red-r.png"" border=""10"">","null","trial","null","","0.4,0.6","4:nogo_d","1",""
"null","","html-keyboard-response","378","529566","0.0-6.0-2.52","","<div style=""font-size:60px;"">+</div>","null","","","","","","",""
"891.4950001053512","","image-keyboard-response","379","530459","0.0-6.0-0.53","","img/pink.png","32","trial","32","true","0.6,0.4","1:go_a","",""
"null","","html-keyboard-response","380","531475","0.0-6.0-1.53","","<img src=""img/pink-r.png"" border=""10"">","null","trial","32","","0.6,0.4","1:go_a","1",""
"null","","html-keyboard-response","381","532484","0.0-6.0-2.53","","<div style=""font-size:60px;"">+</div>","null","","","","","","",""
"1373.8550001289696","","image-keyboard-response","382","533859","0.0-6.0-0.54","","img/yellow.png","32","trial","32","true","0.6,0.4","3:go_c","",""
"null","","html-keyboard-response","383","534875","0.0-6.0-1.54","","<img src=""img/yellow-r.png"" border=""10"">","null","trial","32","","0.6,0.4","3:go_c","1",""
"null","","html-keyboard-response","384","535886","0.0-6.0-2.54","","<div style=""font-size:60px;"">+</div>","null","","","","","","",""
"883.8599999435246","","image-keyboard-response","385","536771","0.0-6.0-0.55","","img/grey.png","32","trial","null","false","0.4,0.6","2:nogo_b","",""
"null","","html-keyboard-response","386","537780","0.0-6.0-1.55","","<img src=""img/grey-n.png"" border=""10"">","null","trial","null","","0.4,0.6","2:nogo_b","0",""
"null","","html-keyboard-response","387","538795","0.0-6.0-2.55","","<div style=""font-size:60px;"">+</div>","null","","","","","","",""
"617.5049999728799","","image-keyboard-response","388","539414","0.0-6.0-0.56","","img/red.png","32","trial","null","false","0.4,0.6","4:nogo_d","",""
"null","","html-keyboard-response","389","540416","0.0-6.0-1.56","","<img src=""img/red-r.png"" border=""10"">","null","trial","null","","0.4,0.6","4:nogo_d","1",""
"null","","html-keyboard-response","390","541427","0.0-6.0-2.56","","<div style=""font-size:60px;"">+</div>","null","","","","","","",""
"480.5099999066442","","image-keyboard-response","391","541909","0.0-6.0-0.57","","img/pink.png","32","trial","32","true","0.6,0.4","1:go_a","",""
"null","","html-keyboard-response","392","542915","0.0-6.0-1.57","","<img src=""img/pink-r.png"" border=""10"">","null","trial","32","","0.6,0.4","1:go_a","1",""
"null","","html-keyboard-response","393","543924","0.0-6.0-2.57","","<div style=""font-size:60px;"">+</div>","null","","","","","","",""
"564.8749999236315","","image-keyboard-response","394","544491","0.0-6.0-0.58","","img/yellow.png","32","trial","32","true","0.6,0.4","3:go_c","",""
"null","","html-keyboard-response","395","545507","0.0-6.0-1.58","","<img src=""img/yellow-n.png"" border=""10"">","null","trial","32","","0.6,0.4","3:go_c","0",""
"null","","html-keyboard-response","396","546512","0.0-6.0-2.58","","<div style=""font-size:60px;"">+</div>","null","","","","","","",""
"641.8800000101328","","image-keyboard-response","397","547155","0.0-6.0-0.59","","img/grey.png","32","trial","null","false","0.4,0.6","2:nogo_b","",""
"null","","html-keyboard-response","398","548170","0.0-6.0-1.59","","<img src=""img/grey-r.png"" border=""10"">","null","trial","null","","0.4,0.6","2:nogo_b","1",""
"null","","html-keyboard-response","399","549180","0.0-6.0-2.59","","<div style=""font-size:60px;"">+</div>","null","","","","","","",""
"626.945000141859","","image-keyboard-response","400","549809","0.0-6.0-0.60","","img/yellow.png","32","trial","32","true","0.6,0.4","3:go_c","",""
"null","","html-keyboard-response","401","550822","0.0-6.0-1.60","","<img src=""img/yellow-r.png"" border=""10"">","null","trial","32","","0.6,0.4","3:go_c","1",""
"null","","html-keyboard-response","402","551831","0.0-6.0-2.60","","<div style=""font-size:60px;"">+</div>","null","","","","","","",""
"672.2550000995398","","image-keyboard-response","403","552504","0.0-6.0-0.61","","img/grey.png","32","trial","null","false","0.4,0.6","2:nogo_b","",""
"null","","html-keyboard-response","404","553518","0.0-6.0-1.61","","<img src=""img/grey-r.png"" border=""10"">","null","trial","null","","0.4,0.6","2:nogo_b","1",""
"null","","html-keyboard-response","405","554524","0.0-6.0-2.61","","<div style=""font-size:60px;"">+</div>","null","","","","","","",""
"null","","image-keyboard-response","406","556040","0.0-6.0-0.62","","img/red.png","null","trial","null","true","0.4,0.6","4:nogo_d","",""
"null","","html-keyboard-response","407","557050","0.0-6.0-1.62","","<img src=""img/red-r.png"">","null","trial","null","","0.4,0.6","4:nogo_d","1",""
"null","","html-keyboard-response","408","558054","0.0-6.0-2.62","","<div style=""font-size:60px;"">+</div>","null","","","","","","",""
"632.8400000929832","","image-keyboard-response","409","558689","0.0-6.0-0.63","","img/pink.png","32","trial","32","true","0.6,0.4","1:go_a","",""
"null","","html-keyboard-response","410","559695","0.0-6.0-1.63","","<img src=""img/pink-r.png"" border=""10"">","null","trial","32","","0.6,0.4","1:go_a","1",""
"null","","html-keyboard-response","411","560700","0.0-6.0-2.63","","<div style=""font-size:60px;"">+</div>","null","","","","","","",""
"630.0950001459569","","image-keyboard-response","412","561331","0.0-6.0-0.64","","img/pink.png","32","trial","32","true","0.6,0.4","1:go_a","",""
"null","","html-keyboard-response","413","562340","0.0-6.0-1.64","","<img src=""img/pink-n.png"" border=""10"">","null","trial","32","","0.6,0.4","1:go_a","0",""
"null","","html-keyboard-response","414","563355","0.0-6.0-2.64","","<div style=""font-size:60px;"">+</div>","null","","","","","","",""
"642.27500022389","","image-keyboard-response","415","563998","0.0-6.0-0.65","","img/grey.png","32","trial","null","false","0.4,0.6","2:nogo_b","",""
"null","","html-keyboard-response","416","565004","0.0-6.0-1.65","","<img src=""img/grey-n.png"" border=""10"">","null","trial","null","","0.4,0.6","2:nogo_b","0",""
"null","","html-keyboard-response","417","566011","0.0-6.0-2.65","","<div style=""font-size:60px;"">+</div>","null","","","","","","",""
"574.5299998670816","","image-keyboard-response","418","566587","0.0-6.0-0.66","","img/yellow.png","32","trial","32","true","0.6,0.4","3:go_c","",""
"null","","html-keyboard-response","419","567597","0.0-6.0-1.66","","<img src=""img/yellow-r.png"" border=""10"">","null","trial","32","","0.6,0.4","3:go_c","1",""
"null","","html-keyboard-response","420","568602","0.0-6.0-2.66","","<div style=""font-size:60px;"">+</div>","null","","","","","","",""
"417.81000001356006","","image-keyboard-response","421","569021","0.0-6.0-0.67","","img/red.png","32","trial","null","false","0.4,0.6","4:nogo_d","",""
"null","","html-keyboard-response","422","570035","0.0-6.0-1.67","","<img src=""img/red-r.png"" border=""10"">","null","trial","null","","0.4,0.6","4:nogo_d","1",""
"null","","html-keyboard-response","423","571043","0.0-6.0-2.67","","<div style=""font-size:60px;"">+</div>","null","","","","","","",""
"616.7850000783801","","image-keyboard-response","424","571661","0.0-6.0-0.68","","img/grey.png","32","trial","null","false","0.4,0.6","2:nogo_b","",""
"null","","html-keyboard-response","425","572673","0.0-6.0-1.68","","<img src=""img/grey-r.png"" border=""10"">","null","trial","null","","0.4,0.6","2:nogo_b","1",""
"null","","html-keyboard-response","426","573678","0.0-6.0-2.68","","<div style=""font-size:60px;"">+</div>","null","","","","","","",""
"674.4699999690056","","image-keyboard-response","427","574354","0.0-6.0-0.69","","img/pink.png","32","trial","32","true","0.6,0.4","1:go_a","",""
"null","","html-keyboard-response","428","575358","0.0-6.0-1.69","","<img src=""img/pink-r.png"" border=""10"">","null","trial","32","","0.6,0.4","1:go_a","1",""
"null","","html-keyboard-response","429","576368","0.0-6.0-2.69","","<div style=""font-size:60px;"">+</div>","null","","","","","","",""
"703.1950000673532","","image-keyboard-response","430","577072","0.0-6.0-0.70","","img/red.png","32","trial","null","false","0.4,0.6","4:nogo_d","",""
"null","","html-keyboard-response","431","578090","0.0-6.0-1.70","","<img src=""img/red-n.png"" border=""10"">","null","trial","null","","0.4,0.6","4:nogo_d","0",""
"null","","html-keyboard-response","432","579098","0.0-6.0-2.70","","<div style=""font-size:60px;"">+</div>","null","","","","","","",""
"690.6200000084937","","image-keyboard-response","433","579789","0.0-6.0-0.71","","img/yellow.png","32","trial","32","true","0.6,0.4","3:go_c","",""
"null","","html-keyboard-response","434","580805","0.0-6.0-1.71","","<img src=""img/yellow-r.png"" border=""10"">","null","trial","32","","0.6,0.4","3:go_c","1",""
"null","","html-keyboard-response","435","581812","0.0-6.0-2.71","","<div style=""font-size:60px;"">+</div>","null","","","","","","",""
"655.3950000088662","","image-keyboard-response","436","582469","0.0-6.0-0.72","","img/grey.png","32","trial","null","false","0.4,0.6","2:nogo_b","",""
"null","","html-keyboard-response","437","583472","0.0-6.0-1.72","","<img src=""img/grey-r.png"" border=""10"">","null","trial","null","","0.4,0.6","2:nogo_b","1",""
"null","","html-keyboard-response","438","584479","0.0-6.0-2.72","","<div style=""font-size:60px;"">+</div>","null","","","","","","",""
"599.225000012666","","image-keyboard-response","439","585079","0.0-6.0-0.73","","img/pink.png","32","trial","32","true","0.6,0.4","1:go_a","",""
"null","","html-keyboard-response","440","586090","0.0-6.0-1.73","","<img src=""img/pink-n.png"" border=""10"">","null","trial","32","","0.6,0.4","1:go_a","0",""
"null","","html-keyboard-response","441","587100","0.0-6.0-2.73","","<div style=""font-size:60px;"">+</div>","null","","","","","","",""
"757.0050000213087","","image-keyboard-response","442","587857","0.0-6.0-0.74","","img/red.png","32","trial","null","false","0.4,0.6","4:nogo_d","",""
"null","","html-keyboard-response","443","588869","0.0-6.0-1.74","","<img src=""img/red-n.png"" border=""10"">","null","trial","null","","0.4,0.6","4:nogo_d","0",""
"null","","html-keyboard-response","444","589873","0.0-6.0-2.74","","<div style=""font-size:60px;"">+</div>","null","","","","","","",""
"488.6300000362098","","image-keyboard-response","445","590363","0.0-6.0-0.75","","img/yellow.png","32","trial","32","true","0.6,0.4","3:go_c","",""
"null","","html-keyboard-response","446","591379","0.0-6.0-1.75","","<img src=""img/yellow-r.png"" border=""10"">","null","trial","32","","0.6,0.4","3:go_c","1",""
"null","","html-keyboard-response","447","592386","0.0-6.0-2.75","","<div style=""font-size:60px;"">+</div>","null","","","","","","",""
"655.4849999956787","","image-keyboard-response","448","593043","0.0-6.0-0.76","","img/red.png","32","trial","null","false","0.4,0.6","4:nogo_d","",""
"null","","html-keyboard-response","449","594058","0.0-6.0-1.76","","<img src=""img/red-r.png"" border=""10"">","null","trial","null","","0.4,0.6","4:nogo_d","1",""
"null","","html-keyboard-response","450","595060","0.0-6.0-2.76","","<div style=""font-size:60px;"">+</div>","null","","","","","","",""
"null","","image-keyboard-response","451","596563","0.0-6.0-0.77","","img/grey.png","null","trial","null","true","0.4,0.6","2:nogo_b","",""
"null","","html-keyboard-response","452","597572","0.0-6.0-1.77","","<img src=""img/grey-n.png"">","null","trial","null","","0.4,0.6","2:nogo_b","0",""
"null","","html-keyboard-response","453","598582","0.0-6.0-2.77","","<div style=""font-size:60px;"">+</div>","null","","","","","","",""
"598.9649998955429","","image-keyboard-response","454","599182","0.0-6.0-0.78","","img/pink.png","32","trial","32","true","0.6,0.4","1:go_a","",""
"null","","html-keyboard-response","455","600194","0.0-6.0-1.78","","<img src=""img/pink-r.png"" border=""10"">","null","trial","32","","0.6,0.4","1:go_a","1",""
"null","","html-keyboard-response","456","601201","0.0-6.0-2.78","","<div style=""font-size:60px;"">+</div>","null","","","","","","",""
"421.4399999473244","","image-keyboard-response","457","601625","0.0-6.0-0.79","","img/yellow.png","32","trial","32","true","0.6,0.4","3:go_c","",""
"null","","html-keyboard-response","458","602642","0.0-6.0-1.79","","<img src=""img/yellow-n.png"" border=""10"">","null","trial","32","","0.6,0.4","3:go_c","0",""
"null","","html-keyboard-response","459","603653","0.0-6.0-2.79","","<div style=""font-size:60px;"">+</div>","null","","","","","","",""
"777.4900000076741","","image-keyboard-response","460","604431","0.0-6.0-0.80","","img/yellow.png","32","trial","32","true","0.6,0.4","3:go_c","",""
"null","","html-keyboard-response","461","605435","0.0-6.0-1.80","","<img src=""img/yellow-r.png"" border=""10"">","null","trial","32","","0.6,0.4","3:go_c","1",""
"null","","html-keyboard-response","462","606444","0.0-6.0-2.80","","<div style=""font-size:60px;"">+</div>","null","","","","","","",""
"575.4750000778586","","image-keyboard-response","463","607020","0.0-6.0-0.81","","img/red.png","32","trial","null","false","0.4,0.6","4:nogo_d","",""
"null","","html-keyboard-response","464","608027","0.0-6.0-1.81","","<img src=""img/red-n.png"" border=""10"">","null","trial","null","","0.4,0.6","4:nogo_d","0",""
"null","","html-keyboard-response","465","609036","0.0-6.0-2.81","","<div style=""font-size:60px;"">+</div>","null","","","","","","",""
"686.5550000220537","","image-keyboard-response","466","609723","0.0-6.0-0.82","","img/grey.png","32","trial","null","false","0.4,0.6","2:nogo_b","",""
"null","","html-keyboard-response","467","610738","0.0-6.0-1.82","","<img src=""img/grey-n.png"" border=""10"">","null","trial","null","","0.4,0.6","2:nogo_b","0",""
"null","","html-keyboard-response","468","611745","0.0-6.0-2.82","","<div style=""font-size:60px;"">+</div>","null","","","","","","",""
"623.5449998639524","","image-keyboard-response","469","612370","0.0-6.0-0.83","","img/pink.png","32","trial","32","true","0.6,0.4","1:go_a","",""
"null","","html-keyboard-response","470","613389","0.0-6.0-1.83","","<img src=""img/pink-n.png"" border=""10"">","null","trial","32","","0.6,0.4","1:go_a","0",""
"null","","html-keyboard-response","471","614397","0.0-6.0-2.83","","<div style=""font-size:60px;"">+</div>","null","","","","","","",""
"601.0849999729544","","image-keyboard-response","472","615000","0.0-6.0-0.84","","img/red.png","32","trial","null","false","0.4,0.6","4:nogo_d","",""
"null","","html-keyboard-response","473","616003","0.0-6.0-1.84","","<img src=""img/red-r.png"" border=""10"">","null","trial","null","","0.4,0.6","4:nogo_d","1",""
"null","","html-keyboard-response","474","617009","0.0-6.0-2.84","","<div style=""font-size:60px;"">+</div>","null","","","","","","",""
"638.7450001202524","","image-keyboard-response","475","617649","0.0-6.0-0.85","","img/pink.png","32","trial","32","true","0.6,0.4","1:go_a","",""
"null","","html-keyboard-response","476","618652","0.0-6.0-1.85","","<img src=""img/pink-r.png"" border=""10"">","null","trial","32","","0.6,0.4","1:go_a","1",""
"null","","html-keyboard-response","477","619666","0.0-6.0-2.85","","<div style=""font-size:60px;"">+</div>","null","","","","","","",""
"580.7849999982864","","image-keyboard-response","478","620248","0.0-6.0-0.86","","img/yellow.png","32","trial","32","true","0.6,0.4","3:go_c","",""
"null","","html-keyboard-response","479","621266","0.0-6.0-1.86","","<img src=""img/yellow-r.png"" border=""10"">","null","trial","32","","0.6,0.4","3:go_c","1",""
"null","","html-keyboard-response","480","622272","0.0-6.0-2.86","","<div style=""font-size:60px;"">+</div>","null","","","","","","",""
"null","","image-keyboard-response","481","623777","0.0-6.0-0.87","","img/grey.png","null","trial","null","true","0.4,0.6","2:nogo_b","",""
"null","","html-keyboard-response","482","624788","0.0-6.0-1.87","","<img src=""img/grey-r.png"">","null","trial","null","","0.4,0.6","2:nogo_b","1",""
"null","","html-keyboard-response","483","625794","0.0-6.0-2.87","","<div style=""font-size:60px;"">+</div>","null","","","","","","",""
"579.6750001609325","","image-keyboard-response","484","626374","0.0-6.0-0.88","","img/grey.png","32","trial","null","false","0.4,0.6","2:nogo_b","",""
"null","","html-keyboard-response","485","627390","0.0-6.0-1.88","","<img src=""img/grey-r.png"" border=""10"">","null","trial","null","","0.4,0.6","2:nogo_b","1",""
"null","","html-keyboard-response","486","628399","0.0-6.0-2.88","","<div style=""font-size:60px;"">+</div>","null","","","","","","",""
"631.3849999569356","","image-keyboard-response","487","629032","0.0-6.0-0.89","","img/red.png","32","trial","null","false","0.4,0.6","4:nogo_d","",""
"null","","html-keyboard-response","488","630047","0.0-6.0-1.89","","<img src=""img/red-n.png"" border=""10"">","null","trial","null","","0.4,0.6","4:nogo_d","0",""
"null","","html-keyboard-response","489","631060","0.0-6.0-2.89","","<div style=""font-size:60px;"">+</div>","null","","","","","","",""
"531.16500005126","","image-keyboard-response","490","631592","0.0-6.0-0.90","","img/yellow.png","32","trial","32","true","0.6,0.4","3:go_c","",""
"null","","html-keyboard-response","491","632610","0.0-6.0-1.90","","<img src=""img/yellow-r.png"" border=""10"">","null","trial","32","","0.6,0.4","3:go_c","1",""
"null","","html-keyboard-response","492","633624","0.0-6.0-2.90","","<div style=""font-size:60px;"">+</div>","null","","","","","","",""
"626.9499999471009","","image-keyboard-response","493","634253","0.0-6.0-0.91","","img/pink.png","32","trial","32","true","0.6,0.4","1:go_a","",""
"null","","html-keyboard-response","494","635267","0.0-6.0-1.91","","<img src=""img/pink-n.png"" border=""10"">","null","trial","32","","0.6,0.4","1:go_a","0",""
"null","","html-keyboard-response","495","636278","0.0-6.0-2.91","","<div style=""font-size:60px;"">+</div>","null","","","","","","",""
"545.1299999840558","","image-keyboard-response","496","636824","0.0-6.0-0.92","","img/pink.png","32","trial","32","true","0.6,0.4","1:go_a","",""
"null","","html-keyboard-response","497","637828","0.0-6.0-1.92","","<img src=""img/pink-n.png"" border=""10"">","null","trial","32","","0.6,0.4","1:go_a","0",""
"null","","html-keyboard-response","498","638830","0.0-6.0-2.92","","<div style=""font-size:60px;"">+</div>","null","","","","","","",""
"612.8199999220669","","image-keyboard-response","499","639444","0.0-6.0-0.93","","img/red.png","32","trial","null","false","0.4,0.6","4:nogo_d","",""
"null","","html-keyboard-response","500","640447","0.0-6.0-1.93","","<img src=""img/red-r.png"" border=""10"">","null","trial","null","","0.4,0.6","4:nogo_d","1",""
"null","","html-keyboard-response","501","641453","0.0-6.0-2.93","","<div style=""font-size:60px;"">+</div>","null","","","","","","",""
"630.8450000360608","","image-keyboard-response","502","642085","0.0-6.0-0.94","","img/grey.png","32","trial","null","false","0.4,0.6","2:nogo_b","",""
"null","","html-keyboard-response","503","643097","0.0-6.0-1.94","","<img src=""img/grey-n.png"" border=""10"">","null","trial","null","","0.4,0.6","2:nogo_b","0",""
"null","","html-keyboard-response","504","644112","0.0-6.0-2.94","","<div style=""font-size:60px;"">+</div>","null","","","","","","",""
"392.7750000730157","","image-keyboard-response","505","644506","0.0-6.0-0.95","","img/yellow.png","32","trial","32","true","0.6,0.4","3:go_c","",""
"null","","html-keyboard-response","506","645517","0.0-6.0-1.95","","<img src=""img/yellow-r.png"" border=""10"">","null","trial","32","","0.6,0.4","3:go_c","1",""
"null","","html-keyboard-response","507","646531","0.0-6.0-2.95","","<div style=""font-size:60px;"">+</div>","null","","","","","","",""
"532.7699999324977","","image-keyboard-response","508","647065","0.0-6.0-0.96","","img/pink.png","32","trial","32","true","0.6,0.4","1:go_a","",""
"null","","html-keyboard-response","509","648077","0.0-6.0-1.96","","<img src=""img/pink-n.png"" border=""10"">","null","trial","32","","0.6,0.4","1:go_a","0",""
"null","","html-keyboard-response","510","649085","0.0-6.0-2.96","","<div style=""font-size:60px;"">+</div>","null","","","","","","",""
"1092.5650000572205","","image-keyboard-response","511","650179","0.0-6.0-0.97","","img/grey.png","32","trial","null","false","0.4,0.6","2:nogo_b","",""
"null","","html-keyboard-response","512","651196","0.0-6.0-1.97","","<img src=""img/grey-n.png"" border=""10"">","null","trial","null","","0.4,0.6","2:nogo_b","0",""
"null","","html-keyboard-response","513","652207","0.0-6.0-2.97","","<div style=""font-size:60px;"">+</div>","null","","","","","","",""
"626.7649999354035","","image-keyboard-response","514","652835","0.0-6.0-0.98","","img/red.png","32","trial","null","false","0.4,0.6","4:nogo_d","",""
"null","","html-keyboard-response","515","653848","0.0-6.0-1.98","","<img src=""img/red-n.png"" border=""10"">","null","trial","null","","0.4,0.6","4:nogo_d","0",""
"null","","html-keyboard-response","516","654853","0.0-6.0-2.98","","<div style=""font-size:60px;"">+</div>","null","","","","","","",""
"430.97000010311604","","image-keyboard-response","517","655286","0.0-6.0-0.99","","img/yellow.png","32","trial","32","true","0.6,0.4","3:go_c","",""
"null","","html-keyboard-response","518","656289","0.0-6.0-1.99","","<img src=""img/yellow-r.png"" border=""10"">","null","trial","32","","0.6,0.4","3:go_c","1",""
"null","","html-keyboard-response","519","657299","0.0-6.0-2.99","","<div style=""font-size:60px;"">+</div>","null","","","","","","",""
"702.1649999078363","","image-keyboard-response","520","658003","0.0-6.0-0.100","","img/red.png","32","trial","null","false","0.4,0.6","4:nogo_d","",""
"null","","html-keyboard-response","521","659007","0.0-6.0-1.100","","<img src=""img/red-r.png"" border=""10"">","null","trial","null","","0.4,0.6","4:nogo_d","1",""
"null","","html-keyboard-response","522","660010","0.0-6.0-2.100","","<div style=""font-size:60px;"">+</div>","null","","","","","","",""
"838.3550001308322","","image-keyboard-response","523","660850","0.0-6.0-0.101","","img/pink.png","32","trial","32","true","0.6,0.4","1:go_a","",""
"null","","html-keyboard-response","524","661870","0.0-6.0-1.101","","<img src=""img/pink-r.png"" border=""10"">","null","trial","32","","0.6,0.4","1:go_a","1",""
"null","","html-keyboard-response","525","662875","0.0-6.0-2.101","","<div style=""font-size:60px;"">+</div>","null","","","","","","",""
"976.7050000373274","","image-keyboard-response","526","663854","0.0-6.0-0.102","","img/yellow.png","32","trial","32","true","0.6,0.4","3:go_c","",""
"null","","html-keyboard-response","527","664862","0.0-6.0-1.102","","<img src=""img/yellow-r.png"" border=""10"">","null","trial","32","","0.6,0.4","3:go_c","1",""
"null","","html-keyboard-response","528","665870","0.0-6.0-2.102","","<div style=""font-size:60px;"">+</div>","null","","","","","","",""
"671.8349999282509","","image-keyboard-response","529","666543","0.0-6.0-0.103","","img/grey.png","32","trial","null","false","0.4,0.6","2:nogo_b","",""
"null","","html-keyboard-response","530","667554","0.0-6.0-1.103","","<img src=""img/grey-n.png"" border=""10"">","null","trial","null","","0.4,0.6","2:nogo_b","0",""
"null","","html-keyboard-response","531","668564","0.0-6.0-2.103","","<div style=""font-size:60px;"">+</div>","null","","","","","","",""
"632.0599999744445","","image-keyboard-response","532","669197","0.0-6.0-0.104","","img/pink.png","32","trial","32","true","0.6,0.4","1:go_a","",""
"null","","html-keyboard-response","533","670204","0.0-6.0-1.104","","<img src=""img/pink-r.png"" border=""10"">","null","trial","32","","0.6,0.4","1:go_a","1",""
"null","","html-keyboard-response","534","671216","0.0-6.0-2.104","","<div style=""font-size:60px;"">+</div>","null","","","","","","",""
"820.7399998791516","","image-keyboard-response","535","672040","0.0-6.0-0.105","","img/grey.png","32","trial","null","false","0.4,0.6","2:nogo_b","",""
"null","","html-keyboard-response","536","673043","0.0-6.0-1.105","","<img src=""img/grey-r.png"" border=""10"">","null","trial","null","","0.4,0.6","2:nogo_b","1",""
"null","","html-keyboard-response","537","674048","0.0-6.0-2.105","","<div style=""font-size:60px;"">+</div>","null","","","","","","",""
"679.1799999773502","","image-keyboard-response","538","674728","0.0-6.0-0.106","","img/yellow.png","32","trial","32","true","0.6,0.4","3:go_c","",""
"null","","html-keyboard-response","539","675737","0.0-6.0-1.106","","<img src=""img/yellow-n.png"" border=""10"">","null","trial","32","","0.6,0.4","3:go_c","0",""
"null","","html-keyboard-response","540","676743","0.0-6.0-2.106","","<div style=""font-size:60px;"">+</div>","null","","","","","","",""
"539.6499999333173","","image-keyboard-response","541","677284","0.0-6.0-0.107","","img/red.png","32","trial","null","false","0.4,0.6","4:nogo_d","",""
"null","","html-keyboard-response","542","678296","0.0-6.0-1.107","","<img src=""img/red-n.png"" border=""10"">","null","trial","null","","0.4,0.6","4:nogo_d","0",""
"null","","html-keyboard-response","543","679302","0.0-6.0-2.107","","<div style=""font-size:60px;"">+</div>","null","","","","","","",""
"630.254999967292","","image-keyboard-response","544","679933","0.0-6.0-0.108","","img/grey.png","32","trial","null","false","0.4,0.6","2:nogo_b","",""
"null","","html-keyboard-response","545","680950","0.0-6.0-1.108","","<img src=""img/grey-r.png"" border=""10"">","null","trial","null","","0.4,0.6","2:nogo_b","1",""
"null","","html-keyboard-response","546","681960","0.0-6.0-2.108","","<div style=""font-size:60px;"">+</div>","null","","","","","","",""
"673.814999870956","","image-keyboard-response","547","682635","0.0-6.0-0.109","","img/red.png","32","trial","null","false","0.4,0.6","4:nogo_d","",""
"null","","html-keyboard-response","548","683652","0.0-6.0-1.109","","<img src=""img/red-n.png"" border=""10"">","null","trial","null","","0.4,0.6","4:nogo_d","0",""
"null","","html-keyboard-response","549","684660","0.0-6.0-2.109","","<div style=""font-size:60px;"">+</div>","null","","","","","","",""
"527.1199999842793","","image-keyboard-response","550","685188","0.0-6.0-0.110","","img/yellow.png","32","trial","32","true","0.6,0.4","3:go_c","",""
"null","","html-keyboard-response","551","686202","0.0-6.0-1.110","","<img src=""img/yellow-n.png"" border=""10"">","null","trial","32","","0.6,0.4","3:go_c","0",""
"null","","html-keyboard-response","552","687209","0.0-6.0-2.110","","<div style=""font-size:60px;"">+</div>","null","","","","","","",""
"591.5750002022833","","image-keyboard-response","553","687801","0.0-6.0-0.111","","img/pink.png","32","trial","32","true","0.6,0.4","1:go_a","",""
"null","","html-keyboard-response","554","688810","0.0-6.0-1.111","","<img src=""img/pink-r.png"" border=""10"">","null","trial","32","","0.6,0.4","1:go_a","1",""
"null","","html-keyboard-response","555","689821","0.0-6.0-2.111","","<div style=""font-size:60px;"">+</div>","null","","","","","","",""
"521.0849998984486","","image-keyboard-response","556","690343","0.0-6.0-0.112","","img/grey.png","32","trial","null","false","0.4,0.6","2:nogo_b","",""
"null","","html-keyboard-response","557","691361","0.0-6.0-1.112","","<img src=""img/grey-r.png"" border=""10"">","null","trial","null","","0.4,0.6","2:nogo_b","1",""
"null","","html-keyboard-response","558","692369","0.0-6.0-2.112","","<div style=""font-size:60px;"">+</div>","null","","","","","","",""
"634.9850001279265","","image-keyboard-response","559","693005","0.0-6.0-0.113","","img/yellow.png","32","trial","32","true","0.6,0.4","3:go_c","",""
"null","","html-keyboard-response","560","694010","0.0-6.0-1.113","","<img src=""img/yellow-r.png"" border=""10"">","null","trial","32","","0.6,0.4","3:go_c","1",""
"null","","html-keyboard-response","561","695013","0.0-6.0-2.113","","<div style=""font-size:60px;"">+</div>","null","","","","","","",""
"544.2200000397861","","image-keyboard-response","562","695558","0.0-6.0-0.114","","img/red.png","32","trial","null","false","0.4,0.6","4:nogo_d","",""
"null","","html-keyboard-response","563","696576","0.0-6.0-1.114","","<img src=""img/red-n.png"" border=""10"">","null","trial","null","","0.4,0.6","4:nogo_d","0",""
"null","","html-keyboard-response","564","697585","0.0-6.0-2.114","","<div style=""font-size:60px;"">+</div>","null","","","","","","",""
"519.7250000201166","","image-keyboard-response","565","698107","0.0-6.0-0.115","","img/pink.png","32","trial","32","true","0.6,0.4","1:go_a","",""
"null","","html-keyboard-response","566","699123","0.0-6.0-1.115","","<img src=""img/pink-r.png"" border=""10"">","null","trial","32","","0.6,0.4","1:go_a","1",""
"null","","html-keyboard-response","567","700130","0.0-6.0-2.115","","<div style=""font-size:60px;"">+</div>","null","","","","","","",""
"599.8600001912564","","image-keyboard-response","568","700731","0.0-6.0-0.116","","img/grey.png","32","trial","null","false","0.4,0.6","2:nogo_b","",""
"null","","html-keyboard-response","569","701745","0.0-6.0-1.116","","<img src=""img/grey-r.png"" border=""10"">","null","trial","null","","0.4,0.6","2:nogo_b","1",""
"null","","html-keyboard-response","570","702755","0.0-6.0-2.116","","<div style=""font-size:60px;"">+</div>","null","","","","","","",""
"785.365000134334","","image-keyboard-response","571","703542","0.0-6.0-0.117","","img/yellow.png","32","trial","32","true","0.6,0.4","3:go_c","",""
"null","","html-keyboard-response","572","704554","0.0-6.0-1.117","","<img src=""img/yellow-r.png"" border=""10"">","null","trial","32","","0.6,0.4","3:go_c","1",""
"null","","html-keyboard-response","573","705560","0.0-6.0-2.117","","<div style=""font-size:60px;"">+</div>","null","","","","","","",""
"634.2199998907745","","image-keyboard-response","574","706197","0.0-6.0-0.118","","img/red.png","32","trial","null","false","0.4,0.6","4:nogo_d","",""
"null","","html-keyboard-response","575","707203","0.0-6.0-1.118","","<img src=""img/red-r.png"" border=""10"">","null","trial","null","","0.4,0.6","4:nogo_d","1",""
"null","","html-keyboard-response","576","708213","0.0-6.0-2.118","","<div style=""font-size:60px;"">+</div>","null","","","","","","",""
"762.4399999622256","","image-keyboard-response","577","708977","0.0-6.0-0.119","","img/pink.png","32","trial","32","true","0.6,0.4","1:go_a","",""
"null","","html-keyboard-response","578","709981","0.0-6.0-1.119","","<img src=""img/pink-n.png"" border=""10"">","null","trial","32","","0.6,0.4","1:go_a","0",""
"null","","html-keyboard-response","579","710988","0.0-6.0-2.119","","<div style=""font-size:60px;"">+</div>","null","","","","","","",""
"4433.910000137985","","instructions","580","715423","0.0-7.0","[{""page_index"":0,""viewing_time"":4433.775000041351}]","","","","","","","","",""
"587.0900000445545","","image-keyboard-response","581","716011","0.0-8.0-0.0","","img/yellow.png","32","trial","32","true","1,0","3:go_c","",""
"null","","html-keyboard-response","582","717017","0.0-8.0-1.0","","<img src=""img/yellow-r.png"" border=""10"">","null","trial","32","","1,0","3:go_c","1",""
"null","","html-keyboard-response","583","718021","0.0-8.0-2.0","","<div style=""font-size:60px;"">+</div>","null","","","","","","",""
"613.4849998634309","","image-keyboard-response","584","718636","0.0-8.0-0.1","","img/green.png","32","trial","null","false","0,1","4:nogo_d","",""
"null","","html-keyboard-response","585","719650","0.0-8.0-1.1","","<img src=""img/green-n.png"" border=""10"">","null","trial","null","","0,1","4:nogo_d","0",""
"null","","html-keyboard-response","586","720658","0.0-8.0-2.1","","<div style=""font-size:60px;"">+</div>","null","","","","","","",""
"586.525000166148","","image-keyboard-response","587","721245","0.0-8.0-0.2","","img/red.png","32","trial","32","true","0.8,0.2","1:go_a","",""
"null","","html-keyboard-response","588","722253","0.0-8.0-1.2","","<img src=""img/red-r.png"" border=""10"">","null","trial","32","","0.8,0.2","1:go_a","1",""
"null","","html-keyboard-response","589","723263","0.0-8.0-2.2","","<div style=""font-size:60px;"">+</div>","null","","","","","","",""
"732.9349999781698","","image-keyboard-response","590","723997","0.0-8.0-0.3","","img/purple.png","32","trial","null","false","0.2,0.8","2:nogo_b","",""
"null","","html-keyboard-response","591","725012","0.0-8.0-1.3","","<img src=""img/purple-n.png"" border=""10"">","null","trial","null","","0.2,0.8","2:nogo_b","0",""
"null","","html-keyboard-response","592","726018","0.0-8.0-2.3","","<div style=""font-size:60px;"">+</div>","null","","","","","","",""
"null","","image-keyboard-response","593","727521","0.0-8.0-0.4","","img/purple.png","null","trial","null","true","0.2,0.8","2:nogo_b","",""
"null","","html-keyboard-response","594","728528","0.0-8.0-1.4","","<img src=""img/purple-r.png"">","null","trial","null","","0.2,0.8","2:nogo_b","1",""
"null","","html-keyboard-response","595","729538","0.0-8.0-2.4","","<div style=""font-size:60px;"">+</div>","null","","","","","","",""
"541.5550000034273","","image-keyboard-response","596","730081","0.0-8.0-0.5","","img/red.png","32","trial","32","true","0.8,0.2","1:go_a","",""
"null","","html-keyboard-response","597","731089","0.0-8.0-1.5","","<img src=""img/red-r.png"" border=""10"">","null","trial","32","","0.8,0.2","1:go_a","1",""
"null","","html-keyboard-response","598","732096","0.0-8.0-2.5","","<div style=""font-size:60px;"">+</div>","null","","","","","","",""
"399.38500011339784","","image-keyboard-response","599","732496","0.0-8.0-0.6","","img/yellow.png","32","trial","32","true","1,0","3:go_c","",""
"null","","html-keyboard-response","600","733505","0.0-8.0-1.6","","<img src=""img/yellow-r.png"" border=""10"">","null","trial","32","","1,0","3:go_c","1",""
"null","","html-keyboard-response","601","734512","0.0-8.0-2.6","","<div style=""font-size:60px;"">+</div>","null","","","","","","",""
"null","","image-keyboard-response","602","736022","0.0-8.0-0.7","","img/green.png","null","trial","null","true","0,1","4:nogo_d","",""
"null","","html-keyboard-response","603","737028","0.0-8.0-1.7","","<img src=""img/green-r.png"">","null","trial","null","","0,1","4:nogo_d","1",""
"null","","html-keyboard-response","604","738040","0.0-8.0-2.7","","<div style=""font-size:60px;"">+</div>","null","","","","","","",""
"701.2100000865757","","image-keyboard-response","605","738743","0.0-8.0-0.8","","img/red.png","32","trial","32","true","0.8,0.2","1:go_a","",""
"null","","html-keyboard-response","606","739749","0.0-8.0-1.8","","<img src=""img/red-r.png"" border=""10"">","null","trial","32","","0.8,0.2","1:go_a","1",""
"null","","html-keyboard-response","607","740758","0.0-8.0-2.8","","<div style=""font-size:60px;"">+</div>","null","","","","","","",""
"null","","image-keyboard-response","608","742262","0.0-8.0-0.9","","img/purple.png","null","trial","null","true","0.2,0.8","2:nogo_b","",""
"null","","html-keyboard-response","609","743267","0.0-8.0-1.9","","<img src=""img/purple-r.png"">","null","trial","null","","0.2,0.8","2:nogo_b","1",""
"null","","html-keyboard-response","610","744278","0.0-8.0-2.9","","<div style=""font-size:60px;"">+</div>","null","","","","","","",""
"433.41500009410083","","image-keyboard-response","611","744713","0.0-8.0-0.10","","img/yellow.png","32","trial","32","true","1,0","3:go_c","",""
"null","","html-keyboard-response","612","745720","0.0-8.0-1.10","","<img src=""img/yellow-r.png"" border=""10"">","null","trial","32","","1,0","3:go_c","1",""
"null","","html-keyboard-response","613","746727","0.0-8.0-2.10","","<div style=""font-size:60px;"">+</div>","null","","","","","","",""
"null","","image-keyboard-response","614","748235","0.0-8.0-0.11","","img/green.png","null","trial","null","true","0,1","4:nogo_d","",""
"null","","html-keyboard-response","615","749246","0.0-8.0-1.11","","<img src=""img/green-r.png"">","null","trial","null","","0,1","4:nogo_d","1",""
"null","","html-keyboard-response","616","750271","0.0-8.0-2.11","","<div style=""font-size:60px;"">+</div>","null","","","","","","",""
"706.3349999953061","","image-keyboard-response","617","750979","0.0-8.0-0.12","","img/green.png","32","trial","null","false","0,1","4:nogo_d","",""
"null","","html-keyboard-response","618","751984","0.0-8.0-1.12","","<img src=""img/green-n.png"" border=""10"">","null","trial","null","","0,1","4:nogo_d","0",""
"null","","html-keyboard-response","619","752995","0.0-8.0-2.12","","<div style=""font-size:60px;"">+</div>","null","","","","","","",""
"647.110000019893","","image-keyboard-response","620","753643","0.0-8.0-0.13","","img/red.png","32","trial","32","true","0.8,0.2","1:go_a","",""
"null","","html-keyboard-response","621","754649","0.0-8.0-1.13","","<img src=""img/red-n.png"" border=""10"">","null","trial","32","","0.8,0.2","1:go_a","0",""
"null","","html-keyboard-response","622","755664","0.0-8.0-2.13","","<div style=""font-size:60px;"">+</div>","null","","","","","","",""
"542.0450000092387","","image-keyboard-response","623","756207","0.0-8.0-0.14","","img/yellow.png","32","trial","32","true","1,0","3:go_c","",""
"null","","html-keyboard-response","624","757213","0.0-8.0-1.14","","<img src=""img/yellow-r.png"" border=""10"">","null","trial","32","","1,0","3:go_c","1",""
"null","","html-keyboard-response","625","758228","0.0-8.0-2.14","","<div style=""font-size:60px;"">+</div>","null","","","","","","",""
"699.0050000604242","","image-keyboard-response","626","758928","0.0-8.0-0.15","","img/purple.png","32","trial","null","false","0.2,0.8","2:nogo_b","",""
"null","","html-keyboard-response","627","759933","0.0-8.0-1.15","","<img src=""img/purple-n.png"" border=""10"">","null","trial","null","","0.2,0.8","2:nogo_b","0",""
"null","","html-keyboard-response","628","760944","0.0-8.0-2.15","","<div style=""font-size:60px;"">+</div>","null","","","","","","",""
"1137.1049999725074","","image-keyboard-response","629","762083","0.0-8.0-0.16","","img/red.png","32","trial","32","true","0.8,0.2","1:go_a","",""
"null","","html-keyboard-response","630","763087","0.0-8.0-1.16","","<img src=""img/red-r.png"" border=""10"">","null","trial","32","","0.8,0.2","1:go_a","1",""
"null","","html-keyboard-response","631","764095","0.0-8.0-2.16","","<div style=""font-size:60px;"">+</div>","null","","","","","","",""
"null","","image-keyboard-response","632","765600","0.0-8.0-0.17","","img/green.png","null","trial","null","true","0,1","4:nogo_d","",""
"null","","html-keyboard-response","633","766608","0.0-8.0-1.17","","<img src=""img/green-r.png"">","null","trial","null","","0,1","4:nogo_d","1",""
"null","","html-keyboard-response","634","767613","0.0-8.0-2.17","","<div style=""font-size:60px;"">+</div>","null","","","","","","",""
"1092.3949999269098","","image-keyboard-response","635","768708","0.0-8.0-0.18","","img/purple.png","32","trial","null","false","0.2,0.8","2:nogo_b","",""
"null","","html-keyboard-response","636","769720","0.0-8.0-1.18","","<img src=""img/purple-r.png"" border=""10"">","null","trial","null","","0.2,0.8","2:nogo_b","1",""
"null","","html-keyboard-response","637","770729","0.0-8.0-2.18","","<div style=""font-size:60px;"">+</div>","null","","","","","","",""
"622.050000121817","","image-keyboard-response","638","771352","0.0-8.0-0.19","","img/yellow.png","32","trial","32","true","1,0","3:go_c","",""
"null","","html-keyboard-response","639","772369","0.0-8.0-1.19","","<img src=""img/yellow-r.png"" border=""10"">","null","trial","32","","1,0","3:go_c","1",""
"null","","html-keyboard-response","640","773373","0.0-8.0-2.19","","<div style=""font-size:60px;"">+</div>","null","","","","","","",""
"586.3499999977648","","image-keyboard-response","641","773961","0.0-8.0-0.20","","img/green.png","32","trial","null","false","0,1","4:nogo_d","",""
"null","","html-keyboard-response","642","774983","0.0-8.0-1.20","","<img src=""img/green-n.png"" border=""10"">","null","trial","null","","0,1","4:nogo_d","0",""
"null","","html-keyboard-response","643","775998","0.0-8.0-2.20","","<div style=""font-size:60px;"">+</div>","null","","","","","","",""
"555.3549998439848","","image-keyboard-response","644","776555","0.0-8.0-0.21","","img/yellow.png","32","trial","32","true","1,0","3:go_c","",""
"null","","html-keyboard-response","645","777566","0.0-8.0-1.21","","<img src=""img/yellow-r.png"" border=""10"">","null","trial","32","","1,0","3:go_c","1",""
"null","","html-keyboard-response","646","778573","0.0-8.0-2.21","","<div style=""font-size:60px;"">+</div>","null","","","","","","",""
"640.2699998579919","","image-keyboard-response","647","779214","0.0-8.0-0.22","","img/red.png","32","trial","32","true","0.8,0.2","1:go_a","",""
"null","","html-keyboard-response","648","780228","0.0-8.0-1.22","","<img src=""img/red-r.png"" border=""10"">","null","trial","32","","0.8,0.2","1:go_a","1",""
"null","","html-keyboard-response","649","781233","0.0-8.0-2.22","","<div style=""font-size:60px;"">+</div>","null","","","","","","",""
"875.3149998374283","","image-keyboard-response","650","782110","0.0-8.0-0.23","","img/purple.png","32","trial","null","false","0.2,0.8","2:nogo_b","",""
"null","","html-keyboard-response","651","783122","0.0-8.0-1.23","","<img src=""img/purple-n.png"" border=""10"">","null","trial","null","","0.2,0.8","2:nogo_b","0",""
"null","","html-keyboard-response","652","784129","0.0-8.0-2.23","","<div style=""font-size:60px;"">+</div>","null","","","","","","",""
"null","","image-keyboard-response","653","785632","0.0-8.0-0.24","","img/green.png","null","trial","null","true","0,1","4:nogo_d","",""
"null","","html-keyboard-response","654","786639","0.0-8.0-1.24","","<img src=""img/green-r.png"">","null","trial","null","","0,1","4:nogo_d","1",""
"null","","html-keyboard-response","655","787644","0.0-8.0-2.24","","<div style=""font-size:60px;"">+</div>","null","","","","","","",""
"1023.2199998572469","","image-keyboard-response","656","788668","0.0-8.0-0.25","","img/purple.png","32","trial","null","false","0.2,0.8","2:nogo_b","",""
"null","","html-keyboard-response","657","789683","0.0-8.0-1.25","","<img src=""img/purple-n.png"" border=""10"">","null","trial","null","","0.2,0.8","2:nogo_b","0",""
"null","","html-keyboard-response","658","790690","0.0-8.0-2.25","","<div style=""font-size:60px;"">+</div>","null","","","","","","",""
"412.7400000579655","","image-keyboard-response","659","791104","0.0-8.0-0.26","","img/red.png","32","trial","32","true","0.8,0.2","1:go_a","",""
"null","","html-keyboard-response","660","792108","0.0-8.0-1.26","","<img src=""img/red-r.png"" border=""10"">","null","trial","32","","0.8,0.2","1:go_a","1",""
"null","","html-keyboard-response","661","793112","0.0-8.0-2.26","","<div style=""font-size:60px;"">+</div>","null","","","","","","",""
"536.1399999819696","","image-keyboard-response","662","793649","0.0-8.0-0.27","","img/yellow.png","32","trial","32","true","1,0","3:go_c","",""
"null","","html-keyboard-response","663","794664","0.0-8.0-1.27","","<img src=""img/yellow-r.png"" border=""10"">","null","trial","32","","1,0","3:go_c","1",""
"null","","html-keyboard-response","664","795676","0.0-8.0-2.27","","<div style=""font-size:60px;"">+</div>","null","","","","","","",""
"685.1900001056492","","image-keyboard-response","665","796362","0.0-8.0-0.28","","img/green.png","32","trial","null","false","0,1","4:nogo_d","",""
"null","","html-keyboard-response","666","797380","0.0-8.0-1.28","","<img src=""img/green-n.png"" border=""10"">","null","trial","null","","0,1","4:nogo_d","0",""
"null","","html-keyboard-response","667","798386","0.0-8.0-2.28","","<div style=""font-size:60px;"">+</div>","null","","","","","","",""
"698.0049998965114","","image-keyboard-response","668","799085","0.0-8.0-0.29","","img/yellow.png","32","trial","32","true","1,0","3:go_c","",""
"null","","html-keyboard-response","669","800091","0.0-8.0-1.29","","<img src=""img/yellow-r.png"" border=""10"">","null","trial","32","","1,0","3:go_c","1",""
"null","","html-keyboard-response","670","801103","0.0-8.0-2.29","","<div style=""font-size:60px;"">+</div>","null","","","","","","",""
