"rt","url","trial_type","trial_index","time_elapsed","internal_node_id","view_history","stimulus","key_press","test_part","correct_response","correct","use_rew","which_stim","reward","responses"
"145399.6049999987","consent.html","external-html","0","145531","0.0-0.0","","","","","","","","","",""
"81837.08500000648","","instructions","1","227368","0.0-1.0","[{""page_index"":0,""viewing_time"":4730.390000011539},{""page_index"":1,""viewing_time"":45499.84499999846},{""page_index"":2,""viewing_time"":4445.019999999204},{""page_index"":3,""viewing_time"":12960.854999997537},{""page_index"":4,""viewing_time"":8476.09999999986},{""page_index"":5,""viewing_time"":2850.395000001299},{""page_index"":6,""viewing_time"":2873.60500000068}]","","","","","","","","",""
"725.9400000039022","","image-keyboard-response","2","228097","0.0-2.0-0.0","","img/test1.PNG","32","practice","32","true","","","",""
"null","","html-keyboard-response","3","229099","0.0-2.0-1.0","","<img src=""img/test1-reward.PNG"" border=""10px; grey"">","null","","","","","","",""
"null","","html-keyboard-response","4","230101","0.0-2.0-2.0","","<div style=""font-size:60px;"">+</div>","null","","","","","","",""
"790.8700000116369","","image-keyboard-response","5","230892","0.0-2.0-0.1","","img/test2.PNG","32","practice","null","false","","","",""
"null","","html-keyboard-response","6","231893","0.0-2.0-1.1","","<img src=""img/test2-neutral.PNG"" border=""10px; grey"">","null","","","","","","",""
"null","","html-keyboard-response","7","232895","0.0-2.0-2.1","","<div style=""font-size:60px;"">+</div>","null","","","","","","",""
"556.7299999966053","","image-keyboard-response","8","233452","0.0-2.0-0.2","","img/test3.PNG","32","practice","null","false","","","",""
"null","","html-keyboard-response","9","234453","0.0-2.0-1.2","","<img src=""img/test3-neutral.PNG"" border=""10px; grey"">","null","","","","","","",""
"null","","html-keyboard-response","10","235454","0.0-2.0-2.2","","<div style=""font-size:60px;"">+</div>","null","","","","","","",""
"344.80999999505","","image-keyboard-response","11","235800","0.0-2.0-0.3","","img/test1.PNG","32","practice","32","true","","","",""
"null","","html-keyboard-response","12","236802","0.0-2.0-1.3","","<img src=""img/test1-reward.PNG"" border=""10px; grey"">","null","","","","","","",""
"null","","html-keyboard-response","13","237803","0.0-2.0-2.3","","<div style=""font-size:60px;"">+</div>","null","","","","","","",""
"null","","image-keyboard-response","14","239305","0.0-2.0-0.4","","img/test3.PNG","null","practice","null","true","","","",""
"null","","html-keyboard-response","15","240306","0.0-2.0-1.4","","<img src=""img/test3-reward.PNG"">","null","","","","","","",""
"null","","html-keyboard-response","16","241307","0.0-2.0-2.4","","<div style=""font-size:60px;"">+</div>","null","","","","","","",""
"null","","image-keyboard-response","17","242808","0.0-2.0-0.5","","img/test2.PNG","null","practice","null","true","","","",""
"null","","html-keyboard-response","18","243811","0.0-2.0-1.5","","<img src=""img/test2-reward.PNG"">","null","","","","","","",""
"null","","html-keyboard-response","19","244812","0.0-2.0-2.5","","<div style=""font-size:60px;"">+</div>","null","","","","","","",""
"null","","image-keyboard-response","20","246313","0.0-2.0-0.6","","img/test2.PNG","null","practice","null","true","","","",""
"null","","html-keyboard-response","21","247316","0.0-2.0-1.6","","<img src=""img/test2-reward.PNG"">","null","","","","","","",""
"null","","html-keyboard-response","22","248318","0.0-2.0-2.6","","<div style=""font-size:60px;"">+</div>","null","","","","","","",""
"null","","image-keyboard-response","23","249820","0.0-2.0-0.7","","img/test3.PNG","null","practice","null","true","","","",""
"null","","html-keyboard-response","24","250821","0.0-2.0-1.7","","<img src=""img/test3-reward.PNG"">","null","","","","","","",""
"null","","html-keyboard-response","25","251822","0.0-2.0-2.7","","<div style=""font-size:60px;"">+</div>","null","","","","","","",""
"1141.5200000046752","","image-keyboard-response","26","252965","0.0-2.0-0.8","","img/test1.PNG","32","practice","32","true","","","",""
"null","","html-keyboard-response","27","253966","0.0-2.0-1.8","","<img src=""img/test1-reward.PNG"" border=""10px; grey"">","null","","","","","","",""
"null","","html-keyboard-response","28","254967","0.0-2.0-2.8","","<div style=""font-size:60px;"">+</div>","null","","","","","","",""
"null","","image-keyboard-response","29","256469","0.0-2.0-0.9","","img/test2.PNG","null","practice","null","true","","","",""
"null","","html-keyboard-response","30","257470","0.0-2.0-1.9","","<img src=""img/test2-reward.PNG"">","null","","","","","","",""
"null","","html-keyboard-response","31","258471","0.0-2.0-2.9","","<div style=""font-size:60px;"">+</div>","null","","","","","","",""
"629.6100000035949","","image-keyboard-response","32","259101","0.0-2.0-0.10","","img/test1.PNG","32","practice","32","true","","","",""
"null","","html-keyboard-response","33","260103","0.0-2.0-1.10","","<img src=""img/test1-reward.PNG"" border=""10px; grey"">","null","","","","","","",""
"null","","html-keyboard-response","34","261104","0.0-2.0-2.10","","<div style=""font-size:60px;"">+</div>","null","","","","","","",""
"null","","image-keyboard-response","35","262606","0.0-2.0-0.11","","img/test3.PNG","null","practice","null","true","","","",""
"null","","html-keyboard-response","36","263608","0.0-2.0-1.11","","<img src=""img/test3-reward.PNG"">","null","","","","","","",""
"null","","html-keyboard-response","37","264610","0.0-2.0-2.11","","<div style=""font-size:60px;"">+</div>","null","","","","","","",""
"120925.95000000438","","instructions","38","385537","0.0-3.0","[{""page_index"":0,""viewing_time"":120925.74000000604}]","","","","","","","","",""
"722.4749999877531","","image-keyboard-response","39","386260","0.0-4.0-0.0","","img/green.png","32","trial","null","false","0.2,0.8","2:nogo_b","",""
"null","","html-keyboard-response","40","387262","0.0-4.0-1.0","","<img src=""img/green-n.png"" border=""10"">","null","trial","null","","0.2,0.8","2:nogo_b","0",""
"null","","html-keyboard-response","41","388263","0.0-4.0-2.0","","<div style=""font-size:60px;"">+</div>","null","","","","","","",""
"525.1600000046892","","image-keyboard-response","42","388789","0.0-4.0-0.1","","img/grey.png","32","trial","32","true","0.8,0.2","1:go_a","",""
"null","","html-keyboard-response","43","389791","0.0-4.0-1.1","","<img src=""img/grey-r.png"" border=""10"">","null","trial","32","","0.8,0.2","1:go_a","1",""
"null","","html-keyboard-response","44","390792","0.0-4.0-2.1","","<div style=""font-size:60px;"">+</div>","null","","","","","","",""
"384.5899999869289","","image-keyboard-response","45","391177","0.0-4.0-0.2","","img/grey.png","32","trial","32","true","0.8,0.2","1:go_a","",""
"null","","html-keyboard-response","46","392178","0.0-4.0-1.2","","<img src=""img/grey-r.png"" border=""10"">","null","trial","32","","0.8,0.2","1:go_a","1",""
"null","","html-keyboard-response","47","393179","0.0-4.0-2.2","","<div style=""font-size:60px;"">+</div>","null","","","","","","",""
"621.3399999978719","","image-keyboard-response","48","393801","0.0-4.0-0.3","","img/green.png","32","trial","null","false","0.2,0.8","2:nogo_b","",""
"null","","html-keyboard-response","49","394802","0.0-4.0-1.3","","<img src=""img/green-n.png"" border=""10"">","null","trial","null","","0.2,0.8","2:nogo_b","0",""
"null","","html-keyboard-response","50","395803","0.0-4.0-2.3","","<div style=""font-size:60px;"">+</div>","null","","","","","","",""
"null","","image-keyboard-response","51","397305","0.0-4.0-0.4","","img/green.png","null","trial","null","true","0.2,0.8","2:nogo_b","",""
"null","","html-keyboard-response","52","398306","0.0-4.0-1.4","","<img src=""img/green-r.png"">","null","trial","null","","0.2,0.8","2:nogo_b","1",""
"null","","html-keyboard-response","53","399306","0.0-4.0-2.4","","<div style=""font-size:60px;"">+</div>","null","","","","","","",""
"675.3049999970244","","image-keyboard-response","54","399982","0.0-4.0-0.5","","img/grey.png","32","trial","32","true","0.8,0.2","1:go_a","",""
"null","","html-keyboard-response","55","400984","0.0-4.0-1.5","","<img src=""img/grey-r.png"" border=""10"">","null","trial","32","","0.8,0.2","1:go_a","1",""
"null","","html-keyboard-response","56","401985","0.0-4.0-2.5","","<div style=""font-size:60px;"">+</div>","null","","","","","","",""
"421.73499999626074","","image-keyboard-response","57","402407","0.0-4.0-0.6","","img/grey.png","32","trial","32","true","0.8,0.2","1:go_a","",""
"null","","html-keyboard-response","58","403408","0.0-4.0-1.6","","<img src=""img/grey-n.png"" border=""10"">","null","trial","32","","0.8,0.2","1:go_a","0",""
"null","","html-keyboard-response","59","404410","0.0-4.0-2.6","","<div style=""font-size:60px;"">+</div>","null","","","","","","",""
"1354.045000000042","","image-keyboard-response","60","405764","0.0-4.0-0.7","","img/green.png","32","trial","null","false","0.2,0.8","2:nogo_b","",""
"null","","html-keyboard-response","61","406767","0.0-4.0-1.7","","<img src=""img/green-n.png"" border=""10"">","null","trial","null","","0.2,0.8","2:nogo_b","0",""
"null","","html-keyboard-response","62","407768","0.0-4.0-2.7","","<div style=""font-size:60px;"">+</div>","null","","","","","","",""
"548.0649999954039","","image-keyboard-response","63","408316","0.0-4.0-0.8","","img/grey.png","32","trial","32","true","0.8,0.2","1:go_a","",""
"null","","html-keyboard-response","64","409318","0.0-4.0-1.8","","<img src=""img/grey-n.png"" border=""10"">","null","trial","32","","0.8,0.2","1:go_a","0",""
"null","","html-keyboard-response","65","410319","0.0-4.0-2.8","","<div style=""font-size:60px;"">+</div>","null","","","","","","",""
"null","","image-keyboard-response","66","411820","0.0-4.0-0.9","","img/green.png","null","trial","null","true","0.2,0.8","2:nogo_b","",""
"null","","html-keyboard-response","67","412821","0.0-4.0-1.9","","<img src=""img/green-r.png"">","null","trial","null","","0.2,0.8","2:nogo_b","1",""
"null","","html-keyboard-response","68","413822","0.0-4.0-2.9","","<div style=""font-size:60px;"">+</div>","null","","","","","","",""
"null","","image-keyboard-response","69","415324","0.0-4.0-0.10","","img/green.png","null","trial","null","true","0.2,0.8","2:nogo_b","",""
"null","","html-keyboard-response","70","416328","0.0-4.0-1.10","","<img src=""img/green-r.png"">","null","trial","null","","0.2,0.8","2:nogo_b","1",""
"null","","html-keyboard-response","71","417329","0.0-4.0-2.10","","<div style=""font-size:60px;"">+</div>","null","","","","","","",""
"null","","image-keyboard-response","72","418830","0.0-4.0-0.11","","img/grey.png","null","trial","32","false","0.8,0.2","1:go_a","",""
"null","","html-keyboard-response","73","419831","0.0-4.0-1.11","","<img src=""img/grey-n.png"">","null","trial","32","","0.8,0.2","1:go_a","0",""
"null","","html-keyboard-response","74","420832","0.0-4.0-2.11","","<div style=""font-size:60px;"">+</div>","null","","","","","","",""
"null","","image-keyboard-response","75","422334","0.0-4.0-0.12","","img/grey.png","null","trial","32","false","0.8,0.2","1:go_a","",""
"null","","html-keyboard-response","76","423335","0.0-4.0-1.12","","<img src=""img/grey-n.png"">","null","trial","32","","0.8,0.2","1:go_a","0",""
"null","","html-keyboard-response","77","424335","0.0-4.0-2.12","","<div style=""font-size:60px;"">+</div>","null","","","","","","",""
"577.4550000060117","","image-keyboard-response","78","424913","0.0-4.0-0.13","","img/green.png","32","trial","null","false","0.2,0.8","2:nogo_b","",""
"null","","html-keyboard-response","79","425915","0.0-4.0-1.13","","<img src=""img/green-n.png"" border=""10"">","null","trial","null","","0.2,0.8","2:nogo_b","0",""
"null","","html-keyboard-response","80","426916","0.0-4.0-2.13","","<div style=""font-size:60px;"">+</div>","null","","","","","","",""
"null","","image-keyboard-response","81","428418","0.0-4.0-0.14","","img/grey.png","null","trial","32","false","0.8,0.2","1:go_a","",""
"null","","html-keyboard-response","82","429419","0.0-4.0-1.14","","<img src=""img/grey-n.png"">","null","trial","32","","0.8,0.2","1:go_a","0",""
"null","","html-keyboard-response","83","430420","0.0-4.0-2.14","","<div style=""font-size:60px;"">+</div>","null","","","","","","",""
"null","","image-keyboard-response","84","431921","0.0-4.0-0.15","","img/green.png","null","trial","null","true","0.2,0.8","2:nogo_b","",""
"null","","html-keyboard-response","85","432923","0.0-4.0-1.15","","<img src=""img/green-r.png"">","null","trial","null","","0.2,0.8","2:nogo_b","1",""
"null","","html-keyboard-response","86","433924","0.0-4.0-2.15","","<div style=""font-size:60px;"">+</div>","null","","","","","","",""
"null","","image-keyboard-response","87","435426","0.0-4.0-0.16","","img/green.png","null","trial","null","true","0.2,0.8","2:nogo_b","",""
"null","","html-keyboard-response","88","436427","0.0-4.0-1.16","","<img src=""img/green-n.png"">","null","trial","null","","0.2,0.8","2:nogo_b","0",""
"null","","html-keyboard-response","89","437429","0.0-4.0-2.16","","<div style=""font-size:60px;"">+</div>","null","","","","","","",""
"676.4149999944493","","image-keyboard-response","90","438106","0.0-4.0-0.17","","img/grey.png","32","trial","32","true","0.8,0.2","1:go_a","",""
"null","","html-keyboard-response","91","439107","0.0-4.0-1.17","","<img src=""img/grey-r.png"" border=""10"">","null","trial","32","","0.8,0.2","1:go_a","1",""
"null","","html-keyboard-response","92","440107","0.0-4.0-2.17","","<div style=""font-size:60px;"">+</div>","null","","","","","","",""
"413.2249999966007","","image-keyboard-response","93","440521","0.0-4.0-0.18","","img/grey.png","32","trial","32","true","0.8,0.2","1:go_a","",""
"null","","html-keyboard-response","94","441522","0.0-4.0-1.18","","<img src=""img/grey-r.png"" border=""10"">","null","trial","32","","0.8,0.2","1:go_a","1",""
"null","","html-keyboard-response","95","442523","0.0-4.0-2.18","","<div style=""font-size:60px;"">+</div>","null","","","","","","",""
"721.5099999884842","","image-keyboard-response","96","443245","0.0-4.0-0.19","","img/green.png","32","trial","null","false","0.2,0.8","2:nogo_b","",""
"null","","html-keyboard-response","97","444247","0.0-4.0-1.19","","<img src=""img/green-n.png"" border=""10"">","null","trial","null","","0.2,0.8","2:nogo_b","0",""
"null","","html-keyboard-response","98","445248","0.0-4.0-2.19","","<div style=""font-size:60px;"">+</div>","null","","","","","","",""
"1083.6549999949057","","image-keyboard-response","99","446332","0.0-4.0-0.20","","img/grey.png","32","trial","32","true","0.8,0.2","1:go_a","",""
"null","","html-keyboard-response","100","447332","0.0-4.0-1.20","","<img src=""img/grey-r.png"" border=""10"">","null","trial","32","","0.8,0.2","1:go_a","1",""
"null","","html-keyboard-response","101","448334","0.0-4.0-2.20","","<div style=""font-size:60px;"">+</div>","null","","","","","","",""
"null","","image-keyboard-response","102","449834","0.0-4.0-0.21","","img/green.png","null","trial","null","true","0.2,0.8","2:nogo_b","",""
"null","","html-keyboard-response","103","450836","0.0-4.0-1.21","","<img src=""img/green-r.png"">","null","trial","null","","0.2,0.8","2:nogo_b","1",""
"null","","html-keyboard-response","104","451837","0.0-4.0-2.21","","<div style=""font-size:60px;"">+</div>","null","","","","","","",""
"null","","image-keyboard-response","105","453338","0.0-4.0-0.22","","img/green.png","null","trial","null","true","0.2,0.8","2:nogo_b","",""
"null","","html-keyboard-response","106","454340","0.0-4.0-1.22","","<img src=""img/green-n.png"">","null","trial","null","","0.2,0.8","2:nogo_b","0",""
"null","","html-keyboard-response","107","455341","0.0-4.0-2.22","","<div style=""font-size:60px;"">+</div>","null","","","","","","",""
"648.5299999912968","","image-keyboard-response","108","455990","0.0-4.0-0.23","","img/grey.png","32","trial","32","true","0.8,0.2","1:go_a","",""
"null","","html-keyboard-response","109","456992","0.0-4.0-1.23","","<img src=""img/grey-n.png"" border=""10"">","null","trial","32","","0.8,0.2","1:go_a","0",""
"null","","html-keyboard-response","110","457993","0.0-4.0-2.23","","<div style=""font-size:60px;"">+</div>","null","","","","","","",""
"null","","image-keyboard-response","111","459495","0.0-4.0-0.24","","img/grey.png","null","trial","32","false","0.8,0.2","1:go_a","",""
"null","","html-keyboard-response","112","460497","0.0-4.0-1.24","","<img src=""img/grey-n.png"">","null","trial","32","","0.8,0.2","1:go_a","0",""
"null","","html-keyboard-response","113","461498","0.0-4.0-2.24","","<div style=""font-size:60px;"">+</div>","null","","","","","","",""
"592.9349999933038","","image-keyboard-response","114","462091","0.0-4.0-0.25","","img/green.png","32","trial","null","false","0.2,0.8","2:nogo_b","",""
"null","","html-keyboard-response","115","463093","0.0-4.0-1.25","","<img src=""img/green-r.png"" border=""10"">","null","trial","null","","0.2,0.8","2:nogo_b","1",""
"null","","html-keyboard-response","116","464094","0.0-4.0-2.25","","<div style=""font-size:60px;"">+</div>","null","","","","","","",""
"310.2450000005774","","image-keyboard-response","117","464405","0.0-4.0-0.26","","img/green.png","32","trial","null","false","0.2,0.8","2:nogo_b","",""
"null","","html-keyboard-response","118","465406","0.0-4.0-1.26","","<img src=""img/green-n.png"" border=""10"">","null","trial","null","","0.2,0.8","2:nogo_b","0",""
"null","","html-keyboard-response","119","466407","0.0-4.0-2.26","","<div style=""font-size:60px;"">+</div>","null","","","","","","",""
"333.5099999967497","","image-keyboard-response","120","466741","0.0-4.0-0.27","","img/grey.png","32","trial","32","true","0.8,0.2","1:go_a","",""
"null","","html-keyboard-response","121","467742","0.0-4.0-1.27","","<img src=""img/grey-r.png"" border=""10"">","null","trial","32","","0.8,0.2","1:go_a","1",""
"null","","html-keyboard-response","122","468743","0.0-4.0-2.27","","<div style=""font-size:60px;"">+</div>","null","","","","","","",""
"281.16500000760425","","image-keyboard-response","123","469025","0.0-4.0-0.28","","img/grey.png","32","trial","32","true","0.8,0.2","1:go_a","",""
"null","","html-keyboard-response","124","470026","0.0-4.0-1.28","","<img src=""img/grey-n.png"" border=""10"">","null","trial","32","","0.8,0.2","1:go_a","0",""
"null","","html-keyboard-response","125","471027","0.0-4.0-2.28","","<div style=""font-size:60px;"">+</div>","null","","","","","","",""
"1005.9349999937695","","image-keyboard-response","126","472034","0.0-4.0-0.29","","img/green.png","32","trial","null","false","0.2,0.8","2:nogo_b","",""
"null","","html-keyboard-response","127","473035","0.0-4.0-1.29","","<img src=""img/green-r.png"" border=""10"">","null","trial","null","","0.2,0.8","2:nogo_b","1",""
"null","","html-keyboard-response","128","474036","0.0-4.0-2.29","","<div style=""font-size:60px;"">+</div>","null","","","","","","",""
"535.7599999988452","","image-keyboard-response","129","474572","0.0-4.0-0.30","","img/green.png","32","trial","null","false","0.2,0.8","2:nogo_b","",""
"null","","html-keyboard-response","130","475574","0.0-4.0-1.30","","<img src=""img/green-n.png"" border=""10"">","null","trial","null","","0.2,0.8","2:nogo_b","0",""
"null","","html-keyboard-response","131","476574","0.0-4.0-2.30","","<div style=""font-size:60px;"">+</div>","null","","","","","","",""
"null","","image-keyboard-response","132","478076","0.0-4.0-0.31","","img/grey.png","null","trial","32","false","0.8,0.2","1:go_a","",""
"null","","html-keyboard-response","133","479077","0.0-4.0-1.31","","<img src=""img/grey-n.png"">","null","trial","32","","0.8,0.2","1:go_a","0",""
"null","","html-keyboard-response","134","480078","0.0-4.0-2.31","","<div style=""font-size:60px;"">+</div>","null","","","","","","",""
"755.7450000022072","","image-keyboard-response","135","480835","0.0-4.0-0.32","","img/green.png","32","trial","null","false","0.2,0.8","2:nogo_b","",""
"null","","html-keyboard-response","136","481836","0.0-4.0-1.32","","<img src=""img/green-n.png"" border=""10"">","null","trial","null","","0.2,0.8","2:nogo_b","0",""
"null","","html-keyboard-response","137","482837","0.0-4.0-2.32","","<div style=""font-size:60px;"">+</div>","null","","","","","","",""
"null","","image-keyboard-response","138","484338","0.0-4.0-0.33","","img/grey.png","null","trial","32","false","0.8,0.2","1:go_a","",""
"null","","html-keyboard-response","139","485340","0.0-4.0-1.33","","<img src=""img/grey-n.png"">","null","trial","32","","0.8,0.2","1:go_a","0",""
"null","","html-keyboard-response","140","486341","0.0-4.0-2.33","","<div style=""font-size:60px;"">+</div>","null","","","","","","",""
"992.2899999946821","","image-keyboard-response","141","487333","0.0-4.0-0.34","","img/green.png","32","trial","null","false","0.2,0.8","2:nogo_b","",""
"null","","html-keyboard-response","142","488335","0.0-4.0-1.34","","<img src=""img/green-n.png"" border=""10"">","null","trial","null","","0.2,0.8","2:nogo_b","0",""
"null","","html-keyboard-response","143","489335","0.0-4.0-2.34","","<div style=""font-size:60px;"">+</div>","null","","","","","","",""
"363.82500000763685","","image-keyboard-response","144","489699","0.0-4.0-0.35","","img/grey.png","32","trial","32","true","0.8,0.2","1:go_a","",""
"null","","html-keyboard-response","145","490701","0.0-4.0-1.35","","<img src=""img/grey-r.png"" border=""10"">","null","trial","32","","0.8,0.2","1:go_a","1",""
"null","","html-keyboard-response","146","491702","0.0-4.0-2.35","","<div style=""font-size:60px;"">+</div>","null","","","","","","",""
"387.6250000030268","","image-keyboard-response","147","492090","0.0-4.0-0.36","","img/grey.png","32","trial","32","true","0.8,0.2","1:go_a","",""
"null","","html-keyboard-response","148","493092","0.0-4.0-1.36","","<img src=""img/grey-r.png"" border=""10"">","null","trial","32","","0.8,0.2","1:go_a","1",""
"null","","html-keyboard-response","149","494093","0.0-4.0-2.36","","<div style=""font-size:60px;"">+</div>","null","","","","","","",""
"null","","image-keyboard-response","150","495594","0.0-4.0-0.37","","img/green.png","null","trial","null","true","0.2,0.8","2:nogo_b","",""
"null","","html-keyboard-response","151","496596","0.0-4.0-1.37","","<img src=""img/green-n.png"">","null","trial","null","","0.2,0.8","2:nogo_b","0",""
"null","","html-keyboard-response","152","497597","0.0-4.0-2.37","","<div style=""font-size:60px;"">+</div>","null","","","","","","",""
"383.254999993369","","image-keyboard-response","153","497981","0.0-4.0-0.38","","img/grey.png","32","trial","32","true","0.8,0.2","1:go_a","",""
"null","","html-keyboard-response","154","498982","0.0-4.0-1.38","","<img src=""img/grey-r.png"" border=""10"">","null","trial","32","","0.8,0.2","1:go_a","1",""
"null","","html-keyboard-response","155","499984","0.0-4.0-2.38","","<div style=""font-size:60px;"">+</div>","null","","","","","","",""
"null","","image-keyboard-response","156","501485","0.0-4.0-0.39","","img/green.png","null","trial","null","true","0.2,0.8","2:nogo_b","",""
"null","","html-keyboard-response","157","502486","0.0-4.0-1.39","","<img src=""img/green-n.png"">","null","trial","null","","0.2,0.8","2:nogo_b","0",""
"null","","html-keyboard-response","158","503487","0.0-4.0-2.39","","<div style=""font-size:60px;"">+</div>","null","","","","","","",""
"442.76999999419786","","image-keyboard-response","159","503931","0.0-4.0-0.40","","img/grey.png","32","trial","32","true","0.8,0.2","1:go_a","",""
"null","","html-keyboard-response","160","504933","0.0-4.0-1.40","","<img src=""img/grey-r.png"" border=""10"">","null","trial","32","","0.8,0.2","1:go_a","1",""
"null","","html-keyboard-response","161","505934","0.0-4.0-2.40","","<div style=""font-size:60px;"">+</div>","null","","","","","","",""
"null","","image-keyboard-response","162","507435","0.0-4.0-0.41","","img/green.png","null","trial","null","true","0.2,0.8","2:nogo_b","",""
"null","","html-keyboard-response","163","508436","0.0-4.0-1.41","","<img src=""img/green-n.png"">","null","trial","null","","0.2,0.8","2:nogo_b","0",""
"null","","html-keyboard-response","164","509437","0.0-4.0-2.41","","<div style=""font-size:60px;"">+</div>","null","","","","","","",""
"581.7749999987427","","image-keyboard-response","165","510019","0.0-4.0-0.42","","img/grey.png","32","trial","32","true","0.8,0.2","1:go_a","",""
"null","","html-keyboard-response","166","511021","0.0-4.0-1.42","","<img src=""img/grey-r.png"" border=""10"">","null","trial","32","","0.8,0.2","1:go_a","1",""
"null","","html-keyboard-response","167","512022","0.0-4.0-2.42","","<div style=""font-size:60px;"">+</div>","null","","","","","","",""
"null","","image-keyboard-response","168","513523","0.0-4.0-0.43","","img/green.png","null","trial","null","true","0.2,0.8","2:nogo_b","",""
"null","","html-keyboard-response","169","514524","0.0-4.0-1.43","","<img src=""img/green-r.png"">","null","trial","null","","0.2,0.8","2:nogo_b","1",""
"null","","html-keyboard-response","170","515525","0.0-4.0-2.43","","<div style=""font-size:60px;"">+</div>","null","","","","","","",""
"320.0300000025891","","image-keyboard-response","171","515846","0.0-4.0-0.44","","img/green.png","32","trial","null","false","0.2,0.8","2:nogo_b","",""
"null","","html-keyboard-response","172","516847","0.0-4.0-1.44","","<img src=""img/green-n.png"" border=""10"">","null","trial","null","","0.2,0.8","2:nogo_b","0",""
"null","","html-keyboard-response","173","517848","0.0-4.0-2.44","","<div style=""font-size:60px;"">+</div>","null","","","","","","",""
"null","","image-keyboard-response","174","519349","0.0-4.0-0.45","","img/grey.png","null","trial","32","false","0.8,0.2","1:go_a","",""
"null","","html-keyboard-response","175","520351","0.0-4.0-1.45","","<img src=""img/grey-n.png"">","null","trial","32","","0.8,0.2","1:go_a","0",""
"null","","html-keyboard-response","176","521352","0.0-4.0-2.45","","<div style=""font-size:60px;"">+</div>","null","","","","","","",""
"null","","image-keyboard-response","177","522853","0.0-4.0-0.46","","img/grey.png","null","trial","32","false","0.8,0.2","1:go_a","",""
"null","","html-keyboard-response","178","523854","0.0-4.0-1.46","","<img src=""img/grey-n.png"">","null","trial","32","","0.8,0.2","1:go_a","0",""
"null","","html-keyboard-response","179","524855","0.0-4.0-2.46","","<div style=""font-size:60px;"">+</div>","null","","","","","","",""
"632.2849999996834","","image-keyboard-response","180","525487","0.0-4.0-0.47","","img/green.png","32","trial","null","false","0.2,0.8","2:nogo_b","",""
"null","","html-keyboard-response","181","526489","0.0-4.0-1.47","","<img src=""img/green-n.png"" border=""10"">","null","trial","null","","0.2,0.8","2:nogo_b","0",""
"null","","html-keyboard-response","182","527490","0.0-4.0-2.47","","<div style=""font-size:60px;"">+</div>","null","","","","","","",""
"null","","image-keyboard-response","183","528992","0.0-4.0-0.48","","img/green.png","null","trial","null","true","0.2,0.8","2:nogo_b","",""
"null","","html-keyboard-response","184","529994","0.0-4.0-1.48","","<img src=""img/green-n.png"">","null","trial","null","","0.2,0.8","2:nogo_b","0",""
"null","","html-keyboard-response","185","530995","0.0-4.0-2.48","","<div style=""font-size:60px;"">+</div>","null","","","","","","",""
"949.7350000019651","","image-keyboard-response","186","531945","0.0-4.0-0.49","","img/grey.png","32","trial","32","true","0.8,0.2","1:go_a","",""
"null","","html-keyboard-response","187","532946","0.0-4.0-1.49","","<img src=""img/grey-r.png"" border=""10"">","null","trial","32","","0.8,0.2","1:go_a","1",""
"null","","html-keyboard-response","188","533947","0.0-4.0-2.49","","<div style=""font-size:60px;"">+</div>","null","","","","","","",""
"289.06999999890104","","image-keyboard-response","189","534237","0.0-4.0-0.50","","img/grey.png","32","trial","32","true","0.8,0.2","1:go_a","",""
"null","","html-keyboard-response","190","535239","0.0-4.0-1.50","","<img src=""img/grey-r.png"" border=""10"">","null","trial","32","","0.8,0.2","1:go_a","1",""
"null","","html-keyboard-response","191","536240","0.0-4.0-2.50","","<div style=""font-size:60px;"">+</div>","null","","","","","","",""
"null","","image-keyboard-response","192","537741","0.0-4.0-0.51","","img/green.png","null","trial","null","true","0.2,0.8","2:nogo_b","",""
"null","","html-keyboard-response","193","538742","0.0-4.0-1.51","","<img src=""img/green-r.png"">","null","trial","null","","0.2,0.8","2:nogo_b","1",""
"null","","html-keyboard-response","194","539744","0.0-4.0-2.51","","<div style=""font-size:60px;"">+</div>","null","","","","","","",""
"378.0499999993481","","image-keyboard-response","195","540122","0.0-4.0-0.52","","img/green.png","32","trial","null","false","0.2,0.8","2:nogo_b","",""
"null","","html-keyboard-response","196","541124","0.0-4.0-1.52","","<img src=""img/green-n.png"" border=""10"">","null","trial","null","","0.2,0.8","2:nogo_b","0",""
"null","","html-keyboard-response","197","542125","0.0-4.0-2.52","","<div style=""font-size:60px;"">+</div>","null","","","","","","",""
"781.0600000084378","","image-keyboard-response","198","542907","0.0-4.0-0.53","","img/grey.png","32","trial","32","true","0.8,0.2","1:go_a","",""
"null","","html-keyboard-response","199","543907","0.0-4.0-1.53","","<img src=""img/grey-r.png"" border=""10"">","null","trial","32","","0.8,0.2","1:go_a","1",""
"null","","html-keyboard-response","200","544908","0.0-4.0-2.53","","<div style=""font-size:60px;"">+</div>","null","","","","","","",""
"333.87000000220723","","image-keyboard-response","201","545242","0.0-4.0-0.54","","img/grey.png","32","trial","32","true","0.8,0.2","1:go_a","",""
"null","","html-keyboard-response","202","546243","0.0-4.0-1.54","","<img src=""img/grey-n.png"" border=""10"">","null","trial","32","","0.8,0.2","1:go_a","0",""
"null","","html-keyboard-response","203","547245","0.0-4.0-2.54","","<div style=""font-size:60px;"">+</div>","null","","","","","","",""
"681.5700000006473","","image-keyboard-response","204","547927","0.0-4.0-0.55","","img/green.png","32","trial","null","false","0.2,0.8","2:nogo_b","",""
"null","","html-keyboard-response","205","548928","0.0-4.0-1.55","","<img src=""img/green-n.png"" border=""10"">","null","trial","null","","0.2,0.8","2:nogo_b","0",""
"null","","html-keyboard-response","206","549929","0.0-4.0-2.55","","<div style=""font-size:60px;"">+</div>","null","","","","","","",""
"null","","image-keyboard-response","207","551430","0.0-4.0-0.56","","img/green.png","null","trial","null","true","0.2,0.8","2:nogo_b","",""
"null","","html-keyboard-response","208","552431","0.0-4.0-1.56","","<img src=""img/green-n.png"">","null","trial","null","","0.2,0.8","2:nogo_b","0",""
"null","","html-keyboard-response","209","553431","0.0-4.0-2.56","","<div style=""font-size:60px;"">+</div>","null","","","","","","",""
"null","","image-keyboard-response","210","554932","0.0-4.0-0.57","","img/grey.png","null","trial","32","false","0.8,0.2","1:go_a","",""
"null","","html-keyboard-response","211","555934","0.0-4.0-1.57","","<img src=""img/grey-n.png"">","null","trial","32","","0.8,0.2","1:go_a","0",""
"null","","html-keyboard-response","212","556935","0.0-4.0-2.57","","<div style=""font-size:60px;"">+</div>","null","","","","","","",""
"null","","image-keyboard-response","213","558436","0.0-4.0-0.58","","img/grey.png","null","trial","32","false","0.8,0.2","1:go_a","",""
"null","","html-keyboard-response","214","559437","0.0-4.0-1.58","","<img src=""img/grey-r.png"">","null","trial","32","","0.8,0.2","1:go_a","1",""
"null","","html-keyboard-response","215","560438","0.0-4.0-2.58","","<div style=""font-size:60px;"">+</div>","null","","","","","","",""
"null","","image-keyboard-response","216","561939","0.0-4.0-0.59","","img/green.png","null","trial","null","true","0.2,0.8","2:nogo_b","",""
"null","","html-keyboard-response","217","562941","0.0-4.0-1.59","","<img src=""img/green-n.png"">","null","trial","null","","0.2,0.8","2:nogo_b","0",""
"null","","html-keyboard-response","218","563942","0.0-4.0-2.59","","<div style=""font-size:60px;"">+</div>","null","","","","","","",""
"80957.38500000152","","instructions","219","644899","0.0-5.0","[{""page_index"":0,""viewing_time"":80957.19500000996}]","","","","","","","","",""
"875.9350000036648","","image-keyboard-response","220","645776","0.0-6.0-0.0","","img/orange.png","32","trial","null","false","0.2,0.8","2:nogo_b","",""
"null","","html-keyboard-response","221","646778","0.0-6.0-1.0","","<img src=""img/orange-n.png"" border=""10"">","null","trial","null","","0.2,0.8","2:nogo_b","0",""
"null","","html-keyboard-response","222","647779","0.0-6.0-2.0","","<div style=""font-size:60px;"">+</div>","null","","","","","","",""
"644.3700000090757","","image-keyboard-response","223","648424","0.0-6.0-0.1","","img/green.png","32","trial","null","false","0.2,0.8","4:nogo_d","",""
"null","","html-keyboard-response","224","649426","0.0-6.0-1.1","","<img src=""img/green-n.png"" border=""10"">","null","trial","null","","0.2,0.8","4:nogo_d","0",""
"null","","html-keyboard-response","225","650427","0.0-6.0-2.1","","<div style=""font-size:60px;"">+</div>","null","","","","","","",""
"524.265000000014","","image-keyboard-response","226","650952","0.0-6.0-0.2","","img/purple.png","32","trial","32","true","0.8,0.2","1:go_a","",""
"null","","html-keyboard-response","227","651954","0.0-6.0-1.2","","<img src=""img/purple-r.png"" border=""10"">","null","trial","32","","0.8,0.2","1:go_a","1",""
"null","","html-keyboard-response","228","652955","0.0-6.0-2.2","","<div style=""font-size:60px;"">+</div>","null","","","","","","",""
"1034.1199999966193","","image-keyboard-response","229","653989","0.0-6.0-0.3","","img/blue.png","32","trial","32","true","0.8,0.2","3:go_c","",""
"null","","html-keyboard-response","230","654990","0.0-6.0-1.3","","<img src=""img/blue-r.png"" border=""10"">","null","trial","32","","0.8,0.2","3:go_c","1",""
"null","","html-keyboard-response","231","655991","0.0-6.0-2.3","","<div style=""font-size:60px;"">+</div>","null","","","","","","",""
"575.9399999951711","","image-keyboard-response","232","656567","0.0-6.0-0.4","","img/purple.png","32","trial","32","true","0.8,0.2","1:go_a","",""
"null","","html-keyboard-response","233","657569","0.0-6.0-1.4","","<img src=""img/purple-r.png"" border=""10"">","null","trial","32","","0.8,0.2","1:go_a","1",""
"null","","html-keyboard-response","234","658570","0.0-6.0-2.4","","<div style=""font-size:60px;"">+</div>","null","","","","","","",""
"null","","image-keyboard-response","235","660071","0.0-6.0-0.5","","img/green.png","null","trial","null","true","0.2,0.8","4:nogo_d","",""
"null","","html-keyboard-response","236","661073","0.0-6.0-1.5","","<img src=""img/green-n.png"">","null","trial","null","","0.2,0.8","4:nogo_d","0",""
"null","","html-keyboard-response","237","662074","0.0-6.0-2.5","","<div style=""font-size:60px;"">+</div>","null","","","","","","",""
"null","","image-keyboard-response","238","663575","0.0-6.0-0.6","","img/orange.png","null","trial","null","true","0.2,0.8","2:nogo_b","",""
"null","","html-keyboard-response","239","664578","0.0-6.0-1.6","","<img src=""img/orange-n.png"">","null","trial","null","","0.2,0.8","2:nogo_b","0",""
"null","","html-keyboard-response","240","665578","0.0-6.0-2.6","","<div style=""font-size:60px;"">+</div>","null","","","","","","",""
"811.3650000013877","","image-keyboard-response","241","666390","0.0-6.0-0.7","","img/blue.png","32","trial","32","true","0.8,0.2","3:go_c","",""
"null","","html-keyboard-response","242","667390","0.0-6.0-1.7","","<img src=""img/blue-r.png"" border=""10"">","null","trial","32","","0.8,0.2","3:go_c","1",""
"null","","html-keyboard-response","243","668392","0.0-6.0-2.7","","<div style=""font-size:60px;"">+</div>","null","","","","","","",""
"null","","image-keyboard-response","244","669893","0.0-6.0-0.8","","img/green.png","null","trial","null","true","0.2,0.8","4:nogo_d","",""
"null","","html-keyboard-response","245","670894","0.0-6.0-1.8","","<img src=""img/green-n.png"">","null","trial","null","","0.2,0.8","4:nogo_d","0",""
"null","","html-keyboard-response","246","671895","0.0-6.0-2.8","","<div style=""font-size:60px;"">+</div>","null","","","","","","",""
"null","","image-keyboard-response","247","673396","0.0-6.0-0.9","","img/orange.png","null","trial","null","true","0.2,0.8","2:nogo_b","",""
"null","","html-keyboard-response","248","674397","0.0-6.0-1.9","","<img src=""img/orange-r.png"">","null","trial","null","","0.2,0.8","2:nogo_b","1",""
"null","","html-keyboard-response","249","675398","0.0-6.0-2.9","","<div style=""font-size:60px;"">+</div>","null","","","","","","",""
"617.1900000044843","","image-keyboard-response","250","676016","0.0-6.0-0.10","","img/blue.png","32","trial","32","true","0.8,0.2","3:go_c","",""
"null","","html-keyboard-response","251","677018","0.0-6.0-1.10","","<img src=""img/blue-r.png"" border=""10"">","null","trial","32","","0.8,0.2","3:go_c","1",""
"null","","html-keyboard-response","252","678019","0.0-6.0-2.10","","<div style=""font-size:60px;"">+</div>","null","","","","","","",""
"483.80500001076143","","image-keyboard-response","253","678504","0.0-6.0-0.11","","img/purple.png","32","trial","32","true","0.8,0.2","1:go_a","",""
"null","","html-keyboard-response","254","679505","0.0-6.0-1.11","","<img src=""img/purple-n.png"" border=""10"">","null","trial","32","","0.8,0.2","1:go_a","0",""
"null","","html-keyboard-response","255","680507","0.0-6.0-2.11","","<div style=""font-size:60px;"">+</div>","null","","","","","","",""
"681.9200000027195","","image-keyboard-response","256","681189","0.0-6.0-0.12","","img/blue.png","32","trial","32","true","0.8,0.2","3:go_c","",""
"null","","html-keyboard-response","257","682191","0.0-6.0-1.12","","<img src=""img/blue-r.png"" border=""10"">","null","trial","32","","0.8,0.2","3:go_c","1",""
"null","","html-keyboard-response","258","683192","0.0-6.0-2.12","","<div style=""font-size:60px;"">+</div>","null","","","","","","",""
"null","","image-keyboard-response","259","684693","0.0-6.0-0.13","","img/green.png","null","trial","null","true","0.2,0.8","4:nogo_d","",""
"null","","html-keyboard-response","260","685694","0.0-6.0-1.13","","<img src=""img/green-r.png"">","null","trial","null","","0.2,0.8","4:nogo_d","1",""
"null","","html-keyboard-response","261","686695","0.0-6.0-2.13","","<div style=""font-size:60px;"">+</div>","null","","","","","","",""
"740.7950000051642","","image-keyboard-response","262","687436","0.0-6.0-0.14","","img/orange.png","32","trial","null","false","0.2,0.8","2:nogo_b","",""
"null","","html-keyboard-response","263","688438","0.0-6.0-1.14","","<img src=""img/orange-n.png"" border=""10"">","null","trial","null","","0.2,0.8","2:nogo_b","0",""
"null","","html-keyboard-response","264","689439","0.0-6.0-2.14","","<div style=""font-size:60px;"">+</div>","null","","","","","","",""
"800.0250000040978","","image-keyboard-response","265","690239","0.0-6.0-0.15","","img/purple.png","32","trial","32","true","0.8,0.2","1:go_a","",""
"null","","html-keyboard-response","266","691241","0.0-6.0-1.15","","<img src=""img/purple-r.png"" border=""10"">","null","trial","32","","0.8,0.2","1:go_a","1",""
"null","","html-keyboard-response","267","692242","0.0-6.0-2.15","","<div style=""font-size:60px;"">+</div>","null","","","","","","",""
"null","","image-keyboard-response","268","693743","0.0-6.0-0.16","","img/orange.png","null","trial","null","true","0.2,0.8","2:nogo_b","",""
"null","","html-keyboard-response","269","694744","0.0-6.0-1.16","","<img src=""img/orange-r.png"">","null","trial","null","","0.2,0.8","2:nogo_b","1",""
"null","","html-keyboard-response","270","695745","0.0-6.0-2.16","","<div style=""font-size:60px;"">+</div>","null","","","","","","",""
"875.8499999967171","","image-keyboard-response","271","696621","0.0-6.0-0.17","","img/blue.png","32","trial","32","true","0.8,0.2","3:go_c","",""
"null","","html-keyboard-response","272","697623","0.0-6.0-1.17","","<img src=""img/blue-n.png"" border=""10"">","null","trial","32","","0.8,0.2","3:go_c","0",""
"null","","html-keyboard-response","273","698624","0.0-6.0-2.17","","<div style=""font-size:60px;"">+</div>","null","","","","","","",""
"null","","image-keyboard-response","274","700125","0.0-6.0-0.18","","img/green.png","null","trial","null","true","0.2,0.8","4:nogo_d","",""
"null","","html-keyboard-response","275","701132","0.0-6.0-1.18","","<img src=""img/green-r.png"">","null","trial","null","","0.2,0.8","4:nogo_d","1",""
"null","","html-keyboard-response","276","702133","0.0-6.0-2.18","","<div style=""font-size:60px;"">+</div>","null","","","","","","",""
"798.9549999911105","","image-keyboard-response","277","702933","0.0-6.0-0.19","","img/purple.png","32","trial","32","true","0.8,0.2","1:go_a","",""
"null","","html-keyboard-response","278","703934","0.0-6.0-1.19","","<img src=""img/purple-n.png"" border=""10"">","null","trial","32","","0.8,0.2","1:go_a","0",""
"null","","html-keyboard-response","279","704936","0.0-6.0-2.19","","<div style=""font-size:60px;"">+</div>","null","","","","","","",""
"null","","image-keyboard-response","280","706436","0.0-6.0-0.20","","img/purple.png","null","trial","32","false","0.8,0.2","1:go_a","",""
"null","","html-keyboard-response","281","707438","0.0-6.0-1.20","","<img src=""img/purple-n.png"">","null","trial","32","","0.8,0.2","1:go_a","0",""
"null","","html-keyboard-response","282","708439","0.0-6.0-2.20","","<div style=""font-size:60px;"">+</div>","null","","","","","","",""
"802.3249999969266","","image-keyboard-response","283","709242","0.0-6.0-0.21","","img/green.png","32","trial","null","false","0.2,0.8","4:nogo_d","",""
"null","","html-keyboard-response","284","710244","0.0-6.0-1.21","","<img src=""img/green-n.png"" border=""10"">","null","trial","null","","0.2,0.8","4:nogo_d","0",""
"null","","html-keyboard-response","285","711245","0.0-6.0-2.21","","<div style=""font-size:60px;"">+</div>","null","","","","","","",""
"584.4450000004144","","image-keyboard-response","286","711829","0.0-6.0-0.22","","img/orange.png","32","trial","null","false","0.2,0.8","2:nogo_b","",""
"null","","html-keyboard-response","287","712831","0.0-6.0-1.22","","<img src=""img/orange-n.png"" border=""10"">","null","trial","null","","0.2,0.8","2:nogo_b","0",""
"null","","html-keyboard-response","288","713832","0.0-6.0-2.22","","<div style=""font-size:60px;"">+</div>","null","","","","","","",""
"668.680000002496","","image-keyboard-response","289","714501","0.0-6.0-0.23","","img/blue.png","32","trial","32","true","0.8,0.2","3:go_c","",""
"null","","html-keyboard-response","290","715502","0.0-6.0-1.23","","<img src=""img/blue-r.png"" border=""10"">","null","trial","32","","0.8,0.2","3:go_c","1",""
"null","","html-keyboard-response","291","716503","0.0-6.0-2.23","","<div style=""font-size:60px;"">+</div>","null","","","","","","",""
"546.7250000074273","","image-keyboard-response","292","717050","0.0-6.0-0.24","","img/blue.png","32","trial","32","true","0.8,0.2","3:go_c","",""
"null","","html-keyboard-response","293","718052","0.0-6.0-1.24","","<img src=""img/blue-r.png"" border=""10"">","null","trial","32","","0.8,0.2","3:go_c","1",""
"null","","html-keyboard-response","294","719053","0.0-6.0-2.24","","<div style=""font-size:60px;"">+</div>","null","","","","","","",""
"null","","image-keyboard-response","295","720554","0.0-6.0-0.25","","img/green.png","null","trial","null","true","0.2,0.8","4:nogo_d","",""
"null","","html-keyboard-response","296","721556","0.0-6.0-1.25","","<img src=""img/green-r.png"">","null","trial","null","","0.2,0.8","4:nogo_d","1",""
"null","","html-keyboard-response","297","722557","0.0-6.0-2.25","","<div style=""font-size:60px;"">+</div>","null","","","","","","",""
"null","","image-keyboard-response","298","724060","0.0-6.0-0.26","","img/orange.png","null","trial","null","true","0.2,0.8","2:nogo_b","",""
"null","","html-keyboard-response","299","725060","0.0-6.0-1.26","","<img src=""img/orange-r.png"">","null","trial","null","","0.2,0.8","2:nogo_b","1",""
"null","","html-keyboard-response","300","726061","0.0-6.0-2.26","","<div style=""font-size:60px;"">+</div>","null","","","","","","",""
"null","","image-keyboard-response","301","727561","0.0-6.0-0.27","","img/purple.png","null","trial","32","false","0.8,0.2","1:go_a","",""
"null","","html-keyboard-response","302","728562","0.0-6.0-1.27","","<img src=""img/purple-n.png"">","null","trial","32","","0.8,0.2","1:go_a","0",""
"null","","html-keyboard-response","303","729564","0.0-6.0-2.27","","<div style=""font-size:60px;"">+</div>","null","","","","","","",""
"851.265000004787","","image-keyboard-response","304","730416","0.0-6.0-0.28","","img/blue.png","32","trial","32","true","0.8,0.2","3:go_c","",""
"null","","html-keyboard-response","305","731417","0.0-6.0-1.28","","<img src=""img/blue-r.png"" border=""10"">","null","trial","32","","0.8,0.2","3:go_c","1",""
"null","","html-keyboard-response","306","732418","0.0-6.0-2.28","","<div style=""font-size:60px;"">+</div>","null","","","","","","",""
"null","","image-keyboard-response","307","733919","0.0-6.0-0.29","","img/purple.png","null","trial","32","false","0.8,0.2","1:go_a","",""
"null","","html-keyboard-response","308","734921","0.0-6.0-1.29","","<img src=""img/purple-n.png"">","null","trial","32","","0.8,0.2","1:go_a","0",""
"null","","html-keyboard-response","309","735922","0.0-6.0-2.29","","<div style=""font-size:60px;"">+</div>","null","","","","","","",""
"589.7950000071432","","image-keyboard-response","310","736512","0.0-6.0-0.30","","img/orange.png","32","trial","null","false","0.2,0.8","2:nogo_b","",""
"null","","html-keyboard-response","311","737514","0.0-6.0-1.30","","<img src=""img/orange-n.png"" border=""10"">","null","trial","null","","0.2,0.8","2:nogo_b","0",""
"null","","html-keyboard-response","312","738514","0.0-6.0-2.30","","<div style=""font-size:60px;"">+</div>","null","","","","","","",""
"582.7799999970011","","image-keyboard-response","313","739097","0.0-6.0-0.31","","img/green.png","32","trial","null","false","0.2,0.8","4:nogo_d","",""
"null","","html-keyboard-response","314","740099","0.0-6.0-1.31","","<img src=""img/green-n.png"" border=""10"">","null","trial","null","","0.2,0.8","4:nogo_d","0",""
"null","","html-keyboard-response","315","741100","0.0-6.0-2.31","","<div style=""font-size:60px;"">+</div>","null","","","","","","",""
"null","","image-keyboard-response","316","742601","0.0-6.0-0.32","","img/green.png","null","trial","null","true","0.2,0.8","4:nogo_d","",""
"null","","html-keyboard-response","317","743602","0.0-6.0-1.32","","<img src=""img/green-r.png"">","null","trial","null","","0.2,0.8","4:nogo_d","1",""
"null","","html-keyboard-response","318","744603","0.0-6.0-2.32","","<div style=""font-size:60px;"">+</div>","null","","","","","","",""
"null","","image-keyboard-response","319","746104","0.0-6.0-0.33","","img/purple.png","null","trial","32","false","0.8,0.2","1:go_a","",""
"null","","html-keyboard-response","320","747105","0.0-6.0-1.33","","<img src=""img/purple-r.png"">","null","trial","32","","0.8,0.2","1:go_a","1",""
"null","","html-keyboard-response","321","748107","0.0-6.0-2.33","","<div style=""font-size:60px;"">+</div>","null","","","","","","",""
"947.2600000008242","","image-keyboard-response","322","749055","0.0-6.0-0.34","","img/orange.png","32","trial","null","false","0.2,0.8","2:nogo_b","",""
"null","","html-keyboard-response","323","750057","0.0-6.0-1.34","","<img src=""img/orange-r.png"" border=""10"">","null","trial","null","","0.2,0.8","2:nogo_b","1",""
"null","","html-keyboard-response","324","751057","0.0-6.0-2.34","","<div style=""font-size:60px;"">+</div>","null","","","","","","",""
"592.4299999896903","","image-keyboard-response","325","751650","0.0-6.0-0.35","","img/blue.png","32","trial","32","true","0.8,0.2","3:go_c","",""
"null","","html-keyboard-response","326","752653","0.0-6.0-1.35","","<img src=""img/blue-n.png"" border=""10"">","null","trial","32","","0.8,0.2","3:go_c","0",""
"null","","html-keyboard-response","327","753653","0.0-6.0-2.35","","<div style=""font-size:60px;"">+</div>","null","","","","","","",""
"null","","image-keyboard-response","328","755155","0.0-6.0-0.36","","img/orange.png","null","trial","null","true","0.2,0.8","2:nogo_b","",""
"null","","html-keyboard-response","329","756156","0.0-6.0-1.36","","<img src=""img/orange-n.png"">","null","trial","null","","0.2,0.8","2:nogo_b","0",""
"null","","html-keyboard-response","330","757157","0.0-6.0-2.36","","<div style=""font-size:60px;"">+</div>","null","","","","","","",""
"697.3649999999907","","image-keyboard-response","331","757855","0.0-6.0-0.37","","img/purple.png","32","trial","32","true","0.8,0.2","1:go_a","",""
"null","","html-keyboard-response","332","758856","0.0-6.0-1.37","","<img src=""img/purple-n.png"" border=""10"">","null","trial","32","","0.8,0.2","1:go_a","0",""
"null","","html-keyboard-response","333","759858","0.0-6.0-2.37","","<div style=""font-size:60px;"">+</div>","null","","","","","","",""
"null","","image-keyboard-response","334","761359","0.0-6.0-0.38","","img/blue.png","null","trial","32","false","0.8,0.2","3:go_c","",""
"null","","html-keyboard-response","335","762360","0.0-6.0-1.38","","<img src=""img/blue-n.png"">","null","trial","32","","0.8,0.2","3:go_c","0",""
"null","","html-keyboard-response","336","763362","0.0-6.0-2.38","","<div style=""font-size:60px;"">+</div>","null","","","","","","",""
"679.2750000022352","","image-keyboard-response","337","764041","0.0-6.0-0.39","","img/green.png","32","trial","null","false","0.2,0.8","4:nogo_d","",""
"null","","html-keyboard-response","338","765043","0.0-6.0-1.39","","<img src=""img/green-n.png"" border=""10"">","null","trial","null","","0.2,0.8","4:nogo_d","0",""
"null","","html-keyboard-response","339","766044","0.0-6.0-2.39","","<div style=""font-size:60px;"">+</div>","null","","","","","","",""
"619.1749999998137","","image-keyboard-response","340","766663","0.0-6.0-0.40","","img/purple.png","32","trial","32","true","0.8,0.2","1:go_a","",""
"null","","html-keyboard-response","341","767664","0.0-6.0-1.40","","<img src=""img/purple-r.png"" border=""10"">","null","trial","32","","0.8,0.2","1:go_a","1",""
"null","","html-keyboard-response","342","768665","0.0-6.0-2.40","","<div style=""font-size:60px;"">+</div>","null","","","","","","",""
"480.27499999443535","","image-keyboard-response","343","769146","0.0-6.0-0.41","","img/blue.png","32","trial","32","true","0.8,0.2","3:go_c","",""
"null","","html-keyboard-response","344","770148","0.0-6.0-1.41","","<img src=""img/blue-r.png"" border=""10"">","null","trial","32","","0.8,0.2","3:go_c","1",""
"null","","html-keyboard-response","345","771149","0.0-6.0-2.41","","<div style=""font-size:60px;"">+</div>","null","","","","","","",""
"745.8299999998417","","image-keyboard-response","346","771895","0.0-6.0-0.42","","img/orange.png","32","trial","null","false","0.2,0.8","2:nogo_b","",""
"null","","html-keyboard-response","347","772897","0.0-6.0-1.42","","<img src=""img/orange-n.png"" border=""10"">","null","trial","null","","0.2,0.8","2:nogo_b","0",""
"null","","html-keyboard-response","348","773898","0.0-6.0-2.42","","<div style=""font-size:60px;"">+</div>","null","","","","","","",""
"null","","image-keyboard-response","349","775399","0.0-6.0-0.43","","img/green.png","null","trial","null","true","0.2,0.8","4:nogo_d","",""
"null","","html-keyboard-response","350","776400","0.0-6.0-1.43","","<img src=""img/green-r.png"">","null","trial","null","","0.2,0.8","4:nogo_d","1",""
"null","","html-keyboard-response","351","777400","0.0-6.0-2.43","","<div style=""font-size:60px;"">+</div>","null","","","","","","",""
"null","","image-keyboard-response","352","778902","0.0-6.0-0.44","","img/green.png","null","trial","null","true","0.2,0.8","4:nogo_d","",""
"null","","html-keyboard-response","353","779903","0.0-6.0-1.44","","<img src=""img/green-r.png"">","null","trial","null","","0.2,0.8","4:nogo_d","1",""
"null","","html-keyboard-response","354","780905","0.0-6.0-2.44","","<div style=""font-size:60px;"">+</div>","null","","","","","","",""
"848.375000001397","","image-keyboard-response","355","781753","0.0-6.0-0.45","","img/blue.png","32","trial","32","true","0.8,0.2","3:go_c","",""
"null","","html-keyboard-response","356","782755","0.0-6.0-1.45","","<img src=""img/blue-r.png"" border=""10"">","null","trial","32","","0.8,0.2","3:go_c","1",""
"null","","html-keyboard-response","357","783757","0.0-6.0-2.45","","<div style=""font-size:60px;"">+</div>","null","","","","","","",""
"null","","image-keyboard-response","358","785258","0.0-6.0-0.46","","img/purple.png","null","trial","32","false","0.8,0.2","1:go_a","",""
"null","","html-keyboard-response","359","786260","0.0-6.0-1.46","","<img src=""img/purple-n.png"">","null","trial","32","","0.8,0.2","1:go_a","0",""
"null","","html-keyboard-response","360","787261","0.0-6.0-2.46","","<div style=""font-size:60px;"">+</div>","null","","","","","","",""
"null","","image-keyboard-response","361","788763","0.0-6.0-0.47","","img/orange.png","null","trial","null","true","0.2,0.8","2:nogo_b","",""
"null","","html-keyboard-response","362","789765","0.0-6.0-1.47","","<img src=""img/orange-r.png"">","null","trial","null","","0.2,0.8","2:nogo_b","1",""
"null","","html-keyboard-response","363","790765","0.0-6.0-2.47","","<div style=""font-size:60px;"">+</div>","null","","","","","","",""
"782.0100000099046","","image-keyboard-response","364","791548","0.0-6.0-0.48","","img/orange.png","32","trial","null","false","0.2,0.8","2:nogo_b","",""
"null","","html-keyboard-response","365","792550","0.0-6.0-1.48","","<img src=""img/orange-n.png"" border=""10"">","null","trial","null","","0.2,0.8","2:nogo_b","0",""
"null","","html-keyboard-response","366","793550","0.0-6.0-2.48","","<div style=""font-size:60px;"">+</div>","null","","","","","","",""
"763.4799999941606","","image-keyboard-response","367","794314","0.0-6.0-0.49","","img/purple.png","32","trial","32","true","0.8,0.2","1:go_a","",""
"null","","html-keyboard-response","368","795316","0.0-6.0-1.49","","<img src=""img/purple-r.png"" border=""10"">","null","trial","32","","0.8,0.2","1:go_a","1",""
"null","","html-keyboard-response","369","796317","0.0-6.0-2.49","","<div style=""font-size:60px;"">+</div>","null","","","","","","",""
"null","","image-keyboard-response","370","797818","0.0-6.0-0.50","","img/green.png","null","trial","null","true","0.2,0.8","4:nogo_d","",""
"null","","html-keyboard-response","371","798820","0.0-6.0-1.50","","<img src=""img/green-r.png"">","null","trial","null","","0.2,0.8","4:nogo_d","1",""
"null","","html-keyboard-response","372","799821","0.0-6.0-2.50","","<div style=""font-size:60px;"">+</div>","null","","","","","","",""
"601.7850000062026","","image-keyboard-response","373","800424","0.0-6.0-0.51","","img/blue.png","32","trial","32","true","0.8,0.2","3:go_c","",""
"null","","html-keyboard-response","374","801425","0.0-6.0-1.51","","<img src=""img/blue-r.png"" border=""10"">","null","trial","32","","0.8,0.2","3:go_c","1",""
"null","","html-keyboard-response","375","802427","0.0-6.0-2.51","","<div style=""font-size:60px;"">+</div>","null","","","","","","",""
"null","","image-keyboard-response","376","803928","0.0-6.0-0.52","","img/purple.png","null","trial","32","false","0.8,0.2","1:go_a","",""
"null","","html-keyboard-response","377","804930","0.0-6.0-1.52","","<img src=""img/purple-n.png"">","null","trial","32","","0.8,0.2","1:go_a","0",""
"null","","html-keyboard-response","378","805930","0.0-6.0-2.52","","<div style=""font-size:60px;"">+</div>","null","","","","","","",""
"null","","image-keyboard-response","379","807432","0.0-6.0-0.53","","img/orange.png","null","trial","null","true","0.2,0.8","2:nogo_b","",""
"null","","html-keyboard-response","380","808433","0.0-6.0-1.53","","<img src=""img/orange-r.png"">","null","trial","null","","0.2,0.8","2:nogo_b","1",""
"null","","html-keyboard-response","381","809435","0.0-6.0-2.53","","<div style=""font-size:60px;"">+</div>","null","","","","","","",""
"null","","image-keyboard-response","382","810936","0.0-6.0-0.54","","img/green.png","null","trial","null","true","0.2,0.8","4:nogo_d","",""
"null","","html-keyboard-response","383","811937","0.0-6.0-1.54","","<img src=""img/green-n.png"">","null","trial","null","","0.2,0.8","4:nogo_d","0",""
"null","","html-keyboard-response","384","812938","0.0-6.0-2.54","","<div style=""font-size:60px;"">+</div>","null","","","","","","",""
"647.4600000074133","","image-keyboard-response","385","813586","0.0-6.0-0.55","","img/blue.png","32","trial","32","true","0.8,0.2","3:go_c","",""
"null","","html-keyboard-response","386","814587","0.0-6.0-1.55","","<img src=""img/blue-r.png"" border=""10"">","null","trial","32","","0.8,0.2","3:go_c","1",""
"null","","html-keyboard-response","387","815588","0.0-6.0-2.55","","<div style=""font-size:60px;"">+</div>","null","","","","","","",""
"null","","image-keyboard-response","388","817090","0.0-6.0-0.56","","img/green.png","null","trial","null","true","0.2,0.8","4:nogo_d","",""
"null","","html-keyboard-response","389","818092","0.0-6.0-1.56","","<img src=""img/green-r.png"">","null","trial","null","","0.2,0.8","4:nogo_d","1",""
"null","","html-keyboard-response","390","819093","0.0-6.0-2.56","","<div style=""font-size:60px;"">+</div>","null","","","","","","",""
"982.1599999995669","","image-keyboard-response","391","820075","0.0-6.0-0.57","","img/purple.png","32","trial","32","true","0.8,0.2","1:go_a","",""
"null","","html-keyboard-response","392","821077","0.0-6.0-1.57","","<img src=""img/purple-r.png"" border=""10"">","null","trial","32","","0.8,0.2","1:go_a","1",""
"null","","html-keyboard-response","393","822078","0.0-6.0-2.57","","<div style=""font-size:60px;"">+</div>","null","","","","","","",""
"608.8199999940116","","image-keyboard-response","394","822687","0.0-6.0-0.58","","img/orange.png","32","trial","null","false","0.2,0.8","2:nogo_b","",""
"null","","html-keyboard-response","395","823689","0.0-6.0-1.58","","<img src=""img/orange-n.png"" border=""10"">","null","trial","null","","0.2,0.8","2:nogo_b","0",""
"null","","html-keyboard-response","396","824689","0.0-6.0-2.58","","<div style=""font-size:60px;"">+</div>","null","","","","","","",""
"522.1000000019558","","image-keyboard-response","397","825212","0.0-6.0-0.59","","img/blue.png","32","trial","32","true","0.8,0.2","3:go_c","",""
"null","","html-keyboard-response","398","826214","0.0-6.0-1.59","","<img src=""img/blue-n.png"" border=""10"">","null","trial","32","","0.8,0.2","3:go_c","0",""
"null","","html-keyboard-response","399","827215","0.0-6.0-2.59","","<div style=""font-size:60px;"">+</div>","null","","","","","","",""
"null","","image-keyboard-response","400","828716","0.0-6.0-0.60","","img/blue.png","null","trial","32","false","0.8,0.2","3:go_c","",""
"null","","html-keyboard-response","401","829718","0.0-6.0-1.60","","<img src=""img/blue-n.png"">","null","trial","32","","0.8,0.2","3:go_c","0",""
"null","","html-keyboard-response","402","830718","0.0-6.0-2.60","","<div style=""font-size:60px;"">+</div>","null","","","","","","",""
"633.62499998766","","image-keyboard-response","403","831352","0.0-6.0-0.61","","img/orange.png","32","trial","null","false","0.2,0.8","2:nogo_b","",""
"null","","html-keyboard-response","404","832353","0.0-6.0-1.61","","<img src=""img/orange-r.png"" border=""10"">","null","trial","null","","0.2,0.8","2:nogo_b","1",""
"null","","html-keyboard-response","405","833354","0.0-6.0-2.61","","<div style=""font-size:60px;"">+</div>","null","","","","","","",""
"745.4949999955716","","image-keyboard-response","406","834100","0.0-6.0-0.62","","img/green.png","32","trial","null","false","0.2,0.8","4:nogo_d","",""
"null","","html-keyboard-response","407","835102","0.0-6.0-1.62","","<img src=""img/green-n.png"" border=""10"">","null","trial","null","","0.2,0.8","4:nogo_d","0",""
"null","","html-keyboard-response","408","836103","0.0-6.0-2.62","","<div style=""font-size:60px;"">+</div>","null","","","","","","",""
"692.6899999962188","","image-keyboard-response","409","836796","0.0-6.0-0.63","","img/purple.png","32","trial","32","true","0.8,0.2","1:go_a","",""
"null","","html-keyboard-response","410","837798","0.0-6.0-1.63","","<img src=""img/purple-r.png"" border=""10"">","null","trial","32","","0.8,0.2","1:go_a","1",""
"null","","html-keyboard-response","411","838799","0.0-6.0-2.63","","<div style=""font-size:60px;"">+</div>","null","","","","","","",""
"null","","image-keyboard-response","412","840300","0.0-6.0-0.64","","img/orange.png","null","trial","null","true","0.2,0.8","2:nogo_b","",""
"null","","html-keyboard-response","413","841302","0.0-6.0-1.64","","<img src=""img/orange-r.png"">","null","trial","null","","0.2,0.8","2:nogo_b","1",""
"null","","html-keyboard-response","414","842302","0.0-6.0-2.64","","<div style=""font-size:60px;"">+</div>","null","","","","","","",""
"null","","image-keyboard-response","415","843804","0.0-6.0-0.65","","img/green.png","null","trial","null","true","0.2,0.8","4:nogo_d","",""
"null","","html-keyboard-response","416","844805","0.0-6.0-1.65","","<img src=""img/green-r.png"">","null","trial","null","","0.2,0.8","4:nogo_d","1",""
"null","","html-keyboard-response","417","845806","0.0-6.0-2.65","","<div style=""font-size:60px;"">+</div>","null","","","","","","",""
"886.4549999998417","","image-keyboard-response","418","846694","0.0-6.0-0.66","","img/purple.png","32","trial","32","true","0.8,0.2","1:go_a","",""
"null","","html-keyboard-response","419","847695","0.0-6.0-1.66","","<img src=""img/purple-r.png"" border=""10"">","null","trial","32","","0.8,0.2","1:go_a","1",""
"null","","html-keyboard-response","420","848697","0.0-6.0-2.66","","<div style=""font-size:60px;"">+</div>","null","","","","","","",""
"594.1349999920931","","image-keyboard-response","421","849291","0.0-6.0-0.67","","img/blue.png","32","trial","32","true","0.8,0.2","3:go_c","",""
"null","","html-keyboard-response","422","850293","0.0-6.0-1.67","","<img src=""img/blue-r.png"" border=""10"">","null","trial","32","","0.8,0.2","3:go_c","1",""
"null","","html-keyboard-response","423","851294","0.0-6.0-2.67","","<div style=""font-size:60px;"">+</div>","null","","","","","","",""
"null","","image-keyboard-response","424","852796","0.0-6.0-0.68","","img/green.png","null","trial","null","true","0.2,0.8","4:nogo_d","",""
"null","","html-keyboard-response","425","853797","0.0-6.0-1.68","","<img src=""img/green-r.png"">","null","trial","null","","0.2,0.8","4:nogo_d","1",""
"null","","html-keyboard-response","426","854798","0.0-6.0-2.68","","<div style=""font-size:60px;"">+</div>","null","","","","","","",""
"1077.8050000080839","","image-keyboard-response","427","855876","0.0-6.0-0.69","","img/orange.png","32","trial","null","false","0.2,0.8","2:nogo_b","",""
"null","","html-keyboard-response","428","856878","0.0-6.0-1.69","","<img src=""img/orange-n.png"" border=""10"">","null","trial","null","","0.2,0.8","2:nogo_b","0",""
"null","","html-keyboard-response","429","857879","0.0-6.0-2.69","","<div style=""font-size:60px;"">+</div>","null","","","","","","",""
"748.699999996461","","image-keyboard-response","430","858628","0.0-6.0-0.70","","img/purple.png","32","trial","32","true","0.8,0.2","1:go_a","",""
"null","","html-keyboard-response","431","859631","0.0-6.0-1.70","","<img src=""img/purple-r.png"" border=""10"">","null","trial","32","","0.8,0.2","1:go_a","1",""
"null","","html-keyboard-response","432","860632","0.0-6.0-2.70","","<div style=""font-size:60px;"">+</div>","null","","","","","","",""
"337.2150000068359","","image-keyboard-response","433","860969","0.0-6.0-0.71","","img/blue.png","32","trial","32","true","0.8,0.2","3:go_c","",""
"null","","html-keyboard-response","434","861971","0.0-6.0-1.71","","<img src=""img/blue-r.png"" border=""10"">","null","trial","32","","0.8,0.2","3:go_c","1",""
"null","","html-keyboard-response","435","862972","0.0-6.0-2.71","","<div style=""font-size:60px;"">+</div>","null","","","","","","",""
"755.5949999950826","","image-keyboard-response","436","863728","0.0-6.0-0.72","","img/purple.png","32","trial","32","true","0.8,0.2","1:go_a","",""
"null","","html-keyboard-response","437","864730","0.0-6.0-1.72","","<img src=""img/purple-r.png"" border=""10"">","null","trial","32","","0.8,0.2","1:go_a","1",""
"null","","html-keyboard-response","438","865731","0.0-6.0-2.72","","<div style=""font-size:60px;"">+</div>","null","","","","","","",""
"null","","image-keyboard-response","439","867233","0.0-6.0-0.73","","img/green.png","null","trial","null","true","0.2,0.8","4:nogo_d","",""
"null","","html-keyboard-response","440","868234","0.0-6.0-1.73","","<img src=""img/green-r.png"">","null","trial","null","","0.2,0.8","4:nogo_d","1",""
"null","","html-keyboard-response","441","869236","0.0-6.0-2.73","","<div style=""font-size:60px;"">+</div>","null","","","","","","",""
"null","","image-keyboard-response","442","870737","0.0-6.0-0.74","","img/orange.png","null","trial","null","true","0.2,0.8","2:nogo_b","",""
"null","","html-keyboard-response","443","871739","0.0-6.0-1.74","","<img src=""img/orange-r.png"">","null","trial","null","","0.2,0.8","2:nogo_b","1",""
"null","","html-keyboard-response","444","872740","0.0-6.0-2.74","","<div style=""font-size:60px;"">+</div>","null","","","","","","",""
"543.0249999917578","","image-keyboard-response","445","873283","0.0-6.0-0.75","","img/blue.png","32","trial","32","true","0.8,0.2","3:go_c","",""
"null","","html-keyboard-response","446","874285","0.0-6.0-1.75","","<img src=""img/blue-r.png"" border=""10"">","null","trial","32","","0.8,0.2","3:go_c","1",""
"null","","html-keyboard-response","447","875286","0.0-6.0-2.75","","<div style=""font-size:60px;"">+</div>","null","","","","","","",""
"538.8499999971827","","image-keyboard-response","448","875825","0.0-6.0-0.76","","img/purple.png","32","trial","32","true","0.8,0.2","1:go_a","",""
"null","","html-keyboard-response","449","876826","0.0-6.0-1.76","","<img src=""img/purple-n.png"" border=""10"">","null","trial","32","","0.8,0.2","1:go_a","0",""
"null","","html-keyboard-response","450","877827","0.0-6.0-2.76","","<div style=""font-size:60px;"">+</div>","null","","","","","","",""
"1034.5450000022538","","image-keyboard-response","451","878862","0.0-6.0-0.77","","img/green.png","32","trial","null","false","0.2,0.8","4:nogo_d","",""
"null","","html-keyboard-response","452","879863","0.0-6.0-1.77","","<img src=""img/green-n.png"" border=""10"">","null","trial","null","","0.2,0.8","4:nogo_d","0",""
"null","","html-keyboard-response","453","880865","0.0-6.0-2.77","","<div style=""font-size:60px;"">+</div>","null","","","","","","",""
"null","","image-keyboard-response","454","882366","0.0-6.0-0.78","","img/orange.png","null","trial","null","true","0.2,0.8","2:nogo_b","",""
"null","","html-keyboard-response","455","883367","0.0-6.0-1.78","","<img src=""img/orange-r.png"">","null","trial","null","","0.2,0.8","2:nogo_b","1",""
"null","","html-keyboard-response","456","884368","0.0-6.0-2.78","","<div style=""font-size:60px;"">+</div>","null","","","","","","",""
"766.23500000278","","image-keyboard-response","457","885134","0.0-6.0-0.79","","img/blue.png","32","trial","32","true","0.8,0.2","3:go_c","",""
"null","","html-keyboard-response","458","886136","0.0-6.0-1.79","","<img src=""img/blue-r.png"" border=""10"">","null","trial","32","","0.8,0.2","3:go_c","1",""
"null","","html-keyboard-response","459","887137","0.0-6.0-2.79","","<div style=""font-size:60px;"">+</div>","null","","","","","","",""
"700.7600000069942","","image-keyboard-response","460","887839","0.0-6.0-0.80","","img/orange.png","32","trial","null","false","0.2,0.8","2:nogo_b","",""
"null","","html-keyboard-response","461","888840","0.0-6.0-1.80","","<img src=""img/orange-n.png"" border=""10"">","null","trial","null","","0.2,0.8","2:nogo_b","0",""
"null","","html-keyboard-response","462","889841","0.0-6.0-2.80","","<div style=""font-size:60px;"">+</div>","null","","","","","","",""
"null","","image-keyboard-response","463","891342","0.0-6.0-0.81","","img/blue.png","null","trial","32","false","0.8,0.2","3:go_c","",""
"null","","html-keyboard-response","464","892344","0.0-6.0-1.81","","<img src=""img/blue-n.png"">","null","trial","32","","0.8,0.2","3:go_c","0",""
"null","","html-keyboard-response","465","893345","0.0-6.0-2.81","","<div style=""font-size:60px;"">+</div>","null","","","","","","",""
"689.9050000065472","","image-keyboard-response","466","894035","0.0-6.0-0.82","","img/purple.png","32","trial","32","true","0.8,0.2","1:go_a","",""
"null","","html-keyboard-response","467","895036","0.0-6.0-1.82","","<img src=""img/purple-r.png"" border=""10"">","null","trial","32","","0.8,0.2","1:go_a","1",""
"null","","html-keyboard-response","468","896037","0.0-6.0-2.82","","<div style=""font-size:60px;"">+</div>","null","","","","","","",""
"null","","image-keyboard-response","469","897538","0.0-6.0-0.83","","img/green.png","null","trial","null","true","0.2,0.8","4:nogo_d","",""
"null","","html-keyboard-response","470","898540","0.0-6.0-1.83","","<img src=""img/green-r.png"">","null","trial","null","","0.2,0.8","4:nogo_d","1",""
"null","","html-keyboard-response","471","899542","0.0-6.0-2.83","","<div style=""font-size:60px;"">+</div>","null","","","","","","",""
"743.5050000058254","","image-keyboard-response","472","900286","0.0-6.0-0.84","","img/purple.png","32","trial","32","true","0.8,0.2","1:go_a","",""
"null","","html-keyboard-response","473","901287","0.0-6.0-1.84","","<img src=""img/purple-r.png"" border=""10"">","null","trial","32","","0.8,0.2","1:go_a","1",""
"null","","html-keyboard-response","474","902288","0.0-6.0-2.84","","<div style=""font-size:60px;"">+</div>","null","","","","","","",""
"679.0299999993294","","image-keyboard-response","475","902968","0.0-6.0-0.85","","img/blue.png","32","trial","32","true","0.8,0.2","3:go_c","",""
"null","","html-keyboard-response","476","903969","0.0-6.0-1.85","","<img src=""img/blue-r.png"" border=""10"">","null","trial","32","","0.8,0.2","3:go_c","1",""
"null","","html-keyboard-response","477","904970","0.0-6.0-2.85","","<div style=""font-size:60px;"">+</div>","null","","","","","","",""
"null","","image-keyboard-response","478","906471","0.0-6.0-0.86","","img/orange.png","null","trial","null","true","0.2,0.8","2:nogo_b","",""
"null","","html-keyboard-response","479","907472","0.0-6.0-1.86","","<img src=""img/orange-n.png"">","null","trial","null","","0.2,0.8","2:nogo_b","0",""
"null","","html-keyboard-response","480","908474","0.0-6.0-2.86","","<div style=""font-size:60px;"">+</div>","null","","","","","","",""
"992.8949999884935","","image-keyboard-response","481","909467","0.0-6.0-0.87","","img/green.png","32","trial","null","false","0.2,0.8","4:nogo_d","",""
"null","","html-keyboard-response","482","910469","0.0-6.0-1.87","","<img src=""img/green-n.png"" border=""10"">","null","trial","null","","0.2,0.8","4:nogo_d","0",""
"null","","html-keyboard-response","483","911470","0.0-6.0-2.87","","<div style=""font-size:60px;"">+</div>","null","","","","","","",""
"null","","image-keyboard-response","484","912971","0.0-6.0-0.88","","img/orange.png","null","trial","null","true","0.2,0.8","2:nogo_b","",""
"null","","html-keyboard-response","485","913972","0.0-6.0-1.88","","<img src=""img/orange-r.png"">","null","trial","null","","0.2,0.8","2:nogo_b","1",""
"null","","html-keyboard-response","486","914973","0.0-6.0-2.88","","<div style=""font-size:60px;"">+</div>","null","","","","","","",""
"null","","image-keyboard-response","487","916474","0.0-6.0-0.89","","img/green.png","null","trial","null","true","0.2,0.8","4:nogo_d","",""
"null","","html-keyboard-response","488","917475","0.0-6.0-1.89","","<img src=""img/green-r.png"">","null","trial","null","","0.2,0.8","4:nogo_d","1",""
"null","","html-keyboard-response","489","918476","0.0-6.0-2.89","","<div style=""font-size:60px;"">+</div>","null","","","","","","",""
"693.2149999920512","","image-keyboard-response","490","919170","0.0-6.0-0.90","","img/blue.png","32","trial","32","true","0.8,0.2","3:go_c","",""
"null","","html-keyboard-response","491","920171","0.0-6.0-1.90","","<img src=""img/blue-r.png"" border=""10"">","null","trial","32","","0.8,0.2","3:go_c","1",""
"null","","html-keyboard-response","492","921172","0.0-6.0-2.90","","<div style=""font-size:60px;"">+</div>","null","","","","","","",""
"502.8650000022026","","image-keyboard-response","493","921675","0.0-6.0-0.91","","img/purple.png","32","trial","32","true","0.8,0.2","1:go_a","",""
"null","","html-keyboard-response","494","922677","0.0-6.0-1.91","","<img src=""img/purple-r.png"" border=""10"">","null","trial","32","","0.8,0.2","1:go_a","1",""
"null","","html-keyboard-response","495","923679","0.0-6.0-2.91","","<div style=""font-size:60px;"">+</div>","null","","","","","","",""
"null","","image-keyboard-response","496","925180","0.0-6.0-0.92","","img/green.png","null","trial","null","true","0.2,0.8","4:nogo_d","",""
"null","","html-keyboard-response","497","926182","0.0-6.0-1.92","","<img src=""img/green-r.png"">","null","trial","null","","0.2,0.8","4:nogo_d","1",""
"null","","html-keyboard-response","498","927183","0.0-6.0-2.92","","<div style=""font-size:60px;"">+</div>","null","","","","","","",""
"643.5600000113482","","image-keyboard-response","499","927827","0.0-6.0-0.93","","img/purple.png","32","trial","32","true","0.8,0.2","1:go_a","",""
"null","","html-keyboard-response","500","928828","0.0-6.0-1.93","","<img src=""img/purple-r.png"" border=""10"">","null","trial","32","","0.8,0.2","1:go_a","1",""
"null","","html-keyboard-response","501","929829","0.0-6.0-2.93","","<div style=""font-size:60px;"">+</div>","null","","","","","","",""
"1358.6950000026263","","image-keyboard-response","502","931189","0.0-6.0-0.94","","img/orange.png","32","trial","null","false","0.2,0.8","2:nogo_b","",""
"null","","html-keyboard-response","503","932191","0.0-6.0-1.94","","<img src=""img/orange-n.png"" border=""10"">","null","trial","null","","0.2,0.8","2:nogo_b","0",""
"null","","html-keyboard-response","504","933191","0.0-6.0-2.94","","<div style=""font-size:60px;"">+</div>","null","","","","","","",""
"689.089999999851","","image-keyboard-response","505","933881","0.0-6.0-0.95","","img/blue.png","32","trial","32","true","0.8,0.2","3:go_c","",""
"null","","html-keyboard-response","506","934882","0.0-6.0-1.95","","<img src=""img/blue-r.png"" border=""10"">","null","trial","32","","0.8,0.2","3:go_c","1",""
"null","","html-keyboard-response","507","935884","0.0-6.0-2.95","","<div style=""font-size:60px;"">+</div>","null","","","","","","",""
"1011.305000007269","","image-keyboard-response","508","936895","0.0-6.0-0.96","","img/blue.png","32","trial","32","true","0.8,0.2","3:go_c","",""
"null","","html-keyboard-response","509","937896","0.0-6.0-1.96","","<img src=""img/blue-n.png"" border=""10"">","null","trial","32","","0.8,0.2","3:go_c","0",""
"null","","html-keyboard-response","510","938898","0.0-6.0-2.96","","<div style=""font-size:60px;"">+</div>","null","","","","","","",""
"null","","image-keyboard-response","511","940400","0.0-6.0-0.97","","img/green.png","null","trial","null","true","0.2,0.8","4:nogo_d","",""
"null","","html-keyboard-response","512","941402","0.0-6.0-1.97","","<img src=""img/green-n.png"">","null","trial","null","","0.2,0.8","4:nogo_d","0",""
"null","","html-keyboard-response","513","942403","0.0-6.0-2.97","","<div style=""font-size:60px;"">+</div>","null","","","","","","",""
"1219.345000004978","","image-keyboard-response","514","943622","0.0-6.0-0.98","","img/orange.png","32","trial","null","false","0.2,0.8","2:nogo_b","",""
"null","","html-keyboard-response","515","944624","0.0-6.0-1.98","","<img src=""img/orange-r.png"" border=""10"">","null","trial","null","","0.2,0.8","2:nogo_b","1",""
"null","","html-keyboard-response","516","945625","0.0-6.0-2.98","","<div style=""font-size:60px;"">+</div>","null","","","","","","",""
"569.2950000084238","","image-keyboard-response","517","946195","0.0-6.0-0.99","","img/purple.png","32","trial","32","true","0.8,0.2","1:go_a","",""
"null","","html-keyboard-response","518","947196","0.0-6.0-1.99","","<img src=""img/purple-r.png"" border=""10"">","null","trial","32","","0.8,0.2","1:go_a","1",""
"null","","html-keyboard-response","519","948197","0.0-6.0-2.99","","<div style=""font-size:60px;"">+</div>","null","","","","","","",""
"580.2499999990687","","image-keyboard-response","520","948778","0.0-6.0-0.100","","img/blue.png","32","trial","32","true","0.8,0.2","3:go_c","",""
"null","","html-keyboard-response","521","949780","0.0-6.0-1.100","","<img src=""img/blue-r.png"" border=""10"">","null","trial","32","","0.8,0.2","3:go_c","1",""
"null","","html-keyboard-response","522","950781","0.0-6.0-2.100","","<div style=""font-size:60px;"">+</div>","null","","","","","","",""
"null","","image-keyboard-response","523","952283","0.0-6.0-0.101","","img/orange.png","null","trial","null","true","0.2,0.8","2:nogo_b","",""
"null","","html-keyboard-response","524","953285","0.0-6.0-1.101","","<img src=""img/orange-r.png"">","null","trial","null","","0.2,0.8","2:nogo_b","1",""
"null","","html-keyboard-response","525","954286","0.0-6.0-2.101","","<div style=""font-size:60px;"">+</div>","null","","","","","","",""
"589.3099999957485","","image-keyboard-response","526","954875","0.0-6.0-0.102","","img/purple.png","32","trial","32","true","0.8,0.2","1:go_a","",""
"null","","html-keyboard-response","527","955877","0.0-6.0-1.102","","<img src=""img/purple-r.png"" border=""10"">","null","trial","32","","0.8,0.2","1:go_a","1",""
"null","","html-keyboard-response","528","956878","0.0-6.0-2.102","","<div style=""font-size:60px;"">+</div>","null","","","","","","",""
"null","","image-keyboard-response","529","958378","0.0-6.0-0.103","","img/green.png","null","trial","null","true","0.2,0.8","4:nogo_d","",""
"null","","html-keyboard-response","530","959380","0.0-6.0-1.103","","<img src=""img/green-r.png"">","null","trial","null","","0.2,0.8","4:nogo_d","1",""
"null","","html-keyboard-response","531","960381","0.0-6.0-2.103","","<div style=""font-size:60px;"">+</div>","null","","","","","","",""
"487.99500000313856","","image-keyboard-response","532","960869","0.0-6.0-0.104","","img/purple.png","32","trial","32","true","0.8,0.2","1:go_a","",""
"null","","html-keyboard-response","533","961870","0.0-6.0-1.104","","<img src=""img/purple-n.png"" border=""10"">","null","trial","32","","0.8,0.2","1:go_a","0",""
"null","","html-keyboard-response","534","962872","0.0-6.0-2.104","","<div style=""font-size:60px;"">+</div>","null","","","","","","",""
"630.4299999901559","","image-keyboard-response","535","963502","0.0-6.0-0.105","","img/orange.png","32","trial","null","false","0.2,0.8","2:nogo_b","",""
"null","","html-keyboard-response","536","964504","0.0-6.0-1.105","","<img src=""img/orange-r.png"" border=""10"">","null","trial","null","","0.2,0.8","2:nogo_b","1",""
"null","","html-keyboard-response","537","965504","0.0-6.0-2.105","","<div style=""font-size:60px;"">+</div>","null","","","","","","",""
"719.7750000050291","","image-keyboard-response","538","966224","0.0-6.0-0.106","","img/green.png","32","trial","null","false","0.2,0.8","4:nogo_d","",""
"null","","html-keyboard-response","539","967226","0.0-6.0-1.106","","<img src=""img/green-n.png"" border=""10"">","null","trial","null","","0.2,0.8","4:nogo_d","0",""
"null","","html-keyboard-response","540","968227","0.0-6.0-2.106","","<div style=""font-size:60px;"">+</div>","null","","","","","","",""
"564.9049999919953","","image-keyboard-response","541","968792","0.0-6.0-0.107","","img/blue.png","32","trial","32","true","0.8,0.2","3:go_c","",""
"null","","html-keyboard-response","542","969794","0.0-6.0-1.107","","<img src=""img/blue-r.png"" border=""10"">","null","trial","32","","0.8,0.2","3:go_c","1",""
"null","","html-keyboard-response","543","970795","0.0-6.0-2.107","","<div style=""font-size:60px;"">+</div>","null","","","","","","",""
"497.81000000075437","","image-keyboard-response","544","971293","0.0-6.0-0.108","","img/orange.png","32","trial","null","false","0.2,0.8","2:nogo_b","",""
"null","","html-keyboard-response","545","972294","0.0-6.0-1.108","","<img src=""img/orange-n.png"" border=""10"">","null","trial","null","","0.2,0.8","2:nogo_b","0",""
"null","","html-keyboard-response","546","973295","0.0-6.0-2.108","","<div style=""font-size:60px;"">+</div>","null","","","","","","",""
"896.9450000004144","","image-keyboard-response","547","974192","0.0-6.0-0.109","","img/green.png","32","trial","null","false","0.2,0.8","4:nogo_d","",""
"null","","html-keyboard-response","548","975193","0.0-6.0-1.109","","<img src=""img/green-n.png"" border=""10"">","null","trial","null","","0.2,0.8","4:nogo_d","0",""
"null","","html-keyboard-response","549","976195","0.0-6.0-2.109","","<div style=""font-size:60px;"">+</div>","null","","","","","","",""
"485.2850000024773","","image-keyboard-response","550","976681","0.0-6.0-0.110","","img/blue.png","32","trial","32","true","0.8,0.2","3:go_c","",""
"null","","html-keyboard-response","551","977682","0.0-6.0-1.110","","<img src=""img/blue-n.png"" border=""10"">","null","trial","32","","0.8,0.2","3:go_c","0",""
"null","","html-keyboard-response","552","978684","0.0-6.0-2.110","","<div style=""font-size:60px;"">+</div>","null","","","","","","",""
"1178.1900000059977","","image-keyboard-response","553","979862","0.0-6.0-0.111","","img/purple.png","32","trial","32","true","0.8,0.2","1:go_a","",""
"null","","html-keyboard-response","554","980864","0.0-6.0-1.111","","<img src=""img/purple-r.png"" border=""10"">","null","trial","32","","0.8,0.2","1:go_a","1",""
"null","","html-keyboard-response","555","981865","0.0-6.0-2.111","","<div style=""font-size:60px;"">+</div>","null","","","","","","",""
"null","","image-keyboard-response","556","983366","0.0-6.0-0.112","","img/green.png","null","trial","null","true","0.2,0.8","4:nogo_d","",""
"null","","html-keyboard-response","557","984368","0.0-6.0-1.112","","<img src=""img/green-r.png"">","null","trial","null","","0.2,0.8","4:nogo_d","1",""
"null","","html-keyboard-response","558","985369","0.0-6.0-2.112","","<div style=""font-size:60px;"">+</div>","null","","","","","","",""
"322.2700000042096","","image-keyboard-response","559","985692","0.0-6.0-0.113","","img/purple.png","32","trial","32","true","0.8,0.2","1:go_a","",""
"null","","html-keyboard-response","560","986694","0.0-6.0-1.113","","<img src=""img/purple-r.png"" border=""10"">","null","trial","32","","0.8,0.2","1:go_a","1",""
"null","","html-keyboard-response","561","987695","0.0-6.0-2.113","","<div style=""font-size:60px;"">+</div>","null","","","","","","",""
"null","","image-keyboard-response","562","989197","0.0-6.0-0.114","","img/orange.png","null","trial","null","true","0.2,0.8","2:nogo_b","",""
"null","","html-keyboard-response","563","990199","0.0-6.0-1.114","","<img src=""img/orange-n.png"">","null","trial","null","","0.2,0.8","2:nogo_b","0",""
"null","","html-keyboard-response","564","991200","0.0-6.0-2.114","","<div style=""font-size:60px;"">+</div>","null","","","","","","",""
"510.12000000628177","","image-keyboard-response","565","991710","0.0-6.0-0.115","","img/blue.png","32","trial","32","true","0.8,0.2","3:go_c","",""
"null","","html-keyboard-response","566","992712","0.0-6.0-1.115","","<img src=""img/blue-r.png"" border=""10"">","null","trial","32","","0.8,0.2","3:go_c","1",""
"null","","html-keyboard-response","567","993713","0.0-6.0-2.115","","<div style=""font-size:60px;"">+</div>","null","","","","","","",""
"null","","image-keyboard-response","568","995214","0.0-6.0-0.116","","img/green.png","null","trial","null","true","0.2,0.8","4:nogo_d","",""
"null","","html-keyboard-response","569","996216","0.0-6.0-1.116","","<img src=""img/green-r.png"">","null","trial","null","","0.2,0.8","4:nogo_d","1",""
"null","","html-keyboard-response","570","997217","0.0-6.0-2.116","","<div style=""font-size:60px;"">+</div>","null","","","","","","",""
"469.5999999967171","","image-keyboard-response","571","997688","0.0-6.0-0.117","","img/blue.png","32","trial","32","true","0.8,0.2","3:go_c","",""
"null","","html-keyboard-response","572","998689","0.0-6.0-1.117","","<img src=""img/blue-r.png"" border=""10"">","null","trial","32","","0.8,0.2","3:go_c","1",""
"null","","html-keyboard-response","573","999690","0.0-6.0-2.117","","<div style=""font-size:60px;"">+</div>","null","","","","","","",""
"null","","image-keyboard-response","574","1001192","0.0-6.0-0.118","","img/orange.png","null","trial","null","true","0.2,0.8","2:nogo_b","",""
"null","","html-keyboard-response","575","1002193","0.0-6.0-1.118","","<img src=""img/orange-r.png"">","null","trial","null","","0.2,0.8","2:nogo_b","1",""
"null","","html-keyboard-response","576","1003195","0.0-6.0-2.118","","<div style=""font-size:60px;"">+</div>","null","","","","","","",""
"523.4199999977136","","image-keyboard-response","577","1003719","0.0-6.0-0.119","","img/purple.png","32","trial","32","true","0.8,0.2","1:go_a","",""
"null","","html-keyboard-response","578","1004720","0.0-6.0-1.119","","<img src=""img/purple-r.png"" border=""10"">","null","trial","32","","0.8,0.2","1:go_a","1",""
"null","","html-keyboard-response","579","1005721","0.0-6.0-2.119","","<div style=""font-size:60px;"">+</div>","null","","","","","","",""
"117187.00000000536","","instructions","580","1122908","0.0-7.0","[{""page_index"":0,""viewing_time"":117186.81499999366}]","","","","","","","","",""
"838.7550000040792","","image-keyboard-response","581","1123748","0.0-8.0-0.0","","img/grey.png","32","trial","null","false","0,1","4:nogo_d","",""
"null","","html-keyboard-response","582","1124749","0.0-8.0-1.0","","<img src=""img/grey-n.png"" border=""10"">","null","trial","null","","0,1","4:nogo_d","0",""
"null","","html-keyboard-response","583","1125750","0.0-8.0-2.0","","<div style=""font-size:60px;"">+</div>","null","","","","","","",""
"548.3649999951012","","image-keyboard-response","584","1126299","0.0-8.0-0.1","","img/orange.png","32","trial","32","true","0.8,0.2","1:go_a","",""
"null","","html-keyboard-response","585","1127300","0.0-8.0-1.1","","<img src=""img/orange-r.png"" border=""10"">","null","trial","32","","0.8,0.2","1:go_a","1",""
"null","","html-keyboard-response","586","1128301","0.0-8.0-2.1","","<div style=""font-size:60px;"">+</div>","null","","","","","","",""
"554.0449999971315","","image-keyboard-response","587","1128855","0.0-8.0-0.2","","img/green.png","32","trial","null","false","0.2,0.8","2:nogo_b","",""
"null","","html-keyboard-response","588","1129857","0.0-8.0-1.2","","<img src=""img/green-r.png"" border=""10"">","null","trial","null","","0.2,0.8","2:nogo_b","1",""
"null","","html-keyboard-response","589","1130858","0.0-8.0-2.2","","<div style=""font-size:60px;"">+</div>","null","","","","","","",""
"552.2300000011455","","image-keyboard-response","590","1131411","0.0-8.0-0.3","","img/purple.png","32","trial","32","true","1,0","3:go_c","",""
"null","","html-keyboard-response","591","1132413","0.0-8.0-1.3","","<img src=""img/purple-r.png"" border=""10"">","null","trial","32","","1,0","3:go_c","1",""
"null","","html-keyboard-response","592","1133413","0.0-8.0-2.3","","<div style=""font-size:60px;"">+</div>","null","","","","","","",""
"920.1549999997951","","image-keyboard-response","593","1134334","0.0-8.0-0.4","","img/orange.png","32","trial","32","true","0.8,0.2","1:go_a","",""
"null","","html-keyboard-response","594","1135335","0.0-8.0-1.4","","<img src=""img/orange-r.png"" border=""10"">","null","trial","32","","0.8,0.2","1:go_a","1",""
"null","","html-keyboard-response","595","1136337","0.0-8.0-2.4","","<div style=""font-size:60px;"">+</div>","null","","","","","","",""
"null","","image-keyboard-response","596","1137838","0.0-8.0-0.5","","img/grey.png","null","trial","null","true","0,1","4:nogo_d","",""
"null","","html-keyboard-response","597","1138839","0.0-8.0-1.5","","<img src=""img/grey-r.png"">","null","trial","null","","0,1","4:nogo_d","1",""
"null","","html-keyboard-response","598","1139840","0.0-8.0-2.5","","<div style=""font-size:60px;"">+</div>","null","","","","","","",""
"530.2099999971688","","image-keyboard-response","599","1140371","0.0-8.0-0.6","","img/purple.png","32","trial","32","true","1,0","3:go_c","",""
"null","","html-keyboard-response","600","1141372","0.0-8.0-1.6","","<img src=""img/purple-r.png"" border=""10"">","null","trial","32","","1,0","3:go_c","1",""
"null","","html-keyboard-response","601","1142374","0.0-8.0-2.6","","<div style=""font-size:60px;"">+</div>","null","","","","","","",""
"760.4799999971874","","image-keyboard-response","602","1143135","0.0-8.0-0.7","","img/green.png","32","trial","null","false","0.2,0.8","2:nogo_b","",""
"null","","html-keyboard-response","603","1144137","0.0-8.0-1.7","","<img src=""img/green-r.png"" border=""10"">","null","trial","null","","0.2,0.8","2:nogo_b","1",""
"null","","html-keyboard-response","604","1145138","0.0-8.0-2.7","","<div style=""font-size:60px;"">+</div>","null","","","","","","",""
"null","","image-keyboard-response","605","1146639","0.0-8.0-0.8","","img/grey.png","null","trial","null","true","0,1","4:nogo_d","",""
"null","","html-keyboard-response","606","1147642","0.0-8.0-1.8","","<img src=""img/grey-r.png"">","null","trial","null","","0,1","4:nogo_d","1",""
"null","","html-keyboard-response","607","1148642","0.0-8.0-2.8","","<div style=""font-size:60px;"">+</div>","null","","","","","","",""
"553.3849999918602","","image-keyboard-response","608","1149196","0.0-8.0-0.9","","img/green.png","32","trial","null","false","0.2,0.8","2:nogo_b","",""
"null","","html-keyboard-response","609","1150197","0.0-8.0-1.9","","<img src=""img/green-n.png"" border=""10"">","null","trial","null","","0.2,0.8","2:nogo_b","0",""
"null","","html-keyboard-response","610","1151198","0.0-8.0-2.9","","<div style=""font-size:60px;"">+</div>","null","","","","","","",""
"511.0700000077486","","image-keyboard-response","611","1151709","0.0-8.0-0.10","","img/purple.png","32","trial","32","true","1,0","3:go_c","",""
"null","","html-keyboard-response","612","1152711","0.0-8.0-1.10","","<img src=""img/purple-r.png"" border=""10"">","null","trial","32","","1,0","3:go_c","1",""
"null","","html-keyboard-response","613","1153712","0.0-8.0-2.10","","<div style=""font-size:60px;"">+</div>","null","","","","","","",""
"699.8250000034459","","image-keyboard-response","614","1154412","0.0-8.0-0.11","","img/orange.png","32","trial","32","true","0.8,0.2","1:go_a","",""
"null","","html-keyboard-response","615","1155414","0.0-8.0-1.11","","<img src=""img/orange-r.png"" border=""10"">","null","trial","32","","0.8,0.2","1:go_a","1",""
"null","","html-keyboard-response","616","1156415","0.0-8.0-2.11","","<div style=""font-size:60px;"">+</div>","null","","","","","","",""
"488.32499999855645","","image-keyboard-response","617","1156904","0.0-8.0-0.12","","img/purple.png","32","trial","32","true","1,0","3:go_c","",""
"null","","html-keyboard-response","618","1157905","0.0-8.0-1.12","","<img src=""img/purple-r.png"" border=""10"">","null","trial","32","","1,0","3:go_c","1",""
"null","","html-keyboard-response","619","1158907","0.0-8.0-2.12","","<div style=""font-size:60px;"">+</div>","null","","","","","","",""
"536.8250000029802","","image-keyboard-response","620","1159444","0.0-8.0-0.13","","img/orange.png","32","trial","32","true","0.8,0.2","1:go_a","",""
"null","","html-keyboard-response","621","1160445","0.0-8.0-1.13","","<img src=""img/orange-r.png"" border=""10"">","null","trial","32","","0.8,0.2","1:go_a","1",""
"null","","html-keyboard-response","622","1161446","0.0-8.0-2.13","","<div style=""font-size:60px;"">+</div>","null","","","","","","",""
"581.6500000073574","","image-keyboard-response","623","1162029","0.0-8.0-0.14","","img/green.png","32","trial","null","false","0.2,0.8","2:nogo_b","",""
"null","","html-keyboard-response","624","1163030","0.0-8.0-1.14","","<img src=""img/green-n.png"" border=""10"">","null","trial","null","","0.2,0.8","2:nogo_b","0",""
"null","","html-keyboard-response","625","1164031","0.0-8.0-2.14","","<div style=""font-size:60px;"">+</div>","null","","","","","","",""
"null","","image-keyboard-response","626","1165532","0.0-8.0-0.15","","img/grey.png","null","trial","null","true","0,1","4:nogo_d","",""
"null","","html-keyboard-response","627","1166533","0.0-8.0-1.15","","<img src=""img/grey-r.png"">","null","trial","null","","0,1","4:nogo_d","1",""
"null","","html-keyboard-response","628","1167534","0.0-8.0-2.15","","<div style=""font-size:60px;"">+</div>","null","","","","","","",""
"623.5799999996088","","image-keyboard-response","629","1168158","0.0-8.0-0.16","","img/purple.png","32","trial","32","true","1,0","3:go_c","",""
"null","","html-keyboard-response","630","1169160","0.0-8.0-1.16","","<img src=""img/purple-r.png"" border=""10"">","null","trial","32","","1,0","3:go_c","1",""
"null","","html-keyboard-response","631","1170161","0.0-8.0-2.16","","<div style=""font-size:60px;"">+</div>","null","","","","","","",""
"1235.1900000064634","","image-keyboard-response","632","1171396","0.0-8.0-0.17","","img/green.png","32","trial","null","false","0.2,0.8","2:nogo_b","",""
"null","","html-keyboard-response","633","1172398","0.0-8.0-1.17","","<img src=""img/green-n.png"" border=""10"">","null","trial","null","","0.2,0.8","2:nogo_b","0",""
"null","","html-keyboard-response","634","1173398","0.0-8.0-2.17","","<div style=""font-size:60px;"">+</div>","null","","","","","","",""
"509.5650000004098","","image-keyboard-response","635","1173908","0.0-8.0-0.18","","img/orange.png","32","trial","32","true","0.8,0.2","1:go_a","",""
"null","","html-keyboard-response","636","1174910","0.0-8.0-1.18","","<img src=""img/orange-n.png"" border=""10"">","null","trial","32","","0.8,0.2","1:go_a","0",""
"null","","html-keyboard-response","637","1175911","0.0-8.0-2.18","","<div style=""font-size:60px;"">+</div>","null","","","","","","",""
"null","","image-keyboard-response","638","1177411","0.0-8.0-0.19","","img/grey.png","null","trial","null","true","0,1","4:nogo_d","",""
"null","","html-keyboard-response","639","1178412","0.0-8.0-1.19","","<img src=""img/grey-r.png"">","null","trial","null","","0,1","4:nogo_d","1",""
"null","","html-keyboard-response","640","1179413","0.0-8.0-2.19","","<div style=""font-size:60px;"">+</div>","null","","","","","","",""
"699.1350000025705","","image-keyboard-response","641","1180113","0.0-8.0-0.20","","img/orange.png","32","trial","32","true","0.8,0.2","1:go_a","",""
"null","","html-keyboard-response","642","1181114","0.0-8.0-1.20","","<img src=""img/orange-n.png"" border=""10"">","null","trial","32","","0.8,0.2","1:go_a","0",""
"null","","html-keyboard-response","643","1182115","0.0-8.0-2.20","","<div style=""font-size:60px;"">+</div>","null","","","","","","",""
"521.0749999969266","","image-keyboard-response","644","1182637","0.0-8.0-0.21","","img/purple.png","32","trial","32","true","1,0","3:go_c","",""
"null","","html-keyboard-response","645","1183638","0.0-8.0-1.21","","<img src=""img/purple-r.png"" border=""10"">","null","trial","32","","1,0","3:go_c","1",""
"null","","html-keyboard-response","646","1184639","0.0-8.0-2.21","","<div style=""font-size:60px;"">+</div>","null","","","","","","",""
"null","","image-keyboard-response","647","1186141","0.0-8.0-0.22","","img/grey.png","null","trial","null","true","0,1","4:nogo_d","",""
"null","","html-keyboard-response","648","1187143","0.0-8.0-1.22","","<img src=""img/grey-r.png"">","null","trial","null","","0,1","4:nogo_d","1",""
"null","","html-keyboard-response","649","1188144","0.0-8.0-2.22","","<div style=""font-size:60px;"">+</div>","null","","","","","","",""
"null","","image-keyboard-response","650","1189645","0.0-8.0-0.23","","img/green.png","null","trial","null","true","0.2,0.8","2:nogo_b","",""
"null","","html-keyboard-response","651","1190646","0.0-8.0-1.23","","<img src=""img/green-n.png"">","null","trial","null","","0.2,0.8","2:nogo_b","0",""
"null","","html-keyboard-response","652","1191648","0.0-8.0-2.23","","<div style=""font-size:60px;"">+</div>","null","","","","","","",""
"543.4000000094529","","image-keyboard-response","653","1192191","0.0-8.0-0.24","","img/orange.png","32","trial","32","true","0.8,0.2","1:go_a","",""
"null","","html-keyboard-response","654","1193192","0.0-8.0-1.24","","<img src=""img/orange-n.png"" border=""10"">","null","trial","32","","0.8,0.2","1:go_a","0",""
"null","","html-keyboard-response","655","1194194","0.0-8.0-2.24","","<div style=""font-size:60px;"">+</div>","null","","","","","","",""
"414.05500000109896","","image-keyboard-response","656","1194608","0.0-8.0-0.25","","img/purple.png","32","trial","32","true","1,0","3:go_c","",""
"null","","html-keyboard-response","657","1195610","0.0-8.0-1.25","","<img src=""img/purple-r.png"" border=""10"">","null","trial","32","","1,0","3:go_c","1",""
"null","","html-keyboard-response","658","1196611","0.0-8.0-2.25","","<div style=""font-size:60px;"">+</div>","null","","","","","","",""
"null","","image-keyboard-response","659","1198113","0.0-8.0-0.26","","img/green.png","null","trial","null","true","0.2,0.8","2:nogo_b","",""
"null","","html-keyboard-response","660","1199114","0.0-8.0-1.26","","<img src=""img/green-r.png"">","null","trial","null","","0.2,0.8","2:nogo_b","1",""
"null","","html-keyboard-response","661","1200115","0.0-8.0-2.26","","<div style=""font-size:60px;"">+</div>","null","","","","","","",""
"null","","image-keyboard-response","662","1201616","0.0-8.0-0.27","","img/grey.png","null","trial","null","true","0,1","4:nogo_d","",""
"null","","html-keyboard-response","663","1202618","0.0-8.0-1.27","","<img src=""img/grey-r.png"">","null","trial","null","","0,1","4:nogo_d","1",""
"null","","html-keyboard-response","664","1203619","0.0-8.0-2.27","","<div style=""font-size:60px;"">+</div>","null","","","","","","",""
"626.250000001397","","image-keyboard-response","665","1204246","0.0-8.0-0.28","","img/green.png","32","trial","null","false","0.2,0.8","2:nogo_b","",""
"null","","html-keyboard-response","666","1205248","0.0-8.0-1.28","","<img src=""img/green-n.png"" border=""10"">","null","trial","null","","0.2,0.8","2:nogo_b","0",""
"null","","html-keyboard-response","667","1206249","0.0-8.0-2.28","","<div style=""font-size:60px;"">+</div>","null","","","","","","",""
"321.50000000558794","","image-keyboard-response","668","1206571","0.0-8.0-0.29","","img/purple.png","32","trial","32","true","1,0","3:go_c","",""
"null","","html-keyboard-response","669","1207573","0.0-8.0-1.29","","<img src=""img/purple-r.png"" border=""10"">","null","trial","32","","1,0","3:go_c","1",""
"null","","html-keyboard-response","670","1208574","0.0-8.0-2.29","","<div style=""font-size:60px;"">+</div>","null","","","","","","",""
"1068.725000004517","","image-keyboard-response","671","1209643","0.0-8.0-0.30","","img/grey.png","32","trial","null","false","0,1","4:nogo_d","",""
"null","","html-keyboard-response","672","1210644","0.0-8.0-1.30","","<img src=""img/grey-n.png"" border=""10"">","null","trial","null","","0,1","4:nogo_d","0",""
"null","","html-keyboard-response","673","1211645","0.0-8.0-2.30","","<div style=""font-size:60px;"">+</div>","null","","","","","","",""
"null","","image-keyboard-response","674","1213146","0.0-8.0-0.31","","img/orange.png","null","trial","32","false","0.8,0.2","1:go_a","",""
"null","","html-keyboard-response","675","1214148","0.0-8.0-1.31","","<img src=""img/orange-r.png"">","null","trial","32","","0.8,0.2","1:go_a","1",""
"null","","html-keyboard-response","676","1215149","0.0-8.0-2.31","","<div style=""font-size:60px;"">+</div>","null","","","","","","",""
