"rt","url","trial_type","trial_index","time_elapsed","internal_node_id","view_history","stimulus","key_press","test_part","correct_response","correct","use_rew","which_stim","reward","responses"
"12923.20000000298","consent.html","external-html","0","12949","0.0-0.0","","","","","","","","","",""
"98849","","instructions","1","111801","0.0-1.0","[{""page_index"":0,""viewing_time"":3233.7999999970198},{""page_index"":1,""viewing_time"":14528.5},{""page_index"":2,""viewing_time"":4903.0999999940395},{""page_index"":3,""viewing_time"":24456.40000000596},{""page_index"":4,""viewing_time"":8751.90000000596},{""page_index"":5,""viewing_time"":6264.29999999702},{""page_index"":6,""viewing_time"":7826.5999999940395},{""page_index"":5,""viewing_time"":1557.7999999970198},{""page_index"":4,""viewing_time"":3278.5},{""page_index"":3,""viewing_time"":7967.600000008941},{""page_index"":2,""viewing_time"":3447.7000000029802},{""page_index"":1,""viewing_time"":5465.29999999702},{""page_index"":2,""viewing_time"":1313.7999999970198},{""page_index"":3,""viewing_time"":1197.4000000059605},{""page_index"":4,""viewing_time"":1495},{""page_index"":5,""viewing_time"":1175.699999988079},{""page_index"":6,""viewing_time"":1984.6000000089407}]","","","","","","","","",""
"790.5","","image-keyboard-response","2","112594","0.0-2.0-0.0","","img/test3.PNG","32","practice","null","false","","","",""
"null","","html-keyboard-response","3","113595","0.0-2.0-1.0","","<img src=""img/test3-neutral.PNG"" border=""10px; grey"">","null","","","","","","",""
"null","","html-keyboard-response","4","114597","0.0-2.0-2.0","","<div style=""font-size:60px;"">+</div>","null","","","","","","",""
"586.5","","image-keyboard-response","5","115185","0.0-2.0-0.1","","img/test2.PNG","32","practice","null","false","","","",""
"null","","html-keyboard-response","6","116187","0.0-2.0-1.1","","<img src=""img/test2-neutral.PNG"" border=""10px; grey"">","null","","","","","","",""
"null","","html-keyboard-response","7","117188","0.0-2.0-2.1","","<div style=""font-size:60px;"">+</div>","null","","","","","","",""
"611.3999999910593","","image-keyboard-response","8","117800","0.0-2.0-0.2","","img/test1.PNG","32","practice","32","true","","","",""
"null","","html-keyboard-response","9","118802","0.0-2.0-1.2","","<img src=""img/test1-reward.PNG"" border=""10px; grey"">","null","","","","","","",""
"null","","html-keyboard-response","10","119804","0.0-2.0-2.2","","<div style=""font-size:60px;"">+</div>","null","","","","","","",""
"765.2999999970198","","image-keyboard-response","11","120572","0.0-2.0-0.3","","img/test1.PNG","32","practice","32","true","","","",""
"null","","html-keyboard-response","12","121574","0.0-2.0-1.3","","<img src=""img/test1-reward.PNG"" border=""10px; grey"">","null","","","","","","",""
"null","","html-keyboard-response","13","122576","0.0-2.0-2.3","","<div style=""font-size:60px;"">+</div>","null","","","","","","",""
"null","","image-keyboard-response","14","124080","0.0-2.0-0.4","","img/test2.PNG","null","practice","null","true","","","",""
"null","","html-keyboard-response","15","125081","0.0-2.0-1.4","","<img src=""img/test2-reward.PNG"">","null","","","","","","",""
"null","","html-keyboard-response","16","126083","0.0-2.0-2.4","","<div style=""font-size:60px;"">+</div>","null","","","","","","",""
"677","","image-keyboard-response","17","126761","0.0-2.0-0.5","","img/test3.PNG","32","practice","null","false","","","",""
"null","","html-keyboard-response","18","127763","0.0-2.0-1.5","","<img src=""img/test3-neutral.PNG"" border=""10px; grey"">","null","","","","","","",""
"null","","html-keyboard-response","19","128767","0.0-2.0-2.5","","<div style=""font-size:60px;"">+</div>","null","","","","","","",""
"602.0999999940395","","image-keyboard-response","20","129370","0.0-2.0-0.6","","img/test1.PNG","32","practice","32","true","","","",""
"null","","html-keyboard-response","21","130373","0.0-2.0-1.6","","<img src=""img/test1-reward.PNG"" border=""10px; grey"">","null","","","","","","",""
"null","","html-keyboard-response","22","131378","0.0-2.0-2.6","","<div style=""font-size:60px;"">+</div>","null","","","","","","",""
"653.2000000029802","","image-keyboard-response","23","132034","0.0-2.0-0.7","","img/test2.PNG","32","practice","null","false","","","",""
"null","","html-keyboard-response","24","133036","0.0-2.0-1.7","","<img src=""img/test2-neutral.PNG"" border=""10px; grey"">","null","","","","","","",""
"null","","html-keyboard-response","25","134037","0.0-2.0-2.7","","<div style=""font-size:60px;"">+</div>","null","","","","","","",""
"null","","image-keyboard-response","26","135539","0.0-2.0-0.8","","img/test3.PNG","null","practice","null","true","","","",""
"null","","html-keyboard-response","27","136541","0.0-2.0-1.8","","<img src=""img/test3-reward.PNG"">","null","","","","","","",""
"null","","html-keyboard-response","28","137542","0.0-2.0-2.8","","<div style=""font-size:60px;"">+</div>","null","","","","","","",""
"692.1999999880791","","image-keyboard-response","29","138235","0.0-2.0-0.9","","img/test2.PNG","32","practice","null","false","","","",""
"null","","html-keyboard-response","30","139237","0.0-2.0-1.9","","<img src=""img/test2-neutral.PNG"" border=""10px; grey"">","null","","","","","","",""
"null","","html-keyboard-response","31","140249","0.0-2.0-2.9","","<div style=""font-size:60px;"">+</div>","null","","","","","","",""
"631","","image-keyboard-response","32","140881","0.0-2.0-0.10","","img/test1.PNG","32","practice","32","true","","","",""
"null","","html-keyboard-response","33","141883","0.0-2.0-1.10","","<img src=""img/test1-reward.PNG"" border=""10px; grey"">","null","","","","","","",""
"null","","html-keyboard-response","34","142884","0.0-2.0-2.10","","<div style=""font-size:60px;"">+</div>","null","","","","","","",""
"null","","image-keyboard-response","35","144386","0.0-2.0-0.11","","img/test3.PNG","null","practice","null","true","","","",""
"null","","html-keyboard-response","36","145387","0.0-2.0-1.11","","<img src=""img/test3-reward.PNG"">","null","","","","","","",""
"null","","html-keyboard-response","37","146388","0.0-2.0-2.11","","<div style=""font-size:60px;"">+</div>","null","","","","","","",""
"4053","","instructions","38","150442","0.0-3.0","[{""page_index"":0,""viewing_time"":4052.699999988079}]","","","","","","","","",""
"749.5999999940395","","image-keyboard-response","39","151193","0.0-4.0-0.0","","img/orange.png","32","trial","32","true","0.8,0.2","1:go_a","",""
"null","","html-keyboard-response","40","152196","0.0-4.0-1.0","","<img src=""img/orange-r.png"" border=""10"">","null","trial","32","","0.8,0.2","1:go_a","1",""
"null","","html-keyboard-response","41","153197","0.0-4.0-2.0","","<div style=""font-size:60px;"">+</div>","null","","","","","","",""
"723","","image-keyboard-response","42","153922","0.0-4.0-0.1","","img/yellow.png","32","trial","null","false","0.2,0.8","2:nogo_b","",""
"null","","html-keyboard-response","43","154924","0.0-4.0-1.1","","<img src=""img/yellow-n.png"" border=""10"">","null","trial","null","","0.2,0.8","2:nogo_b","0",""
"null","","html-keyboard-response","44","155926","0.0-4.0-2.1","","<div style=""font-size:60px;"">+</div>","null","","","","","","",""
"595.0999999940395","","image-keyboard-response","45","156522","0.0-4.0-0.2","","img/yellow.png","32","trial","null","false","0.2,0.8","2:nogo_b","",""
"null","","html-keyboard-response","46","157524","0.0-4.0-1.2","","<img src=""img/yellow-n.png"" border=""10"">","null","trial","null","","0.2,0.8","2:nogo_b","0",""
"null","","html-keyboard-response","47","158526","0.0-4.0-2.2","","<div style=""font-size:60px;"">+</div>","null","","","","","","",""
"554.2999999970198","","image-keyboard-response","48","159081","0.0-4.0-0.3","","img/orange.png","32","trial","32","true","0.8,0.2","1:go_a","",""
"null","","html-keyboard-response","49","160084","0.0-4.0-1.3","","<img src=""img/orange-r.png"" border=""10"">","null","trial","32","","0.8,0.2","1:go_a","1",""
"null","","html-keyboard-response","50","161086","0.0-4.0-2.3","","<div style=""font-size:60px;"">+</div>","null","","","","","","",""
"587.9000000059605","","image-keyboard-response","51","161675","0.0-4.0-0.4","","img/orange.png","32","trial","32","true","0.8,0.2","1:go_a","",""
"null","","html-keyboard-response","52","162677","0.0-4.0-1.4","","<img src=""img/orange-r.png"" border=""10"">","null","trial","32","","0.8,0.2","1:go_a","1",""
"null","","html-keyboard-response","53","163678","0.0-4.0-2.4","","<div style=""font-size:60px;"">+</div>","null","","","","","","",""
"762.1000000089407","","image-keyboard-response","54","164442","0.0-4.0-0.5","","img/yellow.png","32","trial","null","false","0.2,0.8","2:nogo_b","",""
"null","","html-keyboard-response","55","165443","0.0-4.0-1.5","","<img src=""img/yellow-n.png"" border=""10"">","null","trial","null","","0.2,0.8","2:nogo_b","0",""
"null","","html-keyboard-response","56","166444","0.0-4.0-2.5","","<div style=""font-size:60px;"">+</div>","null","","","","","","",""
"617.0999999940395","","image-keyboard-response","57","167062","0.0-4.0-0.6","","img/orange.png","32","trial","32","true","0.8,0.2","1:go_a","",""
"null","","html-keyboard-response","58","168065","0.0-4.0-1.6","","<img src=""img/orange-n.png"" border=""10"">","null","trial","32","","0.8,0.2","1:go_a","0",""
"null","","html-keyboard-response","59","169066","0.0-4.0-2.6","","<div style=""font-size:60px;"">+</div>","null","","","","","","",""
"null","","image-keyboard-response","60","170568","0.0-4.0-0.7","","img/yellow.png","null","trial","null","true","0.2,0.8","2:nogo_b","",""
"null","","html-keyboard-response","61","171571","0.0-4.0-1.7","","<img src=""img/yellow-r.png"">","null","trial","null","","0.2,0.8","2:nogo_b","1",""
"null","","html-keyboard-response","62","172572","0.0-4.0-2.7","","<div style=""font-size:60px;"">+</div>","null","","","","","","",""
"580.2000000029802","","image-keyboard-response","63","173153","0.0-4.0-0.8","","img/yellow.png","32","trial","null","false","0.2,0.8","2:nogo_b","",""
"null","","html-keyboard-response","64","174155","0.0-4.0-1.8","","<img src=""img/yellow-r.png"" border=""10"">","null","trial","null","","0.2,0.8","2:nogo_b","1",""
"null","","html-keyboard-response","65","175157","0.0-4.0-2.8","","<div style=""font-size:60px;"">+</div>","null","","","","","","",""
"541.5","","image-keyboard-response","66","175699","0.0-4.0-0.9","","img/orange.png","32","trial","32","true","0.8,0.2","1:go_a","",""
"null","","html-keyboard-response","67","176702","0.0-4.0-1.9","","<img src=""img/orange-r.png"" border=""10"">","null","trial","32","","0.8,0.2","1:go_a","1",""
"null","","html-keyboard-response","68","177704","0.0-4.0-2.9","","<div style=""font-size:60px;"">+</div>","null","","","","","","",""
"567.3000000119209","","image-keyboard-response","69","178273","0.0-4.0-0.10","","img/yellow.png","32","trial","null","false","0.2,0.8","2:nogo_b","",""
"null","","html-keyboard-response","70","179278","0.0-4.0-1.10","","<img src=""img/yellow-n.png"" border=""10"">","null","trial","null","","0.2,0.8","2:nogo_b","0",""
"null","","html-keyboard-response","71","180281","0.0-4.0-2.10","","<div style=""font-size:60px;"">+</div>","null","","","","","","",""
"521.7000000029802","","image-keyboard-response","72","180804","0.0-4.0-0.11","","img/orange.png","32","trial","32","true","0.8,0.2","1:go_a","",""
"null","","html-keyboard-response","73","181807","0.0-4.0-1.11","","<img src=""img/orange-r.png"" border=""10"">","null","trial","32","","0.8,0.2","1:go_a","1",""
"null","","html-keyboard-response","74","182809","0.0-4.0-2.11","","<div style=""font-size:60px;"">+</div>","null","","","","","","",""
"585.0999999940395","","image-keyboard-response","75","183395","0.0-4.0-0.12","","img/yellow.png","32","trial","null","false","0.2,0.8","2:nogo_b","",""
"null","","html-keyboard-response","76","184397","0.0-4.0-1.12","","<img src=""img/yellow-r.png"" border=""10"">","null","trial","null","","0.2,0.8","2:nogo_b","1",""
"null","","html-keyboard-response","77","185398","0.0-4.0-2.12","","<div style=""font-size:60px;"">+</div>","null","","","","","","",""
"522.3999999910593","","image-keyboard-response","78","185922","0.0-4.0-0.13","","img/orange.png","32","trial","32","true","0.8,0.2","1:go_a","",""
"null","","html-keyboard-response","79","186924","0.0-4.0-1.13","","<img src=""img/orange-n.png"" border=""10"">","null","trial","32","","0.8,0.2","1:go_a","0",""
"null","","html-keyboard-response","80","187925","0.0-4.0-2.13","","<div style=""font-size:60px;"">+</div>","null","","","","","","",""
"571.1000000089407","","image-keyboard-response","81","188498","0.0-4.0-0.14","","img/yellow.png","32","trial","null","false","0.2,0.8","2:nogo_b","",""
"null","","html-keyboard-response","82","189500","0.0-4.0-1.14","","<img src=""img/yellow-n.png"" border=""10"">","null","trial","null","","0.2,0.8","2:nogo_b","0",""
"null","","html-keyboard-response","83","190501","0.0-4.0-2.14","","<div style=""font-size:60px;"">+</div>","null","","","","","","",""
"643.5999999940395","","image-keyboard-response","84","191145","0.0-4.0-0.15","","img/orange.png","32","trial","32","true","0.8,0.2","1:go_a","",""
"null","","html-keyboard-response","85","192147","0.0-4.0-1.15","","<img src=""img/orange-r.png"" border=""10"">","null","trial","32","","0.8,0.2","1:go_a","1",""
"null","","html-keyboard-response","86","193149","0.0-4.0-2.15","","<div style=""font-size:60px;"">+</div>","null","","","","","","",""
"668.2999999970198","","image-keyboard-response","87","193818","0.0-4.0-0.16","","img/orange.png","32","trial","32","true","0.8,0.2","1:go_a","",""
"null","","html-keyboard-response","88","194820","0.0-4.0-1.16","","<img src=""img/orange-r.png"" border=""10"">","null","trial","32","","0.8,0.2","1:go_a","1",""
"null","","html-keyboard-response","89","195822","0.0-4.0-2.16","","<div style=""font-size:60px;"">+</div>","null","","","","","","",""
"793.7000000029802","","image-keyboard-response","90","196617","0.0-4.0-0.17","","img/yellow.png","32","trial","null","false","0.2,0.8","2:nogo_b","",""
"null","","html-keyboard-response","91","197619","0.0-4.0-1.17","","<img src=""img/yellow-n.png"" border=""10"">","null","trial","null","","0.2,0.8","2:nogo_b","0",""
"null","","html-keyboard-response","92","198621","0.0-4.0-2.17","","<div style=""font-size:60px;"">+</div>","null","","","","","","",""
"578.5","","image-keyboard-response","93","199202","0.0-4.0-0.18","","img/yellow.png","32","trial","null","false","0.2,0.8","2:nogo_b","",""
"null","","html-keyboard-response","94","200205","0.0-4.0-1.18","","<img src=""img/yellow-n.png"" border=""10"">","null","trial","null","","0.2,0.8","2:nogo_b","0",""
"null","","html-keyboard-response","95","201208","0.0-4.0-2.18","","<div style=""font-size:60px;"">+</div>","null","","","","","","",""
"610.3999999910593","","image-keyboard-response","96","201819","0.0-4.0-0.19","","img/orange.png","32","trial","32","true","0.8,0.2","1:go_a","",""
"null","","html-keyboard-response","97","202822","0.0-4.0-1.19","","<img src=""img/orange-r.png"" border=""10"">","null","trial","32","","0.8,0.2","1:go_a","1",""
"null","","html-keyboard-response","98","203824","0.0-4.0-2.19","","<div style=""font-size:60px;"">+</div>","null","","","","","","",""
"null","","image-keyboard-response","99","205325","0.0-4.0-0.20","","img/yellow.png","null","trial","null","true","0.2,0.8","2:nogo_b","",""
"null","","html-keyboard-response","100","206342","0.0-4.0-1.20","","<img src=""img/yellow-r.png"">","null","trial","null","","0.2,0.8","2:nogo_b","1",""
"null","","html-keyboard-response","101","207344","0.0-4.0-2.20","","<div style=""font-size:60px;"">+</div>","null","","","","","","",""
"592.3999999910593","","image-keyboard-response","102","207938","0.0-4.0-0.21","","img/orange.png","32","trial","32","true","0.8,0.2","1:go_a","",""
"null","","html-keyboard-response","103","208940","0.0-4.0-1.21","","<img src=""img/orange-r.png"" border=""10"">","null","trial","32","","0.8,0.2","1:go_a","1",""
"null","","html-keyboard-response","104","209941","0.0-4.0-2.21","","<div style=""font-size:60px;"">+</div>","null","","","","","","",""
"618.5","","image-keyboard-response","105","210561","0.0-4.0-0.22","","img/orange.png","32","trial","32","true","0.8,0.2","1:go_a","",""
"null","","html-keyboard-response","106","211563","0.0-4.0-1.22","","<img src=""img/orange-r.png"" border=""10"">","null","trial","32","","0.8,0.2","1:go_a","1",""
"null","","html-keyboard-response","107","212564","0.0-4.0-2.22","","<div style=""font-size:60px;"">+</div>","null","","","","","","",""
"653.1000000089407","","image-keyboard-response","108","213218","0.0-4.0-0.23","","img/yellow.png","32","trial","null","false","0.2,0.8","2:nogo_b","",""
"null","","html-keyboard-response","109","214220","0.0-4.0-1.23","","<img src=""img/yellow-r.png"" border=""10"">","null","trial","null","","0.2,0.8","2:nogo_b","1",""
"null","","html-keyboard-response","110","215221","0.0-4.0-2.23","","<div style=""font-size:60px;"">+</div>","null","","","","","","",""
"578.5999999940395","","image-keyboard-response","111","215801","0.0-4.0-0.24","","img/yellow.png","32","trial","null","false","0.2,0.8","2:nogo_b","",""
"null","","html-keyboard-response","112","216804","0.0-4.0-1.24","","<img src=""img/yellow-n.png"" border=""10"">","null","trial","null","","0.2,0.8","2:nogo_b","0",""
"null","","html-keyboard-response","113","217805","0.0-4.0-2.24","","<div style=""font-size:60px;"">+</div>","null","","","","","","",""
"515.7999999970198","","image-keyboard-response","114","218322","0.0-4.0-0.25","","img/orange.png","32","trial","32","true","0.8,0.2","1:go_a","",""
"null","","html-keyboard-response","115","219330","0.0-4.0-1.25","","<img src=""img/orange-n.png"" border=""10"">","null","trial","32","","0.8,0.2","1:go_a","0",""
"null","","html-keyboard-response","116","220334","0.0-4.0-2.25","","<div style=""font-size:60px;"">+</div>","null","","","","","","",""
"489.5","","image-keyboard-response","117","220825","0.0-4.0-0.26","","img/orange.png","32","trial","32","true","0.8,0.2","1:go_a","",""
"null","","html-keyboard-response","118","221828","0.0-4.0-1.26","","<img src=""img/orange-r.png"" border=""10"">","null","trial","32","","0.8,0.2","1:go_a","1",""
"null","","html-keyboard-response","119","222847","0.0-4.0-2.26","","<div style=""font-size:60px;"">+</div>","null","","","","","","",""
"656.8999999910593","","image-keyboard-response","120","223505","0.0-4.0-0.27","","img/yellow.png","32","trial","null","false","0.2,0.8","2:nogo_b","",""
"null","","html-keyboard-response","121","224507","0.0-4.0-1.27","","<img src=""img/yellow-n.png"" border=""10"">","null","trial","null","","0.2,0.8","2:nogo_b","0",""
"null","","html-keyboard-response","122","225508","0.0-4.0-2.27","","<div style=""font-size:60px;"">+</div>","null","","","","","","",""
"523.0999999940395","","image-keyboard-response","123","226033","0.0-4.0-0.28","","img/yellow.png","32","trial","null","false","0.2,0.8","2:nogo_b","",""
"null","","html-keyboard-response","124","227035","0.0-4.0-1.28","","<img src=""img/yellow-r.png"" border=""10"">","null","trial","null","","0.2,0.8","2:nogo_b","1",""
"null","","html-keyboard-response","125","228036","0.0-4.0-2.28","","<div style=""font-size:60px;"">+</div>","null","","","","","","",""
"604.7999999970198","","image-keyboard-response","126","228642","0.0-4.0-0.29","","img/orange.png","32","trial","32","true","0.8,0.2","1:go_a","",""
"null","","html-keyboard-response","127","229644","0.0-4.0-1.29","","<img src=""img/orange-r.png"" border=""10"">","null","trial","32","","0.8,0.2","1:go_a","1",""
"null","","html-keyboard-response","128","230646","0.0-4.0-2.29","","<div style=""font-size:60px;"">+</div>","null","","","","","","",""
"642.9000000059605","","image-keyboard-response","129","231291","0.0-4.0-0.30","","img/yellow.png","32","trial","null","false","0.2,0.8","2:nogo_b","",""
"null","","html-keyboard-response","130","232293","0.0-4.0-1.30","","<img src=""img/yellow-n.png"" border=""10"">","null","trial","null","","0.2,0.8","2:nogo_b","0",""
"null","","html-keyboard-response","131","233295","0.0-4.0-2.30","","<div style=""font-size:60px;"">+</div>","null","","","","","","",""
"578.2999999970198","","image-keyboard-response","132","233874","0.0-4.0-0.31","","img/orange.png","32","trial","32","true","0.8,0.2","1:go_a","",""
"null","","html-keyboard-response","133","234882","0.0-4.0-1.31","","<img src=""img/orange-r.png"" border=""10"">","null","trial","32","","0.8,0.2","1:go_a","1",""
"null","","html-keyboard-response","134","235883","0.0-4.0-2.31","","<div style=""font-size:60px;"">+</div>","null","","","","","","",""
"588.1999999880791","","image-keyboard-response","135","236472","0.0-4.0-0.32","","img/orange.png","32","trial","32","true","0.8,0.2","1:go_a","",""
"null","","html-keyboard-response","136","237474","0.0-4.0-1.32","","<img src=""img/orange-r.png"" border=""10"">","null","trial","32","","0.8,0.2","1:go_a","1",""
"null","","html-keyboard-response","137","238477","0.0-4.0-2.32","","<div style=""font-size:60px;"">+</div>","null","","","","","","",""
"556.8999999910593","","image-keyboard-response","138","239035","0.0-4.0-0.33","","img/yellow.png","32","trial","null","false","0.2,0.8","2:nogo_b","",""
"null","","html-keyboard-response","139","240037","0.0-4.0-1.33","","<img src=""img/yellow-n.png"" border=""10"">","null","trial","null","","0.2,0.8","2:nogo_b","0",""
"null","","html-keyboard-response","140","241040","0.0-4.0-2.33","","<div style=""font-size:60px;"">+</div>","null","","","","","","",""
"543.4000000059605","","image-keyboard-response","141","241585","0.0-4.0-0.34","","img/yellow.png","32","trial","null","false","0.2,0.8","2:nogo_b","",""
"null","","html-keyboard-response","142","242587","0.0-4.0-1.34","","<img src=""img/yellow-n.png"" border=""10"">","null","trial","null","","0.2,0.8","2:nogo_b","0",""
"null","","html-keyboard-response","143","243588","0.0-4.0-2.34","","<div style=""font-size:60px;"">+</div>","null","","","","","","",""
"584.2000000029802","","image-keyboard-response","144","244174","0.0-4.0-0.35","","img/orange.png","32","trial","32","true","0.8,0.2","1:go_a","",""
"null","","html-keyboard-response","145","245176","0.0-4.0-1.35","","<img src=""img/orange-n.png"" border=""10"">","null","trial","32","","0.8,0.2","1:go_a","0",""
"null","","html-keyboard-response","146","246178","0.0-4.0-2.35","","<div style=""font-size:60px;"">+</div>","null","","","","","","",""
"567.7000000029802","","image-keyboard-response","147","246746","0.0-4.0-0.36","","img/yellow.png","32","trial","null","false","0.2,0.8","2:nogo_b","",""
"null","","html-keyboard-response","148","247749","0.0-4.0-1.36","","<img src=""img/yellow-r.png"" border=""10"">","null","trial","null","","0.2,0.8","2:nogo_b","1",""
"null","","html-keyboard-response","149","248750","0.0-4.0-2.36","","<div style=""font-size:60px;"">+</div>","null","","","","","","",""
"600.2999999970198","","image-keyboard-response","150","249352","0.0-4.0-0.37","","img/orange.png","32","trial","32","true","0.8,0.2","1:go_a","",""
"null","","html-keyboard-response","151","250353","0.0-4.0-1.37","","<img src=""img/orange-r.png"" border=""10"">","null","trial","32","","0.8,0.2","1:go_a","1",""
"null","","html-keyboard-response","152","251356","0.0-4.0-2.37","","<div style=""font-size:60px;"">+</div>","null","","","","","","",""
"591.7000000029802","","image-keyboard-response","153","251949","0.0-4.0-0.38","","img/yellow.png","32","trial","null","false","0.2,0.8","2:nogo_b","",""
"null","","html-keyboard-response","154","252951","0.0-4.0-1.38","","<img src=""img/yellow-r.png"" border=""10"">","null","trial","null","","0.2,0.8","2:nogo_b","1",""
"null","","html-keyboard-response","155","253966","0.0-4.0-2.38","","<div style=""font-size:60px;"">+</div>","null","","","","","","",""
"601.8999999910593","","image-keyboard-response","156","254569","0.0-4.0-0.39","","img/orange.png","32","trial","32","true","0.8,0.2","1:go_a","",""
"null","","html-keyboard-response","157","255571","0.0-4.0-1.39","","<img src=""img/orange-r.png"" border=""10"">","null","trial","32","","0.8,0.2","1:go_a","1",""
"null","","html-keyboard-response","158","256573","0.0-4.0-2.39","","<div style=""font-size:60px;"">+</div>","null","","","","","","",""
"563.7000000029802","","image-keyboard-response","159","257137","0.0-4.0-0.40","","img/orange.png","32","trial","32","true","0.8,0.2","1:go_a","",""
"null","","html-keyboard-response","160","258139","0.0-4.0-1.40","","<img src=""img/orange-r.png"" border=""10"">","null","trial","32","","0.8,0.2","1:go_a","1",""
"null","","html-keyboard-response","161","259141","0.0-4.0-2.40","","<div style=""font-size:60px;"">+</div>","null","","","","","","",""
"596.9000000059605","","image-keyboard-response","162","259740","0.0-4.0-0.41","","img/yellow.png","32","trial","null","false","0.2,0.8","2:nogo_b","",""
"null","","html-keyboard-response","163","260742","0.0-4.0-1.41","","<img src=""img/yellow-n.png"" border=""10"">","null","trial","null","","0.2,0.8","2:nogo_b","0",""
"null","","html-keyboard-response","164","261743","0.0-4.0-2.41","","<div style=""font-size:60px;"">+</div>","null","","","","","","",""
"527.4000000059605","","image-keyboard-response","165","262273","0.0-4.0-0.42","","img/orange.png","32","trial","32","true","0.8,0.2","1:go_a","",""
"null","","html-keyboard-response","166","263276","0.0-4.0-1.42","","<img src=""img/orange-r.png"" border=""10"">","null","trial","32","","0.8,0.2","1:go_a","1",""
"null","","html-keyboard-response","167","264277","0.0-4.0-2.42","","<div style=""font-size:60px;"">+</div>","null","","","","","","",""
"573.8999999910593","","image-keyboard-response","168","264852","0.0-4.0-0.43","","img/yellow.png","32","trial","null","false","0.2,0.8","2:nogo_b","",""
"null","","html-keyboard-response","169","265854","0.0-4.0-1.43","","<img src=""img/yellow-n.png"" border=""10"">","null","trial","null","","0.2,0.8","2:nogo_b","0",""
"null","","html-keyboard-response","170","266856","0.0-4.0-2.43","","<div style=""font-size:60px;"">+</div>","null","","","","","","",""
"423.79999999701977","","image-keyboard-response","171","267280","0.0-4.0-0.44","","img/orange.png","32","trial","32","true","0.8,0.2","1:go_a","",""
"null","","html-keyboard-response","172","268282","0.0-4.0-1.44","","<img src=""img/orange-r.png"" border=""10"">","null","trial","32","","0.8,0.2","1:go_a","1",""
"null","","html-keyboard-response","173","269287","0.0-4.0-2.44","","<div style=""font-size:60px;"">+</div>","null","","","","","","",""
"522.2000000029802","","image-keyboard-response","174","269810","0.0-4.0-0.45","","img/yellow.png","32","trial","null","false","0.2,0.8","2:nogo_b","",""
"null","","html-keyboard-response","175","270812","0.0-4.0-1.45","","<img src=""img/yellow-n.png"" border=""10"">","null","trial","null","","0.2,0.8","2:nogo_b","0",""
"null","","html-keyboard-response","176","271813","0.0-4.0-2.45","","<div style=""font-size:60px;"">+</div>","null","","","","","","",""
"565.2000000029802","","image-keyboard-response","177","272379","0.0-4.0-0.46","","img/yellow.png","32","trial","null","false","0.2,0.8","2:nogo_b","",""
"null","","html-keyboard-response","178","273400","0.0-4.0-1.46","","<img src=""img/yellow-r.png"" border=""10"">","null","trial","null","","0.2,0.8","2:nogo_b","1",""
"null","","html-keyboard-response","179","274401","0.0-4.0-2.46","","<div style=""font-size:60px;"">+</div>","null","","","","","","",""
"552.9000000059605","","image-keyboard-response","180","274955","0.0-4.0-0.47","","img/orange.png","32","trial","32","true","0.8,0.2","1:go_a","",""
"null","","html-keyboard-response","181","275957","0.0-4.0-1.47","","<img src=""img/orange-r.png"" border=""10"">","null","trial","32","","0.8,0.2","1:go_a","1",""
"null","","html-keyboard-response","182","276958","0.0-4.0-2.47","","<div style=""font-size:60px;"">+</div>","null","","","","","","",""
"503.3999999910593","","image-keyboard-response","183","277463","0.0-4.0-0.48","","img/orange.png","32","trial","32","true","0.8,0.2","1:go_a","",""
"null","","html-keyboard-response","184","278465","0.0-4.0-1.48","","<img src=""img/orange-n.png"" border=""10"">","null","trial","32","","0.8,0.2","1:go_a","0",""
"null","","html-keyboard-response","185","279466","0.0-4.0-2.48","","<div style=""font-size:60px;"">+</div>","null","","","","","","",""
"415.09999999403954","","image-keyboard-response","186","279882","0.0-4.0-0.49","","img/yellow.png","32","trial","null","false","0.2,0.8","2:nogo_b","",""
"null","","html-keyboard-response","187","280884","0.0-4.0-1.49","","<img src=""img/yellow-n.png"" border=""10"">","null","trial","null","","0.2,0.8","2:nogo_b","0",""
"null","","html-keyboard-response","188","281885","0.0-4.0-2.49","","<div style=""font-size:60px;"">+</div>","null","","","","","","",""
"554.2999999970198","","image-keyboard-response","189","282441","0.0-4.0-0.50","","img/orange.png","32","trial","32","true","0.8,0.2","1:go_a","",""
"null","","html-keyboard-response","190","283442","0.0-4.0-1.50","","<img src=""img/orange-r.png"" border=""10"">","null","trial","32","","0.8,0.2","1:go_a","1",""
"null","","html-keyboard-response","191","284444","0.0-4.0-2.50","","<div style=""font-size:60px;"">+</div>","null","","","","","","",""
"546.7000000029802","","image-keyboard-response","192","284992","0.0-4.0-0.51","","img/yellow.png","32","trial","null","false","0.2,0.8","2:nogo_b","",""
"null","","html-keyboard-response","193","285995","0.0-4.0-1.51","","<img src=""img/yellow-n.png"" border=""10"">","null","trial","null","","0.2,0.8","2:nogo_b","0",""
"null","","html-keyboard-response","194","286997","0.0-4.0-2.51","","<div style=""font-size:60px;"">+</div>","null","","","","","","",""
"586.3999999910593","","image-keyboard-response","195","287584","0.0-4.0-0.52","","img/orange.png","32","trial","32","true","0.8,0.2","1:go_a","",""
"null","","html-keyboard-response","196","288587","0.0-4.0-1.52","","<img src=""img/orange-r.png"" border=""10"">","null","trial","32","","0.8,0.2","1:go_a","1",""
"null","","html-keyboard-response","197","289588","0.0-4.0-2.52","","<div style=""font-size:60px;"">+</div>","null","","","","","","",""
"704.7000000029802","","image-keyboard-response","198","290293","0.0-4.0-0.53","","img/yellow.png","32","trial","null","false","0.2,0.8","2:nogo_b","",""
"null","","html-keyboard-response","199","291296","0.0-4.0-1.53","","<img src=""img/yellow-n.png"" border=""10"">","null","trial","null","","0.2,0.8","2:nogo_b","0",""
"null","","html-keyboard-response","200","292297","0.0-4.0-2.53","","<div style=""font-size:60px;"">+</div>","null","","","","","","",""
"1135.8999999910593","","image-keyboard-response","201","293434","0.0-4.0-0.54","","img/yellow.png","32","trial","null","false","0.2,0.8","2:nogo_b","",""
"null","","html-keyboard-response","202","294436","0.0-4.0-1.54","","<img src=""img/yellow-n.png"" border=""10"">","null","trial","null","","0.2,0.8","2:nogo_b","0",""
"null","","html-keyboard-response","203","295437","0.0-4.0-2.54","","<div style=""font-size:60px;"">+</div>","null","","","","","","",""
"612","","image-keyboard-response","204","296050","0.0-4.0-0.55","","img/orange.png","32","trial","32","true","0.8,0.2","1:go_a","",""
"null","","html-keyboard-response","205","297052","0.0-4.0-1.55","","<img src=""img/orange-n.png"" border=""10"">","null","trial","32","","0.8,0.2","1:go_a","0",""
"null","","html-keyboard-response","206","298053","0.0-4.0-2.55","","<div style=""font-size:60px;"">+</div>","null","","","","","","",""
"null","","image-keyboard-response","207","299555","0.0-4.0-0.56","","img/yellow.png","null","trial","null","true","0.2,0.8","2:nogo_b","",""
"null","","html-keyboard-response","208","300557","0.0-4.0-1.56","","<img src=""img/yellow-r.png"">","null","trial","null","","0.2,0.8","2:nogo_b","1",""
"null","","html-keyboard-response","209","301561","0.0-4.0-2.56","","<div style=""font-size:60px;"">+</div>","null","","","","","","",""
"481","","image-keyboard-response","210","302043","0.0-4.0-0.57","","img/orange.png","32","trial","32","true","0.8,0.2","1:go_a","",""
"null","","html-keyboard-response","211","303045","0.0-4.0-1.57","","<img src=""img/orange-r.png"" border=""10"">","null","trial","32","","0.8,0.2","1:go_a","1",""
"null","","html-keyboard-response","212","304046","0.0-4.0-2.57","","<div style=""font-size:60px;"">+</div>","null","","","","","","",""
"653.9000000059605","","image-keyboard-response","213","304701","0.0-4.0-0.58","","img/orange.png","32","trial","32","true","0.8,0.2","1:go_a","",""
"null","","html-keyboard-response","214","305703","0.0-4.0-1.58","","<img src=""img/orange-r.png"" border=""10"">","null","trial","32","","0.8,0.2","1:go_a","1",""
"null","","html-keyboard-response","215","306704","0.0-4.0-2.58","","<div style=""font-size:60px;"">+</div>","null","","","","","","",""
"768.3999999910593","","image-keyboard-response","216","307475","0.0-4.0-0.59","","img/yellow.png","32","trial","null","false","0.2,0.8","2:nogo_b","",""
"null","","html-keyboard-response","217","308476","0.0-4.0-1.59","","<img src=""img/yellow-r.png"" border=""10"">","null","trial","null","","0.2,0.8","2:nogo_b","1",""
"null","","html-keyboard-response","218","309477","0.0-4.0-2.59","","<div style=""font-size:60px;"">+</div>","null","","","","","","",""
"3489.300000011921","","instructions","219","312967","0.0-5.0","[{""page_index"":0,""viewing_time"":3488.9000000059605}]","","","","","","","","",""
"1120.2999999970198","","image-keyboard-response","220","314089","0.0-6.0-0.0","","img/blue.png","32","trial","32","true","0.6,0.4","1:go_a","",""
"null","","html-keyboard-response","221","315090","0.0-6.0-1.0","","<img src=""img/blue-r.png"" border=""10"">","null","trial","32","","0.6,0.4","1:go_a","1",""
"null","","html-keyboard-response","222","316092","0.0-6.0-2.0","","<div style=""font-size:60px;"">+</div>","null","","","","","","",""
"557.5999999940395","","image-keyboard-response","223","316652","0.0-6.0-0.1","","img/pink.png","32","trial","null","false","0.4,0.6","2:nogo_b","",""
"null","","html-keyboard-response","224","317654","0.0-6.0-1.1","","<img src=""img/pink-n.png"" border=""10"">","null","trial","null","","0.4,0.6","2:nogo_b","0",""
"null","","html-keyboard-response","225","318655","0.0-6.0-2.1","","<div style=""font-size:60px;"">+</div>","null","","","","","","",""
"691.4000000059605","","image-keyboard-response","226","319348","0.0-6.0-0.2","","img/yellow.png","32","trial","null","false","0.4,0.6","4:nogo_d","",""
"null","","html-keyboard-response","227","320349","0.0-6.0-1.2","","<img src=""img/yellow-n.png"" border=""10"">","null","trial","null","","0.4,0.6","4:nogo_d","0",""
"null","","html-keyboard-response","228","321364","0.0-6.0-2.2","","<div style=""font-size:60px;"">+</div>","null","","","","","","",""
"859.7999999970198","","image-keyboard-response","229","322225","0.0-6.0-0.3","","img/grey.png","32","trial","32","true","0.6,0.4","3:go_c","",""
"null","","html-keyboard-response","230","323229","0.0-6.0-1.3","","<img src=""img/grey-r.png"" border=""10"">","null","trial","32","","0.6,0.4","3:go_c","1",""
"null","","html-keyboard-response","231","324231","0.0-6.0-2.3","","<div style=""font-size:60px;"">+</div>","null","","","","","","",""
"573.5","","image-keyboard-response","232","324806","0.0-6.0-0.4","","img/blue.png","32","trial","32","true","0.6,0.4","1:go_a","",""
"null","","html-keyboard-response","233","325809","0.0-6.0-1.4","","<img src=""img/blue-r.png"" border=""10"">","null","trial","32","","0.6,0.4","1:go_a","1",""
"null","","html-keyboard-response","234","326810","0.0-6.0-2.4","","<div style=""font-size:60px;"">+</div>","null","","","","","","",""
"1118.699999988079","","image-keyboard-response","235","327931","0.0-6.0-0.5","","img/yellow.png","32","trial","null","false","0.4,0.6","4:nogo_d","",""
"null","","html-keyboard-response","236","328934","0.0-6.0-1.5","","<img src=""img/yellow-n.png"" border=""10"">","null","trial","null","","0.4,0.6","4:nogo_d","0",""
"null","","html-keyboard-response","237","329935","0.0-6.0-2.5","","<div style=""font-size:60px;"">+</div>","null","","","","","","",""
"871.5","","image-keyboard-response","238","330808","0.0-6.0-0.6","","img/grey.png","32","trial","32","true","0.6,0.4","3:go_c","",""
"null","","html-keyboard-response","239","331811","0.0-6.0-1.6","","<img src=""img/grey-r.png"" border=""10"">","null","trial","32","","0.6,0.4","3:go_c","1",""
"null","","html-keyboard-response","240","332813","0.0-6.0-2.6","","<div style=""font-size:60px;"">+</div>","null","","","","","","",""
"null","","image-keyboard-response","241","334317","0.0-6.0-0.7","","img/pink.png","null","trial","null","true","0.4,0.6","2:nogo_b","",""
"null","","html-keyboard-response","242","335319","0.0-6.0-1.7","","<img src=""img/pink-n.png"">","null","trial","null","","0.4,0.6","2:nogo_b","0",""
"null","","html-keyboard-response","243","336320","0.0-6.0-2.7","","<div style=""font-size:60px;"">+</div>","null","","","","","","",""
"null","","image-keyboard-response","244","337822","0.0-6.0-0.8","","img/pink.png","null","trial","null","true","0.4,0.6","2:nogo_b","",""
"null","","html-keyboard-response","245","338824","0.0-6.0-1.8","","<img src=""img/pink-r.png"">","null","trial","null","","0.4,0.6","2:nogo_b","1",""
"null","","html-keyboard-response","246","339826","0.0-6.0-2.8","","<div style=""font-size:60px;"">+</div>","null","","","","","","",""
"689.7000000029802","","image-keyboard-response","247","340516","0.0-6.0-0.9","","img/blue.png","32","trial","32","true","0.6,0.4","1:go_a","",""
"null","","html-keyboard-response","248","341518","0.0-6.0-1.9","","<img src=""img/blue-n.png"" border=""10"">","null","trial","32","","0.6,0.4","1:go_a","0",""
"null","","html-keyboard-response","249","342519","0.0-6.0-2.9","","<div style=""font-size:60px;"">+</div>","null","","","","","","",""
"673.4000000059605","","image-keyboard-response","250","343194","0.0-6.0-0.10","","img/grey.png","32","trial","32","true","0.6,0.4","3:go_c","",""
"null","","html-keyboard-response","251","344196","0.0-6.0-1.10","","<img src=""img/grey-n.png"" border=""10"">","null","trial","32","","0.6,0.4","3:go_c","0",""
"null","","html-keyboard-response","252","345197","0.0-6.0-2.10","","<div style=""font-size:60px;"">+</div>","null","","","","","","",""
"null","","image-keyboard-response","253","346699","0.0-6.0-0.11","","img/yellow.png","null","trial","null","true","0.4,0.6","4:nogo_d","",""
"null","","html-keyboard-response","254","347701","0.0-6.0-1.11","","<img src=""img/yellow-r.png"">","null","trial","null","","0.4,0.6","4:nogo_d","1",""
"null","","html-keyboard-response","255","348703","0.0-6.0-2.11","","<div style=""font-size:60px;"">+</div>","null","","","","","","",""
"649.7999999970198","","image-keyboard-response","256","349354","0.0-6.0-0.12","","img/grey.png","32","trial","32","true","0.6,0.4","3:go_c","",""
"null","","html-keyboard-response","257","350356","0.0-6.0-1.12","","<img src=""img/grey-n.png"" border=""10"">","null","trial","32","","0.6,0.4","3:go_c","0",""
"null","","html-keyboard-response","258","351358","0.0-6.0-2.12","","<div style=""font-size:60px;"">+</div>","null","","","","","","",""
"579.2999999970198","","image-keyboard-response","259","351939","0.0-6.0-0.13","","img/blue.png","32","trial","32","true","0.6,0.4","1:go_a","",""
"null","","html-keyboard-response","260","352945","0.0-6.0-1.13","","<img src=""img/blue-r.png"" border=""10"">","null","trial","32","","0.6,0.4","1:go_a","1",""
"null","","html-keyboard-response","261","353946","0.0-6.0-2.13","","<div style=""font-size:60px;"">+</div>","null","","","","","","",""
"644.0999999940395","","image-keyboard-response","262","354591","0.0-6.0-0.14","","img/yellow.png","32","trial","null","false","0.4,0.6","4:nogo_d","",""
"null","","html-keyboard-response","263","355595","0.0-6.0-1.14","","<img src=""img/yellow-n.png"" border=""10"">","null","trial","null","","0.4,0.6","4:nogo_d","0",""
"null","","html-keyboard-response","264","356596","0.0-6.0-2.14","","<div style=""font-size:60px;"">+</div>","null","","","","","","",""
"801.8000000119209","","image-keyboard-response","265","357399","0.0-6.0-0.15","","img/pink.png","32","trial","null","false","0.4,0.6","2:nogo_b","",""
"null","","html-keyboard-response","266","358401","0.0-6.0-1.15","","<img src=""img/pink-n.png"" border=""10"">","null","trial","null","","0.4,0.6","2:nogo_b","0",""
"null","","html-keyboard-response","267","359403","0.0-6.0-2.15","","<div style=""font-size:60px;"">+</div>","null","","","","","","",""
"null","","image-keyboard-response","268","360907","0.0-6.0-0.16","","img/yellow.png","null","trial","null","true","0.4,0.6","4:nogo_d","",""
"null","","html-keyboard-response","269","361913","0.0-6.0-1.16","","<img src=""img/yellow-r.png"">","null","trial","null","","0.4,0.6","4:nogo_d","1",""
"null","","html-keyboard-response","270","362916","0.0-6.0-2.16","","<div style=""font-size:60px;"">+</div>","null","","","","","","",""
"972.7999999970198","","image-keyboard-response","271","363891","0.0-6.0-0.17","","img/grey.png","32","trial","32","true","0.6,0.4","3:go_c","",""
"null","","html-keyboard-response","272","364893","0.0-6.0-1.17","","<img src=""img/grey-r.png"" border=""10"">","null","trial","32","","0.6,0.4","3:go_c","1",""
"null","","html-keyboard-response","273","365895","0.0-6.0-2.17","","<div style=""font-size:60px;"">+</div>","null","","","","","","",""
"null","","image-keyboard-response","274","367397","0.0-6.0-0.18","","img/pink.png","null","trial","null","true","0.4,0.6","2:nogo_b","",""
"null","","html-keyboard-response","275","368401","0.0-6.0-1.18","","<img src=""img/pink-r.png"">","null","trial","null","","0.4,0.6","2:nogo_b","1",""
"null","","html-keyboard-response","276","369412","0.0-6.0-2.18","","<div style=""font-size:60px;"">+</div>","null","","","","","","",""
"582.4000000059605","","image-keyboard-response","277","369996","0.0-6.0-0.19","","img/blue.png","32","trial","32","true","0.6,0.4","1:go_a","",""
"null","","html-keyboard-response","278","370998","0.0-6.0-1.19","","<img src=""img/blue-r.png"" border=""10"">","null","trial","32","","0.6,0.4","1:go_a","1",""
"null","","html-keyboard-response","279","372010","0.0-6.0-2.19","","<div style=""font-size:60px;"">+</div>","null","","","","","","",""
"670.2999999970198","","image-keyboard-response","280","372683","0.0-6.0-0.20","","img/grey.png","32","trial","32","true","0.6,0.4","3:go_c","",""
"null","","html-keyboard-response","281","373685","0.0-6.0-1.20","","<img src=""img/grey-r.png"" border=""10"">","null","trial","32","","0.6,0.4","3:go_c","1",""
"null","","html-keyboard-response","282","374686","0.0-6.0-2.20","","<div style=""font-size:60px;"">+</div>","null","","","","","","",""
"null","","image-keyboard-response","283","376188","0.0-6.0-0.21","","img/pink.png","null","trial","null","true","0.4,0.6","2:nogo_b","",""
"null","","html-keyboard-response","284","377191","0.0-6.0-1.21","","<img src=""img/pink-n.png"">","null","trial","null","","0.4,0.6","2:nogo_b","0",""
"null","","html-keyboard-response","285","378192","0.0-6.0-2.21","","<div style=""font-size:60px;"">+</div>","null","","","","","","",""
"825.8999999910593","","image-keyboard-response","286","379019","0.0-6.0-0.22","","img/blue.png","32","trial","32","true","0.6,0.4","1:go_a","",""
"null","","html-keyboard-response","287","380021","0.0-6.0-1.22","","<img src=""img/blue-n.png"" border=""10"">","null","trial","32","","0.6,0.4","1:go_a","0",""
"null","","html-keyboard-response","288","381023","0.0-6.0-2.22","","<div style=""font-size:60px;"">+</div>","null","","","","","","",""
"698.5999999940395","","image-keyboard-response","289","381723","0.0-6.0-0.23","","img/yellow.png","32","trial","null","false","0.4,0.6","4:nogo_d","",""
"null","","html-keyboard-response","290","382727","0.0-6.0-1.23","","<img src=""img/yellow-n.png"" border=""10"">","null","trial","null","","0.4,0.6","4:nogo_d","0",""
"null","","html-keyboard-response","291","383729","0.0-6.0-2.23","","<div style=""font-size:60px;"">+</div>","null","","","","","","",""
"null","","image-keyboard-response","292","385231","0.0-6.0-0.24","","img/yellow.png","null","trial","null","true","0.4,0.6","4:nogo_d","",""
"null","","html-keyboard-response","293","386233","0.0-6.0-1.24","","<img src=""img/yellow-n.png"">","null","trial","null","","0.4,0.6","4:nogo_d","0",""
"null","","html-keyboard-response","294","387234","0.0-6.0-2.24","","<div style=""font-size:60px;"">+</div>","null","","","","","","",""
"550.9000000059605","","image-keyboard-response","295","387786","0.0-6.0-0.25","","img/blue.png","32","trial","32","true","0.6,0.4","1:go_a","",""
"null","","html-keyboard-response","296","388788","0.0-6.0-1.25","","<img src=""img/blue-r.png"" border=""10"">","null","trial","32","","0.6,0.4","1:go_a","1",""
"null","","html-keyboard-response","297","389789","0.0-6.0-2.25","","<div style=""font-size:60px;"">+</div>","null","","","","","","",""
"609.8000000119209","","image-keyboard-response","298","390400","0.0-6.0-0.26","","img/grey.png","32","trial","32","true","0.6,0.4","3:go_c","",""
"null","","html-keyboard-response","299","391407","0.0-6.0-1.26","","<img src=""img/grey-r.png"" border=""10"">","null","trial","32","","0.6,0.4","3:go_c","1",""
"null","","html-keyboard-response","300","392409","0.0-6.0-2.26","","<div style=""font-size:60px;"">+</div>","null","","","","","","",""
"null","","image-keyboard-response","301","393910","0.0-6.0-0.27","","img/pink.png","null","trial","null","true","0.4,0.6","2:nogo_b","",""
"null","","html-keyboard-response","302","394912","0.0-6.0-1.27","","<img src=""img/pink-r.png"">","null","trial","null","","0.4,0.6","2:nogo_b","1",""
"null","","html-keyboard-response","303","395913","0.0-6.0-2.27","","<div style=""font-size:60px;"">+</div>","null","","","","","","",""
"961.5999999940395","","image-keyboard-response","304","396876","0.0-6.0-0.28","","img/blue.png","32","trial","32","true","0.6,0.4","1:go_a","",""
"null","","html-keyboard-response","305","397878","0.0-6.0-1.28","","<img src=""img/blue-n.png"" border=""10"">","null","trial","32","","0.6,0.4","1:go_a","0",""
"null","","html-keyboard-response","306","398879","0.0-6.0-2.28","","<div style=""font-size:60px;"">+</div>","null","","","","","","",""
"576.3999999910593","","image-keyboard-response","307","399456","0.0-6.0-0.29","","img/grey.png","32","trial","32","true","0.6,0.4","3:go_c","",""
"null","","html-keyboard-response","308","400458","0.0-6.0-1.29","","<img src=""img/grey-r.png"" border=""10"">","null","trial","32","","0.6,0.4","3:go_c","1",""
"null","","html-keyboard-response","309","401459","0.0-6.0-2.29","","<div style=""font-size:60px;"">+</div>","null","","","","","","",""
"1104.2000000029802","","image-keyboard-response","310","402565","0.0-6.0-0.30","","img/pink.png","32","trial","null","false","0.4,0.6","2:nogo_b","",""
"null","","html-keyboard-response","311","403569","0.0-6.0-1.30","","<img src=""img/pink-r.png"" border=""10"">","null","trial","null","","0.4,0.6","2:nogo_b","1",""
"null","","html-keyboard-response","312","404571","0.0-6.0-2.30","","<div style=""font-size:60px;"">+</div>","null","","","","","","",""
"null","","image-keyboard-response","313","406073","0.0-6.0-0.31","","img/yellow.png","null","trial","null","true","0.4,0.6","4:nogo_d","",""
"null","","html-keyboard-response","314","407075","0.0-6.0-1.31","","<img src=""img/yellow-r.png"">","null","trial","null","","0.4,0.6","4:nogo_d","1",""
"null","","html-keyboard-response","315","408076","0.0-6.0-2.31","","<div style=""font-size:60px;"">+</div>","null","","","","","","",""
"604.1999999880791","","image-keyboard-response","316","408682","0.0-6.0-0.32","","img/yellow.png","32","trial","null","false","0.4,0.6","4:nogo_d","",""
"null","","html-keyboard-response","317","409685","0.0-6.0-1.32","","<img src=""img/yellow-r.png"" border=""10"">","null","trial","null","","0.4,0.6","4:nogo_d","1",""
"null","","html-keyboard-response","318","410687","0.0-6.0-2.32","","<div style=""font-size:60px;"">+</div>","null","","","","","","",""
"null","","image-keyboard-response","319","412188","0.0-6.0-0.33","","img/pink.png","null","trial","null","true","0.4,0.6","2:nogo_b","",""
"null","","html-keyboard-response","320","413190","0.0-6.0-1.33","","<img src=""img/pink-n.png"">","null","trial","null","","0.4,0.6","2:nogo_b","0",""
"null","","html-keyboard-response","321","414191","0.0-6.0-2.33","","<div style=""font-size:60px;"">+</div>","null","","","","","","",""
"601.2000000029802","","image-keyboard-response","322","414793","0.0-6.0-0.34","","img/blue.png","32","trial","32","true","0.6,0.4","1:go_a","",""
"null","","html-keyboard-response","323","415797","0.0-6.0-1.34","","<img src=""img/blue-r.png"" border=""10"">","null","trial","32","","0.6,0.4","1:go_a","1",""
"null","","html-keyboard-response","324","416799","0.0-6.0-2.34","","<div style=""font-size:60px;"">+</div>","null","","","","","","",""
"705.1999999880791","","image-keyboard-response","325","417506","0.0-6.0-0.35","","img/grey.png","32","trial","32","true","0.6,0.4","3:go_c","",""
"null","","html-keyboard-response","326","418508","0.0-6.0-1.35","","<img src=""img/grey-r.png"" border=""10"">","null","trial","32","","0.6,0.4","3:go_c","1",""
"null","","html-keyboard-response","327","419510","0.0-6.0-2.35","","<div style=""font-size:60px;"">+</div>","null","","","","","","",""
"766.5","","image-keyboard-response","328","420278","0.0-6.0-0.36","","img/grey.png","32","trial","32","true","0.6,0.4","3:go_c","",""
"null","","html-keyboard-response","329","421280","0.0-6.0-1.36","","<img src=""img/grey-n.png"" border=""10"">","null","trial","32","","0.6,0.4","3:go_c","0",""
"null","","html-keyboard-response","330","422283","0.0-6.0-2.36","","<div style=""font-size:60px;"">+</div>","null","","","","","","",""
"null","","image-keyboard-response","331","423787","0.0-6.0-0.37","","img/pink.png","null","trial","null","true","0.4,0.6","2:nogo_b","",""
"null","","html-keyboard-response","332","424789","0.0-6.0-1.37","","<img src=""img/pink-r.png"">","null","trial","null","","0.4,0.6","2:nogo_b","1",""
"null","","html-keyboard-response","333","425790","0.0-6.0-2.37","","<div style=""font-size:60px;"">+</div>","null","","","","","","",""
"null","","image-keyboard-response","334","427292","0.0-6.0-0.38","","img/yellow.png","null","trial","null","true","0.4,0.6","4:nogo_d","",""
"null","","html-keyboard-response","335","428295","0.0-6.0-1.38","","<img src=""img/yellow-r.png"">","null","trial","null","","0.4,0.6","4:nogo_d","1",""
"null","","html-keyboard-response","336","429302","0.0-6.0-2.38","","<div style=""font-size:60px;"">+</div>","null","","","","","","",""
"627.6000000089407","","image-keyboard-response","337","429931","0.0-6.0-0.39","","img/blue.png","32","trial","32","true","0.6,0.4","1:go_a","",""
"null","","html-keyboard-response","338","430933","0.0-6.0-1.39","","<img src=""img/blue-r.png"" border=""10"">","null","trial","32","","0.6,0.4","1:go_a","1",""
"null","","html-keyboard-response","339","431934","0.0-6.0-2.39","","<div style=""font-size:60px;"">+</div>","null","","","","","","",""
"699.2999999970198","","image-keyboard-response","340","432634","0.0-6.0-0.40","","img/pink.png","32","trial","null","false","0.4,0.6","2:nogo_b","",""
"null","","html-keyboard-response","341","433637","0.0-6.0-1.40","","<img src=""img/pink-n.png"" border=""10"">","null","trial","null","","0.4,0.6","2:nogo_b","0",""
"null","","html-keyboard-response","342","434639","0.0-6.0-2.40","","<div style=""font-size:60px;"">+</div>","null","","","","","","",""
"646","","image-keyboard-response","343","435286","0.0-6.0-0.41","","img/yellow.png","32","trial","null","false","0.4,0.6","4:nogo_d","",""
"null","","html-keyboard-response","344","436288","0.0-6.0-1.41","","<img src=""img/yellow-n.png"" border=""10"">","null","trial","null","","0.4,0.6","4:nogo_d","0",""
"null","","html-keyboard-response","345","437290","0.0-6.0-2.41","","<div style=""font-size:60px;"">+</div>","null","","","","","","",""
"598","","image-keyboard-response","346","437889","0.0-6.0-0.42","","img/grey.png","32","trial","32","true","0.6,0.4","3:go_c","",""
"null","","html-keyboard-response","347","438891","0.0-6.0-1.42","","<img src=""img/grey-r.png"" border=""10"">","null","trial","32","","0.6,0.4","3:go_c","1",""
"null","","html-keyboard-response","348","439892","0.0-6.0-2.42","","<div style=""font-size:60px;"">+</div>","null","","","","","","",""
"700.6000000089407","","image-keyboard-response","349","440593","0.0-6.0-0.43","","img/blue.png","32","trial","32","true","0.6,0.4","1:go_a","",""
"null","","html-keyboard-response","350","441597","0.0-6.0-1.43","","<img src=""img/blue-r.png"" border=""10"">","null","trial","32","","0.6,0.4","1:go_a","1",""
"null","","html-keyboard-response","351","442599","0.0-6.0-2.43","","<div style=""font-size:60px;"">+</div>","null","","","","","","",""
"794.2000000029802","","image-keyboard-response","352","443394","0.0-6.0-0.44","","img/grey.png","32","trial","32","true","0.6,0.4","3:go_c","",""
"null","","html-keyboard-response","353","444404","0.0-6.0-1.44","","<img src=""img/grey-r.png"" border=""10"">","null","trial","32","","0.6,0.4","3:go_c","1",""
"null","","html-keyboard-response","354","445405","0.0-6.0-2.44","","<div style=""font-size:60px;"">+</div>","null","","","","","","",""
"747","","image-keyboard-response","355","446153","0.0-6.0-0.45","","img/yellow.png","32","trial","null","false","0.4,0.6","4:nogo_d","",""
"null","","html-keyboard-response","356","447156","0.0-6.0-1.45","","<img src=""img/yellow-n.png"" border=""10"">","null","trial","null","","0.4,0.6","4:nogo_d","0",""
"null","","html-keyboard-response","357","448157","0.0-6.0-2.45","","<div style=""font-size:60px;"">+</div>","null","","","","","","",""
"659","","image-keyboard-response","358","448817","0.0-6.0-0.46","","img/pink.png","32","trial","null","false","0.4,0.6","2:nogo_b","",""
"null","","html-keyboard-response","359","449819","0.0-6.0-1.46","","<img src=""img/pink-r.png"" border=""10"">","null","trial","null","","0.4,0.6","2:nogo_b","1",""
"null","","html-keyboard-response","360","450820","0.0-6.0-2.46","","<div style=""font-size:60px;"">+</div>","null","","","","","","",""
"652.1999999880791","","image-keyboard-response","361","451473","0.0-6.0-0.47","","img/blue.png","32","trial","32","true","0.6,0.4","1:go_a","",""
"null","","html-keyboard-response","362","452475","0.0-6.0-1.47","","<img src=""img/blue-n.png"" border=""10"">","null","trial","32","","0.6,0.4","1:go_a","0",""
"null","","html-keyboard-response","363","453476","0.0-6.0-2.47","","<div style=""font-size:60px;"">+</div>","null","","","","","","",""
"566.2000000029802","","image-keyboard-response","364","454044","0.0-6.0-0.48","","img/grey.png","32","trial","32","true","0.6,0.4","3:go_c","",""
"null","","html-keyboard-response","365","455046","0.0-6.0-1.48","","<img src=""img/grey-r.png"" border=""10"">","null","trial","32","","0.6,0.4","3:go_c","1",""
"null","","html-keyboard-response","366","456047","0.0-6.0-2.48","","<div style=""font-size:60px;"">+</div>","null","","","","","","",""
"785.5","","image-keyboard-response","367","456834","0.0-6.0-0.49","","img/blue.png","32","trial","32","true","0.6,0.4","1:go_a","",""
"null","","html-keyboard-response","368","457837","0.0-6.0-1.49","","<img src=""img/blue-n.png"" border=""10"">","null","trial","32","","0.6,0.4","1:go_a","0",""
"null","","html-keyboard-response","369","458838","0.0-6.0-2.49","","<div style=""font-size:60px;"">+</div>","null","","","","","","",""
"696.4000000059605","","image-keyboard-response","370","459536","0.0-6.0-0.50","","img/pink.png","32","trial","null","false","0.4,0.6","2:nogo_b","",""
"null","","html-keyboard-response","371","460538","0.0-6.0-1.50","","<img src=""img/pink-n.png"" border=""10"">","null","trial","null","","0.4,0.6","2:nogo_b","0",""
"null","","html-keyboard-response","372","461540","0.0-6.0-2.50","","<div style=""font-size:60px;"">+</div>","null","","","","","","",""
"732.5","","image-keyboard-response","373","462274","0.0-6.0-0.51","","img/yellow.png","32","trial","null","false","0.4,0.6","4:nogo_d","",""
"null","","html-keyboard-response","374","463276","0.0-6.0-1.51","","<img src=""img/yellow-n.png"" border=""10"">","null","trial","null","","0.4,0.6","4:nogo_d","0",""
"null","","html-keyboard-response","375","464279","0.0-6.0-2.51","","<div style=""font-size:60px;"">+</div>","null","","","","","","",""
"633.5999999940395","","image-keyboard-response","376","464913","0.0-6.0-0.52","","img/blue.png","32","trial","32","true","0.6,0.4","1:go_a","",""
"null","","html-keyboard-response","377","465916","0.0-6.0-1.52","","<img src=""img/blue-r.png"" border=""10"">","null","trial","32","","0.6,0.4","1:go_a","1",""
"null","","html-keyboard-response","378","466918","0.0-6.0-2.52","","<div style=""font-size:60px;"">+</div>","null","","","","","","",""
"635.4000000059605","","image-keyboard-response","379","467554","0.0-6.0-0.53","","img/grey.png","32","trial","32","true","0.6,0.4","3:go_c","",""
"null","","html-keyboard-response","380","468556","0.0-6.0-1.53","","<img src=""img/grey-r.png"" border=""10"">","null","trial","32","","0.6,0.4","3:go_c","1",""
"null","","html-keyboard-response","381","469558","0.0-6.0-2.53","","<div style=""font-size:60px;"">+</div>","null","","","","","","",""
"null","","image-keyboard-response","382","471062","0.0-6.0-0.54","","img/yellow.png","null","trial","null","true","0.4,0.6","4:nogo_d","",""
"null","","html-keyboard-response","383","472084","0.0-6.0-1.54","","<img src=""img/yellow-n.png"">","null","trial","null","","0.4,0.6","4:nogo_d","0",""
"null","","html-keyboard-response","384","473085","0.0-6.0-2.54","","<div style=""font-size:60px;"">+</div>","null","","","","","","",""
"708.2000000029802","","image-keyboard-response","385","473794","0.0-6.0-0.55","","img/pink.png","32","trial","null","false","0.4,0.6","2:nogo_b","",""
"null","","html-keyboard-response","386","474796","0.0-6.0-1.55","","<img src=""img/pink-n.png"" border=""10"">","null","trial","null","","0.4,0.6","2:nogo_b","0",""
"null","","html-keyboard-response","387","475797","0.0-6.0-2.55","","<div style=""font-size:60px;"">+</div>","null","","","","","","",""
"1099","","image-keyboard-response","388","476897","0.0-6.0-0.56","","img/pink.png","32","trial","null","false","0.4,0.6","2:nogo_b","",""
"null","","html-keyboard-response","389","477899","0.0-6.0-1.56","","<img src=""img/pink-r.png"" border=""10"">","null","trial","null","","0.4,0.6","2:nogo_b","1",""
"null","","html-keyboard-response","390","478901","0.0-6.0-2.56","","<div style=""font-size:60px;"">+</div>","null","","","","","","",""
"713.5999999940395","","image-keyboard-response","391","479616","0.0-6.0-0.57","","img/grey.png","32","trial","32","true","0.6,0.4","3:go_c","",""
"null","","html-keyboard-response","392","480618","0.0-6.0-1.57","","<img src=""img/grey-n.png"" border=""10"">","null","trial","32","","0.6,0.4","3:go_c","0",""
"null","","html-keyboard-response","393","481620","0.0-6.0-2.57","","<div style=""font-size:60px;"">+</div>","null","","","","","","",""
"null","","image-keyboard-response","394","483124","0.0-6.0-0.58","","img/yellow.png","null","trial","null","true","0.4,0.6","4:nogo_d","",""
"null","","html-keyboard-response","395","484127","0.0-6.0-1.58","","<img src=""img/yellow-n.png"">","null","trial","null","","0.4,0.6","4:nogo_d","0",""
"null","","html-keyboard-response","396","485129","0.0-6.0-2.58","","<div style=""font-size:60px;"">+</div>","null","","","","","","",""
"524.8000000119209","","image-keyboard-response","397","485654","0.0-6.0-0.59","","img/blue.png","32","trial","32","true","0.6,0.4","1:go_a","",""
"null","","html-keyboard-response","398","486656","0.0-6.0-1.59","","<img src=""img/blue-r.png"" border=""10"">","null","trial","32","","0.6,0.4","1:go_a","1",""
"null","","html-keyboard-response","399","487658","0.0-6.0-2.59","","<div style=""font-size:60px;"">+</div>","null","","","","","","",""
"816.6000000089407","","image-keyboard-response","400","488476","0.0-6.0-0.60","","img/yellow.png","32","trial","null","false","0.4,0.6","4:nogo_d","",""
"null","","html-keyboard-response","401","489479","0.0-6.0-1.60","","<img src=""img/yellow-n.png"" border=""10"">","null","trial","null","","0.4,0.6","4:nogo_d","0",""
"null","","html-keyboard-response","402","490480","0.0-6.0-2.60","","<div style=""font-size:60px;"">+</div>","null","","","","","","",""
"871.4000000059605","","image-keyboard-response","403","491356","0.0-6.0-0.61","","img/grey.png","32","trial","32","true","0.6,0.4","3:go_c","",""
"null","","html-keyboard-response","404","492358","0.0-6.0-1.61","","<img src=""img/grey-n.png"" border=""10"">","null","trial","32","","0.6,0.4","3:go_c","0",""
"null","","html-keyboard-response","405","493360","0.0-6.0-2.61","","<div style=""font-size:60px;"">+</div>","null","","","","","","",""
"685","","image-keyboard-response","406","494046","0.0-6.0-0.62","","img/blue.png","32","trial","32","true","0.6,0.4","1:go_a","",""
"null","","html-keyboard-response","407","495048","0.0-6.0-1.62","","<img src=""img/blue-r.png"" border=""10"">","null","trial","32","","0.6,0.4","1:go_a","1",""
"null","","html-keyboard-response","408","496049","0.0-6.0-2.62","","<div style=""font-size:60px;"">+</div>","null","","","","","","",""
"null","","image-keyboard-response","409","497551","0.0-6.0-0.63","","img/pink.png","null","trial","null","true","0.4,0.6","2:nogo_b","",""
"null","","html-keyboard-response","410","498553","0.0-6.0-1.63","","<img src=""img/pink-n.png"">","null","trial","null","","0.4,0.6","2:nogo_b","0",""
"null","","html-keyboard-response","411","499554","0.0-6.0-2.63","","<div style=""font-size:60px;"">+</div>","null","","","","","","",""
"608.3000000119209","","image-keyboard-response","412","500163","0.0-6.0-0.64","","img/blue.png","32","trial","32","true","0.6,0.4","1:go_a","",""
"null","","html-keyboard-response","413","501165","0.0-6.0-1.64","","<img src=""img/blue-r.png"" border=""10"">","null","trial","32","","0.6,0.4","1:go_a","1",""
"null","","html-keyboard-response","414","502170","0.0-6.0-2.64","","<div style=""font-size:60px;"">+</div>","null","","","","","","",""
"919.6000000089407","","image-keyboard-response","415","503092","0.0-6.0-0.65","","img/pink.png","32","trial","null","false","0.4,0.6","2:nogo_b","",""
"null","","html-keyboard-response","416","504094","0.0-6.0-1.65","","<img src=""img/pink-n.png"" border=""10"">","null","trial","null","","0.4,0.6","2:nogo_b","0",""
"null","","html-keyboard-response","417","505096","0.0-6.0-2.65","","<div style=""font-size:60px;"">+</div>","null","","","","","","",""
"592.5999999940395","","image-keyboard-response","418","505690","0.0-6.0-0.66","","img/grey.png","32","trial","32","true","0.6,0.4","3:go_c","",""
"null","","html-keyboard-response","419","506693","0.0-6.0-1.66","","<img src=""img/grey-n.png"" border=""10"">","null","trial","32","","0.6,0.4","3:go_c","0",""
"null","","html-keyboard-response","420","507694","0.0-6.0-2.66","","<div style=""font-size:60px;"">+</div>","null","","","","","","",""
"890.2000000029802","","image-keyboard-response","421","508586","0.0-6.0-0.67","","img/yellow.png","32","trial","null","false","0.4,0.6","4:nogo_d","",""
"null","","html-keyboard-response","422","509588","0.0-6.0-1.67","","<img src=""img/yellow-n.png"" border=""10"">","null","trial","null","","0.4,0.6","4:nogo_d","0",""
"null","","html-keyboard-response","423","510590","0.0-6.0-2.67","","<div style=""font-size:60px;"">+</div>","null","","","","","","",""
"669.0999999940395","","image-keyboard-response","424","511261","0.0-6.0-0.68","","img/pink.png","32","trial","null","false","0.4,0.6","2:nogo_b","",""
"null","","html-keyboard-response","425","512266","0.0-6.0-1.68","","<img src=""img/pink-r.png"" border=""10"">","null","trial","null","","0.4,0.6","2:nogo_b","1",""
"null","","html-keyboard-response","426","513268","0.0-6.0-2.68","","<div style=""font-size:60px;"">+</div>","null","","","","","","",""
"748.7999999970198","","image-keyboard-response","427","514018","0.0-6.0-0.69","","img/grey.png","32","trial","32","true","0.6,0.4","3:go_c","",""
"null","","html-keyboard-response","428","515020","0.0-6.0-1.69","","<img src=""img/grey-r.png"" border=""10"">","null","trial","32","","0.6,0.4","3:go_c","1",""
"null","","html-keyboard-response","429","516021","0.0-6.0-2.69","","<div style=""font-size:60px;"">+</div>","null","","","","","","",""
"980.9000000059605","","image-keyboard-response","430","517003","0.0-6.0-0.70","","img/yellow.png","32","trial","null","false","0.4,0.6","4:nogo_d","",""
"null","","html-keyboard-response","431","518005","0.0-6.0-1.70","","<img src=""img/yellow-n.png"" border=""10"">","null","trial","null","","0.4,0.6","4:nogo_d","0",""
"null","","html-keyboard-response","432","519006","0.0-6.0-2.70","","<div style=""font-size:60px;"">+</div>","null","","","","","","",""
"651.5","","image-keyboard-response","433","519659","0.0-6.0-0.71","","img/blue.png","32","trial","32","true","0.6,0.4","1:go_a","",""
"null","","html-keyboard-response","434","520662","0.0-6.0-1.71","","<img src=""img/blue-r.png"" border=""10"">","null","trial","32","","0.6,0.4","1:go_a","1",""
"null","","html-keyboard-response","435","521663","0.0-6.0-2.71","","<div style=""font-size:60px;"">+</div>","null","","","","","","",""
"689.9000000059605","","image-keyboard-response","436","522354","0.0-6.0-0.72","","img/blue.png","32","trial","32","true","0.6,0.4","1:go_a","",""
"null","","html-keyboard-response","437","523357","0.0-6.0-1.72","","<img src=""img/blue-n.png"" border=""10"">","null","trial","32","","0.6,0.4","1:go_a","0",""
"null","","html-keyboard-response","438","524373","0.0-6.0-2.72","","<div style=""font-size:60px;"">+</div>","null","","","","","","",""
"676.2999999970198","","image-keyboard-response","439","525050","0.0-6.0-0.73","","img/grey.png","32","trial","32","true","0.6,0.4","3:go_c","",""
"null","","html-keyboard-response","440","526067","0.0-6.0-1.73","","<img src=""img/grey-n.png"" border=""10"">","null","trial","32","","0.6,0.4","3:go_c","0",""
"null","","html-keyboard-response","441","527075","0.0-6.0-2.73","","<div style=""font-size:60px;"">+</div>","null","","","","","","",""
"767.2999999970198","","image-keyboard-response","442","527843","0.0-6.0-0.74","","img/pink.png","32","trial","null","false","0.4,0.6","2:nogo_b","",""
"null","","html-keyboard-response","443","528846","0.0-6.0-1.74","","<img src=""img/pink-n.png"" border=""10"">","null","trial","null","","0.4,0.6","2:nogo_b","0",""
"null","","html-keyboard-response","444","529848","0.0-6.0-2.74","","<div style=""font-size:60px;"">+</div>","null","","","","","","",""
"881.2000000029802","","image-keyboard-response","445","530730","0.0-6.0-0.75","","img/yellow.png","32","trial","null","false","0.4,0.6","4:nogo_d","",""
"null","","html-keyboard-response","446","531734","0.0-6.0-1.75","","<img src=""img/yellow-r.png"" border=""10"">","null","trial","null","","0.4,0.6","4:nogo_d","1",""
"null","","html-keyboard-response","447","532746","0.0-6.0-2.75","","<div style=""font-size:60px;"">+</div>","null","","","","","","",""
"null","","image-keyboard-response","448","534248","0.0-6.0-0.76","","img/pink.png","null","trial","null","true","0.4,0.6","2:nogo_b","",""
"null","","html-keyboard-response","449","535250","0.0-6.0-1.76","","<img src=""img/pink-n.png"">","null","trial","null","","0.4,0.6","2:nogo_b","0",""
"null","","html-keyboard-response","450","536251","0.0-6.0-2.76","","<div style=""font-size:60px;"">+</div>","null","","","","","","",""
"662.2000000029802","","image-keyboard-response","451","536914","0.0-6.0-0.77","","img/yellow.png","32","trial","null","false","0.4,0.6","4:nogo_d","",""
"null","","html-keyboard-response","452","537916","0.0-6.0-1.77","","<img src=""img/yellow-r.png"" border=""10"">","null","trial","null","","0.4,0.6","4:nogo_d","1",""
"null","","html-keyboard-response","453","538917","0.0-6.0-2.77","","<div style=""font-size:60px;"">+</div>","null","","","","","","",""
"594.9000000059605","","image-keyboard-response","454","539513","0.0-6.0-0.78","","img/blue.png","32","trial","32","true","0.6,0.4","1:go_a","",""
"null","","html-keyboard-response","455","540515","0.0-6.0-1.78","","<img src=""img/blue-n.png"" border=""10"">","null","trial","32","","0.6,0.4","1:go_a","0",""
"null","","html-keyboard-response","456","541516","0.0-6.0-2.78","","<div style=""font-size:60px;"">+</div>","null","","","","","","",""
"null","","image-keyboard-response","457","543019","0.0-6.0-0.79","","img/grey.png","null","trial","32","false","0.6,0.4","3:go_c","",""
"null","","html-keyboard-response","458","544024","0.0-6.0-1.79","","<img src=""img/grey-n.png"">","null","trial","32","","0.6,0.4","3:go_c","0",""
"null","","html-keyboard-response","459","545026","0.0-6.0-2.79","","<div style=""font-size:60px;"">+</div>","null","","","","","","",""
"739.7000000029802","","image-keyboard-response","460","545767","0.0-6.0-0.80","","img/pink.png","32","trial","null","false","0.4,0.6","2:nogo_b","",""
"null","","html-keyboard-response","461","546770","0.0-6.0-1.80","","<img src=""img/pink-n.png"" border=""10"">","null","trial","null","","0.4,0.6","2:nogo_b","0",""
"null","","html-keyboard-response","462","547771","0.0-6.0-2.80","","<div style=""font-size:60px;"">+</div>","null","","","","","","",""
"734.5","","image-keyboard-response","463","548506","0.0-6.0-0.81","","img/grey.png","32","trial","32","true","0.6,0.4","3:go_c","",""
"null","","html-keyboard-response","464","549509","0.0-6.0-1.81","","<img src=""img/grey-n.png"" border=""10"">","null","trial","32","","0.6,0.4","3:go_c","0",""
"null","","html-keyboard-response","465","550510","0.0-6.0-2.81","","<div style=""font-size:60px;"">+</div>","null","","","","","","",""
"751.5","","image-keyboard-response","466","551262","0.0-6.0-0.82","","img/blue.png","32","trial","32","true","0.6,0.4","1:go_a","",""
"null","","html-keyboard-response","467","552267","0.0-6.0-1.82","","<img src=""img/blue-r.png"" border=""10"">","null","trial","32","","0.6,0.4","1:go_a","1",""
"null","","html-keyboard-response","468","553268","0.0-6.0-2.82","","<div style=""font-size:60px;"">+</div>","null","","","","","","",""
"590.2999999970198","","image-keyboard-response","469","553860","0.0-6.0-0.83","","img/yellow.png","32","trial","null","false","0.4,0.6","4:nogo_d","",""
"null","","html-keyboard-response","470","554862","0.0-6.0-1.83","","<img src=""img/yellow-n.png"" border=""10"">","null","trial","null","","0.4,0.6","4:nogo_d","0",""
"null","","html-keyboard-response","471","555863","0.0-6.0-2.83","","<div style=""font-size:60px;"">+</div>","null","","","","","","",""
"null","","image-keyboard-response","472","557367","0.0-6.0-0.84","","img/pink.png","null","trial","null","true","0.4,0.6","2:nogo_b","",""
"null","","html-keyboard-response","473","558370","0.0-6.0-1.84","","<img src=""img/pink-n.png"">","null","trial","null","","0.4,0.6","2:nogo_b","0",""
"null","","html-keyboard-response","474","559373","0.0-6.0-2.84","","<div style=""font-size:60px;"">+</div>","null","","","","","","",""
"627.6000000089407","","image-keyboard-response","475","560003","0.0-6.0-0.85","","img/blue.png","32","trial","32","true","0.6,0.4","1:go_a","",""
"null","","html-keyboard-response","476","561007","0.0-6.0-1.85","","<img src=""img/blue-r.png"" border=""10"">","null","trial","32","","0.6,0.4","1:go_a","1",""
"null","","html-keyboard-response","477","562008","0.0-6.0-2.85","","<div style=""font-size:60px;"">+</div>","null","","","","","","",""
"635.5","","image-keyboard-response","478","562645","0.0-6.0-0.86","","img/grey.png","32","trial","32","true","0.6,0.4","3:go_c","",""
"null","","html-keyboard-response","479","563647","0.0-6.0-1.86","","<img src=""img/grey-r.png"" border=""10"">","null","trial","32","","0.6,0.4","3:go_c","1",""
"null","","html-keyboard-response","480","564648","0.0-6.0-2.86","","<div style=""font-size:60px;"">+</div>","null","","","","","","",""
"825.2000000029802","","image-keyboard-response","481","565474","0.0-6.0-0.87","","img/yellow.png","32","trial","null","false","0.4,0.6","4:nogo_d","",""
"null","","html-keyboard-response","482","566476","0.0-6.0-1.87","","<img src=""img/yellow-r.png"" border=""10"">","null","trial","null","","0.4,0.6","4:nogo_d","1",""
"null","","html-keyboard-response","483","567477","0.0-6.0-2.87","","<div style=""font-size:60px;"">+</div>","null","","","","","","",""
"695.7999999970198","","image-keyboard-response","484","568174","0.0-6.0-0.88","","img/blue.png","32","trial","32","true","0.6,0.4","1:go_a","",""
"null","","html-keyboard-response","485","569176","0.0-6.0-1.88","","<img src=""img/blue-r.png"" border=""10"">","null","trial","32","","0.6,0.4","1:go_a","1",""
"null","","html-keyboard-response","486","570177","0.0-6.0-2.88","","<div style=""font-size:60px;"">+</div>","null","","","","","","",""
"712.1000000089407","","image-keyboard-response","487","570891","0.0-6.0-0.89","","img/pink.png","32","trial","null","false","0.4,0.6","2:nogo_b","",""
"null","","html-keyboard-response","488","571892","0.0-6.0-1.89","","<img src=""img/pink-n.png"" border=""10"">","null","trial","null","","0.4,0.6","2:nogo_b","0",""
"null","","html-keyboard-response","489","572893","0.0-6.0-2.89","","<div style=""font-size:60px;"">+</div>","null","","","","","","",""
"628.7000000029802","","image-keyboard-response","490","573523","0.0-6.0-0.90","","img/grey.png","32","trial","32","true","0.6,0.4","3:go_c","",""
"null","","html-keyboard-response","491","574525","0.0-6.0-1.90","","<img src=""img/grey-r.png"" border=""10"">","null","trial","32","","0.6,0.4","3:go_c","1",""
"null","","html-keyboard-response","492","575527","0.0-6.0-2.90","","<div style=""font-size:60px;"">+</div>","null","","","","","","",""
"620.0999999940395","","image-keyboard-response","493","576148","0.0-6.0-0.91","","img/yellow.png","32","trial","null","false","0.4,0.6","4:nogo_d","",""
"null","","html-keyboard-response","494","577153","0.0-6.0-1.91","","<img src=""img/yellow-n.png"" border=""10"">","null","trial","null","","0.4,0.6","4:nogo_d","0",""
"null","","html-keyboard-response","495","578155","0.0-6.0-2.91","","<div style=""font-size:60px;"">+</div>","null","","","","","","",""
"651","","image-keyboard-response","496","578807","0.0-6.0-0.92","","img/blue.png","32","trial","32","true","0.6,0.4","1:go_a","",""
"null","","html-keyboard-response","497","579810","0.0-6.0-1.92","","<img src=""img/blue-n.png"" border=""10"">","null","trial","32","","0.6,0.4","1:go_a","0",""
"null","","html-keyboard-response","498","580811","0.0-6.0-2.92","","<div style=""font-size:60px;"">+</div>","null","","","","","","",""
"823.6000000089407","","image-keyboard-response","499","581635","0.0-6.0-0.93","","img/yellow.png","32","trial","null","false","0.4,0.6","4:nogo_d","",""
"null","","html-keyboard-response","500","582639","0.0-6.0-1.93","","<img src=""img/yellow-r.png"" border=""10"">","null","trial","null","","0.4,0.6","4:nogo_d","1",""
"null","","html-keyboard-response","501","583641","0.0-6.0-2.93","","<div style=""font-size:60px;"">+</div>","null","","","","","","",""
"null","","image-keyboard-response","502","585144","0.0-6.0-0.94","","img/pink.png","null","trial","null","true","0.4,0.6","2:nogo_b","",""
"null","","html-keyboard-response","503","586146","0.0-6.0-1.94","","<img src=""img/pink-n.png"">","null","trial","null","","0.4,0.6","2:nogo_b","0",""
"null","","html-keyboard-response","504","587147","0.0-6.0-2.94","","<div style=""font-size:60px;"">+</div>","null","","","","","","",""
"658.6999999880791","","image-keyboard-response","505","587807","0.0-6.0-0.95","","img/grey.png","32","trial","32","true","0.6,0.4","3:go_c","",""
"null","","html-keyboard-response","506","588812","0.0-6.0-1.95","","<img src=""img/grey-r.png"" border=""10"">","null","trial","32","","0.6,0.4","3:go_c","1",""
"null","","html-keyboard-response","507","589814","0.0-6.0-2.95","","<div style=""font-size:60px;"">+</div>","null","","","","","","",""
"741.0999999940395","","image-keyboard-response","508","590556","0.0-6.0-0.96","","img/blue.png","32","trial","32","true","0.6,0.4","1:go_a","",""
"null","","html-keyboard-response","509","591561","0.0-6.0-1.96","","<img src=""img/blue-r.png"" border=""10"">","null","trial","32","","0.6,0.4","1:go_a","1",""
"null","","html-keyboard-response","510","592563","0.0-6.0-2.96","","<div style=""font-size:60px;"">+</div>","null","","","","","","",""
"null","","image-keyboard-response","511","594065","0.0-6.0-0.97","","img/pink.png","null","trial","null","true","0.4,0.6","2:nogo_b","",""
"null","","html-keyboard-response","512","595067","0.0-6.0-1.97","","<img src=""img/pink-r.png"">","null","trial","null","","0.4,0.6","2:nogo_b","1",""
"null","","html-keyboard-response","513","596068","0.0-6.0-2.97","","<div style=""font-size:60px;"">+</div>","null","","","","","","",""
"807.2999999970198","","image-keyboard-response","514","596878","0.0-6.0-0.98","","img/grey.png","32","trial","32","true","0.6,0.4","3:go_c","",""
"null","","html-keyboard-response","515","597880","0.0-6.0-1.98","","<img src=""img/grey-n.png"" border=""10"">","null","trial","32","","0.6,0.4","3:go_c","0",""
"null","","html-keyboard-response","516","598881","0.0-6.0-2.98","","<div style=""font-size:60px;"">+</div>","null","","","","","","",""
"655","","image-keyboard-response","517","599538","0.0-6.0-0.99","","img/yellow.png","32","trial","null","false","0.4,0.6","4:nogo_d","",""
"null","","html-keyboard-response","518","600541","0.0-6.0-1.99","","<img src=""img/yellow-r.png"" border=""10"">","null","trial","null","","0.4,0.6","4:nogo_d","1",""
"null","","html-keyboard-response","519","601545","0.0-6.0-2.99","","<div style=""font-size:60px;"">+</div>","null","","","","","","",""
"777.7999999970198","","image-keyboard-response","520","602324","0.0-6.0-0.100","","img/grey.png","32","trial","32","true","0.6,0.4","3:go_c","",""
"null","","html-keyboard-response","521","603327","0.0-6.0-1.100","","<img src=""img/grey-r.png"" border=""10"">","null","trial","32","","0.6,0.4","3:go_c","1",""
"null","","html-keyboard-response","522","604331","0.0-6.0-2.100","","<div style=""font-size:60px;"">+</div>","null","","","","","","",""
"686.0999999940395","","image-keyboard-response","523","605019","0.0-6.0-0.101","","img/pink.png","32","trial","null","false","0.4,0.6","2:nogo_b","",""
"null","","html-keyboard-response","524","606023","0.0-6.0-1.101","","<img src=""img/pink-r.png"" border=""10"">","null","trial","null","","0.4,0.6","2:nogo_b","1",""
"null","","html-keyboard-response","525","607024","0.0-6.0-2.101","","<div style=""font-size:60px;"">+</div>","null","","","","","","",""
"658.5","","image-keyboard-response","526","607684","0.0-6.0-0.102","","img/yellow.png","32","trial","null","false","0.4,0.6","4:nogo_d","",""
"null","","html-keyboard-response","527","608688","0.0-6.0-1.102","","<img src=""img/yellow-n.png"" border=""10"">","null","trial","null","","0.4,0.6","4:nogo_d","0",""
"null","","html-keyboard-response","528","609689","0.0-6.0-2.102","","<div style=""font-size:60px;"">+</div>","null","","","","","","",""
"668.3999999910593","","image-keyboard-response","529","610359","0.0-6.0-0.103","","img/blue.png","32","trial","32","true","0.6,0.4","1:go_a","",""
"null","","html-keyboard-response","530","611362","0.0-6.0-1.103","","<img src=""img/blue-n.png"" border=""10"">","null","trial","32","","0.6,0.4","1:go_a","0",""
"null","","html-keyboard-response","531","612366","0.0-6.0-2.103","","<div style=""font-size:60px;"">+</div>","null","","","","","","",""
"819.7999999970198","","image-keyboard-response","532","613187","0.0-6.0-0.104","","img/yellow.png","32","trial","null","false","0.4,0.6","4:nogo_d","",""
"null","","html-keyboard-response","533","614190","0.0-6.0-1.104","","<img src=""img/yellow-n.png"" border=""10"">","null","trial","null","","0.4,0.6","4:nogo_d","0",""
"null","","html-keyboard-response","534","615192","0.0-6.0-2.104","","<div style=""font-size:60px;"">+</div>","null","","","","","","",""
"null","","image-keyboard-response","535","616694","0.0-6.0-0.105","","img/pink.png","null","trial","null","true","0.4,0.6","2:nogo_b","",""
"null","","html-keyboard-response","536","617697","0.0-6.0-1.105","","<img src=""img/pink-r.png"">","null","trial","null","","0.4,0.6","2:nogo_b","1",""
"null","","html-keyboard-response","537","618700","0.0-6.0-2.105","","<div style=""font-size:60px;"">+</div>","null","","","","","","",""
"584.2999999970198","","image-keyboard-response","538","619285","0.0-6.0-0.106","","img/blue.png","32","trial","32","true","0.6,0.4","1:go_a","",""
"null","","html-keyboard-response","539","620287","0.0-6.0-1.106","","<img src=""img/blue-n.png"" border=""10"">","null","trial","32","","0.6,0.4","1:go_a","0",""
"null","","html-keyboard-response","540","621289","0.0-6.0-2.106","","<div style=""font-size:60px;"">+</div>","null","","","","","","",""
"753","","image-keyboard-response","541","622043","0.0-6.0-0.107","","img/grey.png","32","trial","32","true","0.6,0.4","3:go_c","",""
"null","","html-keyboard-response","542","623046","0.0-6.0-1.107","","<img src=""img/grey-r.png"" border=""10"">","null","trial","32","","0.6,0.4","3:go_c","1",""
"null","","html-keyboard-response","543","624047","0.0-6.0-2.107","","<div style=""font-size:60px;"">+</div>","null","","","","","","",""
"787.5","","image-keyboard-response","544","624835","0.0-6.0-0.108","","img/grey.png","32","trial","32","true","0.6,0.4","3:go_c","",""
"null","","html-keyboard-response","545","625838","0.0-6.0-1.108","","<img src=""img/grey-r.png"" border=""10"">","null","trial","32","","0.6,0.4","3:go_c","1",""
"null","","html-keyboard-response","546","626841","0.0-6.0-2.108","","<div style=""font-size:60px;"">+</div>","null","","","","","","",""
"1197.0999999940395","","image-keyboard-response","547","628043","0.0-6.0-0.109","","img/pink.png","32","trial","null","false","0.4,0.6","2:nogo_b","",""
"null","","html-keyboard-response","548","629045","0.0-6.0-1.109","","<img src=""img/pink-r.png"" border=""10"">","null","trial","null","","0.4,0.6","2:nogo_b","1",""
"null","","html-keyboard-response","549","630046","0.0-6.0-2.109","","<div style=""font-size:60px;"">+</div>","null","","","","","","",""
"766.5999999940395","","image-keyboard-response","550","630814","0.0-6.0-0.110","","img/yellow.png","32","trial","null","false","0.4,0.6","4:nogo_d","",""
"null","","html-keyboard-response","551","631821","0.0-6.0-1.110","","<img src=""img/yellow-r.png"" border=""10"">","null","trial","null","","0.4,0.6","4:nogo_d","1",""
"null","","html-keyboard-response","552","632822","0.0-6.0-2.110","","<div style=""font-size:60px;"">+</div>","null","","","","","","",""
"675.8000000119209","","image-keyboard-response","553","633499","0.0-6.0-0.111","","img/blue.png","32","trial","32","true","0.6,0.4","1:go_a","",""
"null","","html-keyboard-response","554","634501","0.0-6.0-1.111","","<img src=""img/blue-r.png"" border=""10"">","null","trial","32","","0.6,0.4","1:go_a","1",""
"null","","html-keyboard-response","555","635502","0.0-6.0-2.111","","<div style=""font-size:60px;"">+</div>","null","","","","","","",""
"656.7999999970198","","image-keyboard-response","556","636160","0.0-6.0-0.112","","img/grey.png","32","trial","32","true","0.6,0.4","3:go_c","",""
"null","","html-keyboard-response","557","637162","0.0-6.0-1.112","","<img src=""img/grey-r.png"" border=""10"">","null","trial","32","","0.6,0.4","3:go_c","1",""
"null","","html-keyboard-response","558","638164","0.0-6.0-2.112","","<div style=""font-size:60px;"">+</div>","null","","","","","","",""
"null","","image-keyboard-response","559","639666","0.0-6.0-0.113","","img/yellow.png","null","trial","null","true","0.4,0.6","4:nogo_d","",""
"null","","html-keyboard-response","560","640668","0.0-6.0-1.113","","<img src=""img/yellow-r.png"">","null","trial","null","","0.4,0.6","4:nogo_d","1",""
"null","","html-keyboard-response","561","641669","0.0-6.0-2.113","","<div style=""font-size:60px;"">+</div>","null","","","","","","",""
"759.2000000029802","","image-keyboard-response","562","642430","0.0-6.0-0.114","","img/pink.png","32","trial","null","false","0.4,0.6","2:nogo_b","",""
"null","","html-keyboard-response","563","643432","0.0-6.0-1.114","","<img src=""img/pink-r.png"" border=""10"">","null","trial","null","","0.4,0.6","2:nogo_b","1",""
"null","","html-keyboard-response","564","644433","0.0-6.0-2.114","","<div style=""font-size:60px;"">+</div>","null","","","","","","",""
"559.1000000089407","","image-keyboard-response","565","644994","0.0-6.0-0.115","","img/blue.png","32","trial","32","true","0.6,0.4","1:go_a","",""
"null","","html-keyboard-response","566","645996","0.0-6.0-1.115","","<img src=""img/blue-r.png"" border=""10"">","null","trial","32","","0.6,0.4","1:go_a","1",""
"null","","html-keyboard-response","567","646999","0.0-6.0-2.115","","<div style=""font-size:60px;"">+</div>","null","","","","","","",""
"575.5","","image-keyboard-response","568","647577","0.0-6.0-0.116","","img/pink.png","32","trial","null","false","0.4,0.6","2:nogo_b","",""
"null","","html-keyboard-response","569","648579","0.0-6.0-1.116","","<img src=""img/pink-r.png"" border=""10"">","null","trial","null","","0.4,0.6","2:nogo_b","1",""
"null","","html-keyboard-response","570","649580","0.0-6.0-2.116","","<div style=""font-size:60px;"">+</div>","null","","","","","","",""
"645.2999999970198","","image-keyboard-response","571","650227","0.0-6.0-0.117","","img/yellow.png","32","trial","null","false","0.4,0.6","4:nogo_d","",""
"null","","html-keyboard-response","572","651229","0.0-6.0-1.117","","<img src=""img/yellow-n.png"" border=""10"">","null","trial","null","","0.4,0.6","4:nogo_d","0",""
"null","","html-keyboard-response","573","652232","0.0-6.0-2.117","","<div style=""font-size:60px;"">+</div>","null","","","","","","",""
"699.2999999970198","","image-keyboard-response","574","652932","0.0-6.0-0.118","","img/blue.png","32","trial","32","true","0.6,0.4","1:go_a","",""
"null","","html-keyboard-response","575","653934","0.0-6.0-1.118","","<img src=""img/blue-n.png"" border=""10"">","null","trial","32","","0.6,0.4","1:go_a","0",""
"null","","html-keyboard-response","576","654936","0.0-6.0-2.118","","<div style=""font-size:60px;"">+</div>","null","","","","","","",""
"null","","image-keyboard-response","577","656437","0.0-6.0-0.119","","img/grey.png","null","trial","32","false","0.6,0.4","3:go_c","",""
"null","","html-keyboard-response","578","657439","0.0-6.0-1.119","","<img src=""img/grey-n.png"">","null","trial","32","","0.6,0.4","3:go_c","0",""
"null","","html-keyboard-response","579","658441","0.0-6.0-2.119","","<div style=""font-size:60px;"">+</div>","null","","","","","","",""
"184424.60000000894","","instructions","580","842873","0.0-7.0","[{""page_index"":0,""viewing_time"":184423.60000000894}]","","","","","","","","",""
"1030.2000000029802","","image-keyboard-response","581","843907","0.0-8.0-0.0","","img/yellow.png","32","trial","32","true","0.6,0.4","3:go_c","",""
"null","","html-keyboard-response","582","844909","0.0-8.0-1.0","","<img src=""img/yellow-r.png"" border=""10"">","null","trial","32","","0.6,0.4","3:go_c","1",""
"null","","html-keyboard-response","583","845996","0.0-8.0-2.0","","<div style=""font-size:60px;"">+</div>","null","","","","","","",""
"609.2000000029802","","image-keyboard-response","584","846607","0.0-8.0-0.1","","img/green.png","32","trial","null","false","0.2,0.8","2:nogo_b","",""
"null","","html-keyboard-response","585","847611","0.0-8.0-1.1","","<img src=""img/green-n.png"" border=""10"">","null","trial","null","","0.2,0.8","2:nogo_b","0",""
"null","","html-keyboard-response","586","848639","0.0-8.0-2.1","","<div style=""font-size:60px;"">+</div>","null","","","","","","",""
"718","","image-keyboard-response","587","849358","0.0-8.0-0.2","","img/blue.png","32","trial","32","true","0.8,0.2","1:go_a","",""
"null","","html-keyboard-response","588","850400","0.0-8.0-1.2","","<img src=""img/blue-r.png"" border=""10"">","null","trial","32","","0.8,0.2","1:go_a","1",""
"null","","html-keyboard-response","589","851451","0.0-8.0-2.2","","<div style=""font-size:60px;"">+</div>","null","","","","","","",""
"740.4000000059605","","image-keyboard-response","590","852193","0.0-8.0-0.3","","img/grey.png","32","trial","null","false","0.4,0.6","4:nogo_d","",""
"null","","html-keyboard-response","591","853274","0.0-8.0-1.3","","<img src=""img/grey-n.png"" border=""10"">","null","trial","null","","0.4,0.6","4:nogo_d","0",""
"null","","html-keyboard-response","592","854323","0.0-8.0-2.3","","<div style=""font-size:60px;"">+</div>","null","","","","","","",""
"578.5","","image-keyboard-response","593","854903","0.0-8.0-0.4","","img/yellow.png","32","trial","32","true","0.6,0.4","3:go_c","",""
"null","","html-keyboard-response","594","855907","0.0-8.0-1.4","","<img src=""img/yellow-r.png"" border=""10"">","null","trial","32","","0.6,0.4","3:go_c","1",""
"null","","html-keyboard-response","595","856910","0.0-8.0-2.4","","<div style=""font-size:60px;"">+</div>","null","","","","","","",""
"808","","image-keyboard-response","596","857718","0.0-8.0-0.5","","img/grey.png","32","trial","null","false","0.4,0.6","4:nogo_d","",""
"null","","html-keyboard-response","597","858721","0.0-8.0-1.5","","<img src=""img/grey-r.png"" border=""10"">","null","trial","null","","0.4,0.6","4:nogo_d","1",""
"null","","html-keyboard-response","598","859722","0.0-8.0-2.5","","<div style=""font-size:60px;"">+</div>","null","","","","","","",""
"687.2000000029802","","image-keyboard-response","599","860410","0.0-8.0-0.6","","img/blue.png","32","trial","32","true","0.8,0.2","1:go_a","",""
"null","","html-keyboard-response","600","861412","0.0-8.0-1.6","","<img src=""img/blue-r.png"" border=""10"">","null","trial","32","","0.8,0.2","1:go_a","1",""
"null","","html-keyboard-response","601","862414","0.0-8.0-2.6","","<div style=""font-size:60px;"">+</div>","null","","","","","","",""
"null","","image-keyboard-response","602","863930","0.0-8.0-0.7","","img/green.png","null","trial","null","true","0.2,0.8","2:nogo_b","",""
"null","","html-keyboard-response","603","864931","0.0-8.0-1.7","","<img src=""img/green-n.png"">","null","trial","null","","0.2,0.8","2:nogo_b","0",""
"null","","html-keyboard-response","604","865932","0.0-8.0-2.7","","<div style=""font-size:60px;"">+</div>","null","","","","","","",""
"717.1999999880791","","image-keyboard-response","605","866650","0.0-8.0-0.8","","img/grey.png","32","trial","null","false","0.4,0.6","4:nogo_d","",""
"null","","html-keyboard-response","606","867652","0.0-8.0-1.8","","<img src=""img/grey-r.png"" border=""10"">","null","trial","null","","0.4,0.6","4:nogo_d","1",""
"null","","html-keyboard-response","607","868655","0.0-8.0-2.8","","<div style=""font-size:60px;"">+</div>","null","","","","","","",""
"678.7000000029802","","image-keyboard-response","608","869335","0.0-8.0-0.9","","img/blue.png","32","trial","32","true","0.8,0.2","1:go_a","",""
"null","","html-keyboard-response","609","870337","0.0-8.0-1.9","","<img src=""img/blue-r.png"" border=""10"">","null","trial","32","","0.8,0.2","1:go_a","1",""
"null","","html-keyboard-response","610","871338","0.0-8.0-2.9","","<div style=""font-size:60px;"">+</div>","null","","","","","","",""
"558.7000000029802","","image-keyboard-response","611","871898","0.0-8.0-0.10","","img/yellow.png","32","trial","32","true","0.6,0.4","3:go_c","",""
"null","","html-keyboard-response","612","872901","0.0-8.0-1.10","","<img src=""img/yellow-r.png"" border=""10"">","null","trial","32","","0.6,0.4","3:go_c","1",""
"null","","html-keyboard-response","613","873903","0.0-8.0-2.10","","<div style=""font-size:60px;"">+</div>","null","","","","","","",""
"null","","image-keyboard-response","614","875409","0.0-8.0-0.11","","img/green.png","null","trial","null","true","0.2,0.8","2:nogo_b","",""
"null","","html-keyboard-response","615","876413","0.0-8.0-1.11","","<img src=""img/green-r.png"">","null","trial","null","","0.2,0.8","2:nogo_b","1",""
"null","","html-keyboard-response","616","877414","0.0-8.0-2.11","","<div style=""font-size:60px;"">+</div>","null","","","","","","",""
"523.2000000029802","","image-keyboard-response","617","877938","0.0-8.0-0.12","","img/grey.png","32","trial","null","false","0.4,0.6","4:nogo_d","",""
"null","","html-keyboard-response","618","878940","0.0-8.0-1.12","","<img src=""img/grey-r.png"" border=""10"">","null","trial","null","","0.4,0.6","4:nogo_d","1",""
"null","","html-keyboard-response","619","879941","0.0-8.0-2.12","","<div style=""font-size:60px;"">+</div>","null","","","","","","",""
"556.5","","image-keyboard-response","620","880498","0.0-8.0-0.13","","img/yellow.png","32","trial","32","true","0.6,0.4","3:go_c","",""
"null","","html-keyboard-response","621","881526","0.0-8.0-1.13","","<img src=""img/yellow-r.png"" border=""10"">","null","trial","32","","0.6,0.4","3:go_c","1",""
"null","","html-keyboard-response","622","882529","0.0-8.0-2.13","","<div style=""font-size:60px;"">+</div>","null","","","","","","",""
"685.2999999970198","","image-keyboard-response","623","883217","0.0-8.0-0.14","","img/green.png","32","trial","null","false","0.2,0.8","2:nogo_b","",""
"null","","html-keyboard-response","624","884220","0.0-8.0-1.14","","<img src=""img/green-r.png"" border=""10"">","null","trial","null","","0.2,0.8","2:nogo_b","1",""
"null","","html-keyboard-response","625","885221","0.0-8.0-2.14","","<div style=""font-size:60px;"">+</div>","null","","","","","","",""
"593.2999999970198","","image-keyboard-response","626","885817","0.0-8.0-0.15","","img/blue.png","32","trial","32","true","0.8,0.2","1:go_a","",""
"null","","html-keyboard-response","627","886819","0.0-8.0-1.15","","<img src=""img/blue-r.png"" border=""10"">","null","trial","32","","0.8,0.2","1:go_a","1",""
"null","","html-keyboard-response","628","887820","0.0-8.0-2.15","","<div style=""font-size:60px;"">+</div>","null","","","","","","",""
"533.5","","image-keyboard-response","629","888354","0.0-8.0-0.16","","img/blue.png","32","trial","32","true","0.8,0.2","1:go_a","",""
"null","","html-keyboard-response","630","889364","0.0-8.0-1.16","","<img src=""img/blue-r.png"" border=""10"">","null","trial","32","","0.8,0.2","1:go_a","1",""
"null","","html-keyboard-response","631","890376","0.0-8.0-2.16","","<div style=""font-size:60px;"">+</div>","null","","","","","","",""
"586.5999999940395","","image-keyboard-response","632","890963","0.0-8.0-0.17","","img/yellow.png","32","trial","32","true","0.6,0.4","3:go_c","",""
"null","","html-keyboard-response","633","891965","0.0-8.0-1.17","","<img src=""img/yellow-r.png"" border=""10"">","null","trial","32","","0.6,0.4","3:go_c","1",""
"null","","html-keyboard-response","634","892966","0.0-8.0-2.17","","<div style=""font-size:60px;"">+</div>","null","","","","","","",""
"547.0999999940395","","image-keyboard-response","635","893514","0.0-8.0-0.18","","img/green.png","32","trial","null","false","0.2,0.8","2:nogo_b","",""
"null","","html-keyboard-response","636","894516","0.0-8.0-1.18","","<img src=""img/green-n.png"" border=""10"">","null","trial","null","","0.2,0.8","2:nogo_b","0",""
"null","","html-keyboard-response","637","895517","0.0-8.0-2.18","","<div style=""font-size:60px;"">+</div>","null","","","","","","",""
"630","","image-keyboard-response","638","896148","0.0-8.0-0.19","","img/grey.png","32","trial","null","false","0.4,0.6","4:nogo_d","",""
"null","","html-keyboard-response","639","897150","0.0-8.0-1.19","","<img src=""img/grey-n.png"" border=""10"">","null","trial","null","","0.4,0.6","4:nogo_d","0",""
"null","","html-keyboard-response","640","898151","0.0-8.0-2.19","","<div style=""font-size:60px;"">+</div>","null","","","","","","",""
"602.5999999940395","","image-keyboard-response","641","898755","0.0-8.0-0.20","","img/blue.png","32","trial","32","true","0.8,0.2","1:go_a","",""
"null","","html-keyboard-response","642","899758","0.0-8.0-1.20","","<img src=""img/blue-r.png"" border=""10"">","null","trial","32","","0.8,0.2","1:go_a","1",""
"null","","html-keyboard-response","643","900760","0.0-8.0-2.20","","<div style=""font-size:60px;"">+</div>","null","","","","","","",""
"848.2999999970198","","image-keyboard-response","644","901613","0.0-8.0-0.21","","img/green.png","32","trial","null","false","0.2,0.8","2:nogo_b","",""
"null","","html-keyboard-response","645","902616","0.0-8.0-1.21","","<img src=""img/green-n.png"" border=""10"">","null","trial","null","","0.2,0.8","2:nogo_b","0",""
"null","","html-keyboard-response","646","903618","0.0-8.0-2.21","","<div style=""font-size:60px;"">+</div>","null","","","","","","",""
"545.5999999940395","","image-keyboard-response","647","904165","0.0-8.0-0.22","","img/yellow.png","32","trial","32","true","0.6,0.4","3:go_c","",""
"null","","html-keyboard-response","648","905166","0.0-8.0-1.22","","<img src=""img/yellow-n.png"" border=""10"">","null","trial","32","","0.6,0.4","3:go_c","0",""
"null","","html-keyboard-response","649","906167","0.0-8.0-2.22","","<div style=""font-size:60px;"">+</div>","null","","","","","","",""
"770","","image-keyboard-response","650","906938","0.0-8.0-0.23","","img/grey.png","32","trial","null","false","0.4,0.6","4:nogo_d","",""
"null","","html-keyboard-response","651","907940","0.0-8.0-1.23","","<img src=""img/grey-n.png"" border=""10"">","null","trial","null","","0.4,0.6","4:nogo_d","0",""
"null","","html-keyboard-response","652","908941","0.0-8.0-2.23","","<div style=""font-size:60px;"">+</div>","null","","","","","","",""
"null","","image-keyboard-response","653","910443","0.0-8.0-0.24","","img/green.png","null","trial","null","true","0.2,0.8","2:nogo_b","",""
"null","","html-keyboard-response","654","911444","0.0-8.0-1.24","","<img src=""img/green-r.png"">","null","trial","null","","0.2,0.8","2:nogo_b","1",""
"null","","html-keyboard-response","655","912446","0.0-8.0-2.24","","<div style=""font-size:60px;"">+</div>","null","","","","","","",""
"660.2000000029802","","image-keyboard-response","656","913107","0.0-8.0-0.25","","img/grey.png","32","trial","null","false","0.4,0.6","4:nogo_d","",""
"null","","html-keyboard-response","657","914109","0.0-8.0-1.25","","<img src=""img/grey-r.png"" border=""10"">","null","trial","null","","0.4,0.6","4:nogo_d","1",""
"null","","html-keyboard-response","658","915111","0.0-8.0-2.25","","<div style=""font-size:60px;"">+</div>","null","","","","","","",""
"634.7999999970198","","image-keyboard-response","659","915763","0.0-8.0-0.26","","img/yellow.png","32","trial","32","true","0.6,0.4","3:go_c","",""
"null","","html-keyboard-response","660","916764","0.0-8.0-1.26","","<img src=""img/yellow-r.png"" border=""10"">","null","trial","32","","0.6,0.4","3:go_c","1",""
"null","","html-keyboard-response","661","917766","0.0-8.0-2.26","","<div style=""font-size:60px;"">+</div>","null","","","","","","",""
"538.7999999970198","","image-keyboard-response","662","918306","0.0-8.0-0.27","","img/blue.png","32","trial","32","true","0.8,0.2","1:go_a","",""
"null","","html-keyboard-response","663","919311","0.0-8.0-1.27","","<img src=""img/blue-n.png"" border=""10"">","null","trial","32","","0.8,0.2","1:go_a","0",""
"null","","html-keyboard-response","664","920313","0.0-8.0-2.27","","<div style=""font-size:60px;"">+</div>","null","","","","","","",""
"471.90000000596046","","image-keyboard-response","665","920785","0.0-8.0-0.28","","img/yellow.png","32","trial","32","true","0.6,0.4","3:go_c","",""
"null","","html-keyboard-response","666","921788","0.0-8.0-1.28","","<img src=""img/yellow-r.png"" border=""10"">","null","trial","32","","0.6,0.4","3:go_c","1",""
"null","","html-keyboard-response","667","922789","0.0-8.0-2.28","","<div style=""font-size:60px;"">+</div>","null","","","","","","",""
