"rt","url","trial_type","trial_index","time_elapsed","internal_node_id","view_history","stimulus","key_press","test_part","correct_response","correct","use_rew","which_stim","reward","responses"
"27574.615000048652","consent.html","external-html","0","27706","0.0-0.0","","","","","","","","","",""
"210302.7599999914","","instructions","1","238010","0.0-1.0","[{""page_index"":0,""viewing_time"":3364.5200000028126},{""page_index"":1,""viewing_time"":40930.84500002442},{""page_index"":2,""viewing_time"":7464.899999962654},{""page_index"":3,""viewing_time"":113134.68499999726},{""page_index"":4,""viewing_time"":19421.04000004474},{""page_index"":5,""viewing_time"":13011.039999953937},{""page_index"":6,""viewing_time"":12975.035000010394}]","","","","","","","","",""
"673.270000028424","","image-keyboard-response","2","238685","0.0-2.0-0.0","","img/test1.PNG","32","practice","32","true","","","",""
"null","","html-keyboard-response","3","239688","0.0-2.0-1.0","","<img src=""img/test1-reward.PNG"" border=""10px; grey"">","null","","","","","","",""
"null","","html-keyboard-response","4","240691","0.0-2.0-2.0","","<div style=""font-size:60px;"">+</div>","null","","","","","","",""
"null","","image-keyboard-response","5","242193","0.0-2.0-0.1","","img/test2.PNG","null","practice","null","true","","","",""
"null","","html-keyboard-response","6","243196","0.0-2.0-1.1","","<img src=""img/test2-reward.PNG"">","null","","","","","","",""
"null","","html-keyboard-response","7","244198","0.0-2.0-2.1","","<div style=""font-size:60px;"">+</div>","null","","","","","","",""
"null","","image-keyboard-response","8","245700","0.0-2.0-0.2","","img/test3.PNG","null","practice","null","true","","","",""
"null","","html-keyboard-response","9","246702","0.0-2.0-1.2","","<img src=""img/test3-reward.PNG"">","null","","","","","","",""
"null","","html-keyboard-response","10","247703","0.0-2.0-2.2","","<div style=""font-size:60px;"">+</div>","null","","","","","","",""
"null","","image-keyboard-response","11","249214","0.0-2.0-0.3","","img/test2.PNG","null","practice","null","true","","","",""
"null","","html-keyboard-response","12","250216","0.0-2.0-1.3","","<img src=""img/test2-reward.PNG"">","null","","","","","","",""
"null","","html-keyboard-response","13","251218","0.0-2.0-2.3","","<div style=""font-size:60px;"">+</div>","null","","","","","","",""
"null","","image-keyboard-response","14","252720","0.0-2.0-0.4","","img/test3.PNG","null","practice","null","true","","","",""
"null","","html-keyboard-response","15","253723","0.0-2.0-1.4","","<img src=""img/test3-reward.PNG"">","null","","","","","","",""
"null","","html-keyboard-response","16","254724","0.0-2.0-2.4","","<div style=""font-size:60px;"">+</div>","null","","","","","","",""
"480.6199999875389","","image-keyboard-response","17","255205","0.0-2.0-0.5","","img/test1.PNG","32","practice","32","true","","","",""
"null","","html-keyboard-response","18","256206","0.0-2.0-1.5","","<img src=""img/test1-reward.PNG"" border=""10px; grey"">","null","","","","","","",""
"null","","html-keyboard-response","19","257207","0.0-2.0-2.5","","<div style=""font-size:60px;"">+</div>","null","","","","","","",""
"null","","image-keyboard-response","20","258710","0.0-2.0-0.6","","img/test3.PNG","null","practice","null","true","","","",""
"null","","html-keyboard-response","21","259712","0.0-2.0-1.6","","<img src=""img/test3-reward.PNG"">","null","","","","","","",""
"null","","html-keyboard-response","22","260713","0.0-2.0-2.6","","<div style=""font-size:60px;"">+</div>","null","","","","","","",""
"null","","image-keyboard-response","23","262216","0.0-2.0-0.7","","img/test2.PNG","null","practice","null","true","","","",""
"null","","html-keyboard-response","24","263218","0.0-2.0-1.7","","<img src=""img/test2-reward.PNG"">","null","","","","","","",""
"null","","html-keyboard-response","25","264219","0.0-2.0-2.7","","<div style=""font-size:60px;"">+</div>","null","","","","","","",""
"457.410000031814","","image-keyboard-response","26","264677","0.0-2.0-0.8","","img/test1.PNG","32","practice","32","true","","","",""
"null","","html-keyboard-response","27","265679","0.0-2.0-1.8","","<img src=""img/test1-reward.PNG"" border=""10px; grey"">","null","","","","","","",""
"null","","html-keyboard-response","28","266681","0.0-2.0-2.8","","<div style=""font-size:60px;"">+</div>","null","","","","","","",""
"null","","image-keyboard-response","29","268183","0.0-2.0-0.9","","img/test3.PNG","null","practice","null","true","","","",""
"null","","html-keyboard-response","30","269185","0.0-2.0-1.9","","<img src=""img/test3-reward.PNG"">","null","","","","","","",""
"null","","html-keyboard-response","31","270187","0.0-2.0-2.9","","<div style=""font-size:60px;"">+</div>","null","","","","","","",""
"488.2750000106171","","image-keyboard-response","32","270677","0.0-2.0-0.10","","img/test1.PNG","32","practice","32","true","","","",""
"null","","html-keyboard-response","33","271692","0.0-2.0-1.10","","<img src=""img/test1-reward.PNG"" border=""10px; grey"">","null","","","","","","",""
"null","","html-keyboard-response","34","272693","0.0-2.0-2.10","","<div style=""font-size:60px;"">+</div>","null","","","","","","",""
"null","","image-keyboard-response","35","274195","0.0-2.0-0.11","","img/test2.PNG","null","practice","null","true","","","",""
"null","","html-keyboard-response","36","275197","0.0-2.0-1.11","","<img src=""img/test2-reward.PNG"">","null","","","","","","",""
"null","","html-keyboard-response","37","276198","0.0-2.0-2.11","","<div style=""font-size:60px;"">+</div>","null","","","","","","",""
"4157.115000009071","","instructions","38","280355","0.0-3.0","[{""page_index"":0,""viewing_time"":4156.9000000017695}]","","","","","","","","",""
"1149.5949999662116","","image-keyboard-response","39","281506","0.0-4.0-0.0","","img/red.png","32","trial","null","false","0.2,0.8","2:nogo_b","",""
"null","","html-keyboard-response","40","282511","0.0-4.0-1.0","","<img src=""img/red-n.png"" border=""10"">","null","trial","null","","0.2,0.8","2:nogo_b","0",""
"null","","html-keyboard-response","41","283512","0.0-4.0-2.0","","<div style=""font-size:60px;"">+</div>","null","","","","","","",""
"796.3100000051782","","image-keyboard-response","42","284310","0.0-4.0-0.1","","img/green.png","32","trial","32","true","0.8,0.2","1:go_a","",""
"null","","html-keyboard-response","43","285313","0.0-4.0-1.1","","<img src=""img/green-n.png"" border=""10"">","null","trial","32","","0.8,0.2","1:go_a","0",""
"null","","html-keyboard-response","44","286316","0.0-4.0-2.1","","<div style=""font-size:60px;"">+</div>","null","","","","","","",""
"null","","image-keyboard-response","45","287819","0.0-4.0-0.2","","img/green.png","null","trial","32","false","0.8,0.2","1:go_a","",""
"null","","html-keyboard-response","46","288822","0.0-4.0-1.2","","<img src=""img/green-r.png"">","null","trial","32","","0.8,0.2","1:go_a","1",""
"null","","html-keyboard-response","47","289823","0.0-4.0-2.2","","<div style=""font-size:60px;"">+</div>","null","","","","","","",""
"null","","image-keyboard-response","48","291325","0.0-4.0-0.3","","img/red.png","null","trial","null","true","0.2,0.8","2:nogo_b","",""
"null","","html-keyboard-response","49","292327","0.0-4.0-1.3","","<img src=""img/red-r.png"">","null","trial","null","","0.2,0.8","2:nogo_b","1",""
"null","","html-keyboard-response","50","293329","0.0-4.0-2.3","","<div style=""font-size:60px;"">+</div>","null","","","","","","",""
"1026.6500000143424","","image-keyboard-response","51","294357","0.0-4.0-0.4","","img/green.png","32","trial","32","true","0.8,0.2","1:go_a","",""
"null","","html-keyboard-response","52","295359","0.0-4.0-1.4","","<img src=""img/green-r.png"" border=""10"">","null","trial","32","","0.8,0.2","1:go_a","1",""
"null","","html-keyboard-response","53","296361","0.0-4.0-2.4","","<div style=""font-size:60px;"">+</div>","null","","","","","","",""
"null","","image-keyboard-response","54","297863","0.0-4.0-0.5","","img/red.png","null","trial","null","true","0.2,0.8","2:nogo_b","",""
"null","","html-keyboard-response","55","298866","0.0-4.0-1.5","","<img src=""img/red-r.png"">","null","trial","null","","0.2,0.8","2:nogo_b","1",""
"null","","html-keyboard-response","56","299868","0.0-4.0-2.5","","<div style=""font-size:60px;"">+</div>","null","","","","","","",""
"919.3599999998696","","image-keyboard-response","57","300789","0.0-4.0-0.6","","img/red.png","32","trial","null","false","0.2,0.8","2:nogo_b","",""
"null","","html-keyboard-response","58","301791","0.0-4.0-1.6","","<img src=""img/red-r.png"" border=""10"">","null","trial","null","","0.2,0.8","2:nogo_b","1",""
"null","","html-keyboard-response","59","302793","0.0-4.0-2.6","","<div style=""font-size:60px;"">+</div>","null","","","","","","",""
"849.9500000034459","","image-keyboard-response","60","303644","0.0-4.0-0.7","","img/green.png","32","trial","32","true","0.8,0.2","1:go_a","",""
"null","","html-keyboard-response","61","304659","0.0-4.0-1.7","","<img src=""img/green-r.png"" border=""10"">","null","trial","32","","0.8,0.2","1:go_a","1",""
"null","","html-keyboard-response","62","305659","0.0-4.0-2.7","","<div style=""font-size:60px;"">+</div>","null","","","","","","",""
"808.2549999817275","","image-keyboard-response","63","306469","0.0-4.0-0.8","","img/red.png","32","trial","null","false","0.2,0.8","2:nogo_b","",""
"null","","html-keyboard-response","64","307471","0.0-4.0-1.8","","<img src=""img/red-n.png"" border=""10"">","null","trial","null","","0.2,0.8","2:nogo_b","0",""
"null","","html-keyboard-response","65","308472","0.0-4.0-2.8","","<div style=""font-size:60px;"">+</div>","null","","","","","","",""
"563.1749999593012","","image-keyboard-response","66","309036","0.0-4.0-0.9","","img/green.png","32","trial","32","true","0.8,0.2","1:go_a","",""
"null","","html-keyboard-response","67","310038","0.0-4.0-1.9","","<img src=""img/green-r.png"" border=""10"">","null","trial","32","","0.8,0.2","1:go_a","1",""
"null","","html-keyboard-response","68","311038","0.0-4.0-2.9","","<div style=""font-size:60px;"">+</div>","null","","","","","","",""
"null","","image-keyboard-response","69","312541","0.0-4.0-0.10","","img/red.png","null","trial","null","true","0.2,0.8","2:nogo_b","",""
"null","","html-keyboard-response","70","313552","0.0-4.0-1.10","","<img src=""img/red-r.png"">","null","trial","null","","0.2,0.8","2:nogo_b","1",""
"null","","html-keyboard-response","71","314553","0.0-4.0-2.10","","<div style=""font-size:60px;"">+</div>","null","","","","","","",""
"482.81499999575317","","image-keyboard-response","72","315038","0.0-4.0-0.11","","img/green.png","32","trial","32","true","0.8,0.2","1:go_a","",""
"null","","html-keyboard-response","73","316041","0.0-4.0-1.11","","<img src=""img/green-r.png"" border=""10"">","null","trial","32","","0.8,0.2","1:go_a","1",""
"null","","html-keyboard-response","74","317043","0.0-4.0-2.11","","<div style=""font-size:60px;"">+</div>","null","","","","","","",""
"721.5500000165775","","image-keyboard-response","75","317766","0.0-4.0-0.12","","img/green.png","32","trial","32","true","0.8,0.2","1:go_a","",""
"null","","html-keyboard-response","76","318768","0.0-4.0-1.12","","<img src=""img/green-r.png"" border=""10"">","null","trial","32","","0.8,0.2","1:go_a","1",""
"null","","html-keyboard-response","77","319770","0.0-4.0-2.12","","<div style=""font-size:60px;"">+</div>","null","","","","","","",""
"null","","image-keyboard-response","78","321271","0.0-4.0-0.13","","img/red.png","null","trial","null","true","0.2,0.8","2:nogo_b","",""
"null","","html-keyboard-response","79","322274","0.0-4.0-1.13","","<img src=""img/red-r.png"">","null","trial","null","","0.2,0.8","2:nogo_b","1",""
"null","","html-keyboard-response","80","323276","0.0-4.0-2.13","","<div style=""font-size:60px;"">+</div>","null","","","","","","",""
"791.4050000254065","","image-keyboard-response","81","324069","0.0-4.0-0.14","","img/red.png","32","trial","null","false","0.2,0.8","2:nogo_b","",""
"null","","html-keyboard-response","82","325072","0.0-4.0-1.14","","<img src=""img/red-n.png"" border=""10"">","null","trial","null","","0.2,0.8","2:nogo_b","0",""
"null","","html-keyboard-response","83","326073","0.0-4.0-2.14","","<div style=""font-size:60px;"">+</div>","null","","","","","","",""
"434.354999975767","","image-keyboard-response","84","326508","0.0-4.0-0.15","","img/green.png","32","trial","32","true","0.8,0.2","1:go_a","",""
"null","","html-keyboard-response","85","327510","0.0-4.0-1.15","","<img src=""img/green-n.png"" border=""10"">","null","trial","32","","0.8,0.2","1:go_a","0",""
"null","","html-keyboard-response","86","328512","0.0-4.0-2.15","","<div style=""font-size:60px;"">+</div>","null","","","","","","",""
"485.9450000221841","","image-keyboard-response","87","328998","0.0-4.0-0.16","","img/green.png","32","trial","32","true","0.8,0.2","1:go_a","",""
"null","","html-keyboard-response","88","330001","0.0-4.0-1.16","","<img src=""img/green-r.png"" border=""10"">","null","trial","32","","0.8,0.2","1:go_a","1",""
"null","","html-keyboard-response","89","331004","0.0-4.0-2.16","","<div style=""font-size:60px;"">+</div>","null","","","","","","",""
"null","","image-keyboard-response","90","332510","0.0-4.0-0.17","","img/red.png","null","trial","null","true","0.2,0.8","2:nogo_b","",""
"null","","html-keyboard-response","91","333513","0.0-4.0-1.17","","<img src=""img/red-n.png"">","null","trial","null","","0.2,0.8","2:nogo_b","0",""
"null","","html-keyboard-response","92","334515","0.0-4.0-2.17","","<div style=""font-size:60px;"">+</div>","null","","","","","","",""
"505.8600000338629","","image-keyboard-response","93","335022","0.0-4.0-0.18","","img/green.png","32","trial","32","true","0.8,0.2","1:go_a","",""
"null","","html-keyboard-response","94","336024","0.0-4.0-1.18","","<img src=""img/green-r.png"" border=""10"">","null","trial","32","","0.8,0.2","1:go_a","1",""
"null","","html-keyboard-response","95","337026","0.0-4.0-2.18","","<div style=""font-size:60px;"">+</div>","null","","","","","","",""
"null","","image-keyboard-response","96","338527","0.0-4.0-0.19","","img/red.png","null","trial","null","true","0.2,0.8","2:nogo_b","",""
"null","","html-keyboard-response","97","339530","0.0-4.0-1.19","","<img src=""img/red-r.png"">","null","trial","null","","0.2,0.8","2:nogo_b","1",""
"null","","html-keyboard-response","98","340534","0.0-4.0-2.19","","<div style=""font-size:60px;"">+</div>","null","","","","","","",""
"524.0650000050664","","image-keyboard-response","99","341066","0.0-4.0-0.20","","img/green.png","32","trial","32","true","0.8,0.2","1:go_a","",""
"null","","html-keyboard-response","100","342069","0.0-4.0-1.20","","<img src=""img/green-r.png"" border=""10"">","null","trial","32","","0.8,0.2","1:go_a","1",""
"null","","html-keyboard-response","101","343071","0.0-4.0-2.20","","<div style=""font-size:60px;"">+</div>","null","","","","","","",""
"485.25000002700835","","image-keyboard-response","102","343558","0.0-4.0-0.21","","img/red.png","32","trial","null","false","0.2,0.8","2:nogo_b","",""
"null","","html-keyboard-response","103","344560","0.0-4.0-1.21","","<img src=""img/red-n.png"" border=""10"">","null","trial","null","","0.2,0.8","2:nogo_b","0",""
"null","","html-keyboard-response","104","345562","0.0-4.0-2.21","","<div style=""font-size:60px;"">+</div>","null","","","","","","",""
"530.2599999704398","","image-keyboard-response","105","346094","0.0-4.0-0.22","","img/green.png","32","trial","32","true","0.8,0.2","1:go_a","",""
"null","","html-keyboard-response","106","347100","0.0-4.0-1.22","","<img src=""img/green-r.png"" border=""10"">","null","trial","32","","0.8,0.2","1:go_a","1",""
"null","","html-keyboard-response","107","348101","0.0-4.0-2.22","","<div style=""font-size:60px;"">+</div>","null","","","","","","",""
"null","","image-keyboard-response","108","349604","0.0-4.0-0.23","","img/red.png","null","trial","null","true","0.2,0.8","2:nogo_b","",""
"null","","html-keyboard-response","109","350607","0.0-4.0-1.23","","<img src=""img/red-n.png"">","null","trial","null","","0.2,0.8","2:nogo_b","0",""
"null","","html-keyboard-response","110","351609","0.0-4.0-2.23","","<div style=""font-size:60px;"">+</div>","null","","","","","","",""
"null","","image-keyboard-response","111","353112","0.0-4.0-0.24","","img/red.png","null","trial","null","true","0.2,0.8","2:nogo_b","",""
"null","","html-keyboard-response","112","354114","0.0-4.0-1.24","","<img src=""img/red-n.png"">","null","trial","null","","0.2,0.8","2:nogo_b","0",""
"null","","html-keyboard-response","113","355115","0.0-4.0-2.24","","<div style=""font-size:60px;"">+</div>","null","","","","","","",""
"540.7100000302307","","image-keyboard-response","114","355658","0.0-4.0-0.25","","img/green.png","32","trial","32","true","0.8,0.2","1:go_a","",""
"null","","html-keyboard-response","115","356662","0.0-4.0-1.25","","<img src=""img/green-n.png"" border=""10"">","null","trial","32","","0.8,0.2","1:go_a","0",""
"null","","html-keyboard-response","116","357664","0.0-4.0-2.25","","<div style=""font-size:60px;"">+</div>","null","","","","","","",""
"null","","image-keyboard-response","117","359166","0.0-4.0-0.26","","img/red.png","null","trial","null","true","0.2,0.8","2:nogo_b","",""
"null","","html-keyboard-response","118","360171","0.0-4.0-1.26","","<img src=""img/red-r.png"">","null","trial","null","","0.2,0.8","2:nogo_b","1",""
"null","","html-keyboard-response","119","361173","0.0-4.0-2.26","","<div style=""font-size:60px;"">+</div>","null","","","","","","",""
"469.62500002700835","","image-keyboard-response","120","361646","0.0-4.0-0.27","","img/green.png","32","trial","32","true","0.8,0.2","1:go_a","",""
"null","","html-keyboard-response","121","362648","0.0-4.0-1.27","","<img src=""img/green-r.png"" border=""10"">","null","trial","32","","0.8,0.2","1:go_a","1",""
"null","","html-keyboard-response","122","363649","0.0-4.0-2.27","","<div style=""font-size:60px;"">+</div>","null","","","","","","",""
"null","","image-keyboard-response","123","365153","0.0-4.0-0.28","","img/red.png","null","trial","null","true","0.2,0.8","2:nogo_b","",""
"null","","html-keyboard-response","124","366155","0.0-4.0-1.28","","<img src=""img/red-r.png"">","null","trial","null","","0.2,0.8","2:nogo_b","1",""
"null","","html-keyboard-response","125","367157","0.0-4.0-2.28","","<div style=""font-size:60px;"">+</div>","null","","","","","","",""
"514.3899999675341","","image-keyboard-response","126","367674","0.0-4.0-0.29","","img/green.png","32","trial","32","true","0.8,0.2","1:go_a","",""
"null","","html-keyboard-response","127","368690","0.0-4.0-1.29","","<img src=""img/green-r.png"" border=""10"">","null","trial","32","","0.8,0.2","1:go_a","1",""
"null","","html-keyboard-response","128","369692","0.0-4.0-2.29","","<div style=""font-size:60px;"">+</div>","null","","","","","","",""
"494.62499999208376","","image-keyboard-response","129","370188","0.0-4.0-0.30","","img/red.png","32","trial","null","false","0.2,0.8","2:nogo_b","",""
"null","","html-keyboard-response","130","371191","0.0-4.0-1.30","","<img src=""img/red-n.png"" border=""10"">","null","trial","null","","0.2,0.8","2:nogo_b","0",""
"null","","html-keyboard-response","131","372193","0.0-4.0-2.30","","<div style=""font-size:60px;"">+</div>","null","","","","","","",""
"547.2100000479259","","image-keyboard-response","132","372742","0.0-4.0-0.31","","img/green.png","32","trial","32","true","0.8,0.2","1:go_a","",""
"null","","html-keyboard-response","133","373745","0.0-4.0-1.31","","<img src=""img/green-r.png"" border=""10"">","null","trial","32","","0.8,0.2","1:go_a","1",""
"null","","html-keyboard-response","134","374747","0.0-4.0-2.31","","<div style=""font-size:60px;"">+</div>","null","","","","","","",""
"593.8650000025518","","image-keyboard-response","135","375342","0.0-4.0-0.32","","img/green.png","32","trial","32","true","0.8,0.2","1:go_a","",""
"null","","html-keyboard-response","136","376345","0.0-4.0-1.32","","<img src=""img/green-r.png"" border=""10"">","null","trial","32","","0.8,0.2","1:go_a","1",""
"null","","html-keyboard-response","137","377348","0.0-4.0-2.32","","<div style=""font-size:60px;"">+</div>","null","","","","","","",""
"null","","image-keyboard-response","138","378851","0.0-4.0-0.33","","img/red.png","null","trial","null","true","0.2,0.8","2:nogo_b","",""
"null","","html-keyboard-response","139","379854","0.0-4.0-1.33","","<img src=""img/red-r.png"">","null","trial","null","","0.2,0.8","2:nogo_b","1",""
"null","","html-keyboard-response","140","380857","0.0-4.0-2.33","","<div style=""font-size:60px;"">+</div>","null","","","","","","",""
"599.2100000148639","","image-keyboard-response","141","381458","0.0-4.0-0.34","","img/green.png","32","trial","32","true","0.8,0.2","1:go_a","",""
"null","","html-keyboard-response","142","382462","0.0-4.0-1.34","","<img src=""img/green-r.png"" border=""10"">","null","trial","32","","0.8,0.2","1:go_a","1",""
"null","","html-keyboard-response","143","383464","0.0-4.0-2.34","","<div style=""font-size:60px;"">+</div>","null","","","","","","",""
"null","","image-keyboard-response","144","384966","0.0-4.0-0.35","","img/red.png","null","trial","null","true","0.2,0.8","2:nogo_b","",""
"null","","html-keyboard-response","145","385970","0.0-4.0-1.35","","<img src=""img/red-n.png"">","null","trial","null","","0.2,0.8","2:nogo_b","0",""
"null","","html-keyboard-response","146","386971","0.0-4.0-2.35","","<div style=""font-size:60px;"">+</div>","null","","","","","","",""
"null","","image-keyboard-response","147","388473","0.0-4.0-0.36","","img/red.png","null","trial","null","true","0.2,0.8","2:nogo_b","",""
"null","","html-keyboard-response","148","389479","0.0-4.0-1.36","","<img src=""img/red-r.png"">","null","trial","null","","0.2,0.8","2:nogo_b","1",""
"null","","html-keyboard-response","149","390482","0.0-4.0-2.36","","<div style=""font-size:60px;"">+</div>","null","","","","","","",""
"458.2450000452809","","image-keyboard-response","150","390942","0.0-4.0-0.37","","img/green.png","32","trial","32","true","0.8,0.2","1:go_a","",""
"null","","html-keyboard-response","151","391945","0.0-4.0-1.37","","<img src=""img/green-n.png"" border=""10"">","null","trial","32","","0.8,0.2","1:go_a","0",""
"null","","html-keyboard-response","152","392946","0.0-4.0-2.37","","<div style=""font-size:60px;"">+</div>","null","","","","","","",""
"650.7299999939278","","image-keyboard-response","153","393598","0.0-4.0-0.38","","img/red.png","32","trial","null","false","0.2,0.8","2:nogo_b","",""
"null","","html-keyboard-response","154","394600","0.0-4.0-1.38","","<img src=""img/red-n.png"" border=""10"">","null","trial","null","","0.2,0.8","2:nogo_b","0",""
"null","","html-keyboard-response","155","395604","0.0-4.0-2.38","","<div style=""font-size:60px;"">+</div>","null","","","","","","",""
"376.48999999510124","","image-keyboard-response","156","395982","0.0-4.0-0.39","","img/green.png","32","trial","32","true","0.8,0.2","1:go_a","",""
"null","","html-keyboard-response","157","396986","0.0-4.0-1.39","","<img src=""img/green-n.png"" border=""10"">","null","trial","32","","0.8,0.2","1:go_a","0",""
"null","","html-keyboard-response","158","397987","0.0-4.0-2.39","","<div style=""font-size:60px;"">+</div>","null","","","","","","",""
"null","","image-keyboard-response","159","399490","0.0-4.0-0.40","","img/red.png","null","trial","null","true","0.2,0.8","2:nogo_b","",""
"null","","html-keyboard-response","160","400503","0.0-4.0-1.40","","<img src=""img/red-r.png"">","null","trial","null","","0.2,0.8","2:nogo_b","1",""
"null","","html-keyboard-response","161","401507","0.0-4.0-2.40","","<div style=""font-size:60px;"">+</div>","null","","","","","","",""
"497.45000002440065","","image-keyboard-response","162","402005","0.0-4.0-0.41","","img/green.png","32","trial","32","true","0.8,0.2","1:go_a","",""
"null","","html-keyboard-response","163","403007","0.0-4.0-1.41","","<img src=""img/green-r.png"" border=""10"">","null","trial","32","","0.8,0.2","1:go_a","1",""
"null","","html-keyboard-response","164","404017","0.0-4.0-2.41","","<div style=""font-size:60px;"">+</div>","null","","","","","","",""
"1173.305000003893","","image-keyboard-response","165","405191","0.0-4.0-0.42","","img/red.png","32","trial","null","false","0.2,0.8","2:nogo_b","",""
"null","","html-keyboard-response","166","406193","0.0-4.0-1.42","","<img src=""img/red-n.png"" border=""10"">","null","trial","null","","0.2,0.8","2:nogo_b","0",""
"null","","html-keyboard-response","167","407195","0.0-4.0-2.42","","<div style=""font-size:60px;"">+</div>","null","","","","","","",""
"530.1800000015646","","image-keyboard-response","168","407726","0.0-4.0-0.43","","img/green.png","32","trial","32","true","0.8,0.2","1:go_a","",""
"null","","html-keyboard-response","169","408730","0.0-4.0-1.43","","<img src=""img/green-n.png"" border=""10"">","null","trial","32","","0.8,0.2","1:go_a","0",""
"null","","html-keyboard-response","170","409732","0.0-4.0-2.43","","<div style=""font-size:60px;"">+</div>","null","","","","","","",""
"393.03999999538064","","image-keyboard-response","171","410126","0.0-4.0-0.44","","img/red.png","32","trial","null","false","0.2,0.8","2:nogo_b","",""
"null","","html-keyboard-response","172","411128","0.0-4.0-1.44","","<img src=""img/red-n.png"" border=""10"">","null","trial","null","","0.2,0.8","2:nogo_b","0",""
"null","","html-keyboard-response","173","412130","0.0-4.0-2.44","","<div style=""font-size:60px;"">+</div>","null","","","","","","",""
"490.34999997820705","","image-keyboard-response","174","412622","0.0-4.0-0.45","","img/green.png","32","trial","32","true","0.8,0.2","1:go_a","",""
"null","","html-keyboard-response","175","413624","0.0-4.0-1.45","","<img src=""img/green-r.png"" border=""10"">","null","trial","32","","0.8,0.2","1:go_a","1",""
"null","","html-keyboard-response","176","414626","0.0-4.0-2.45","","<div style=""font-size:60px;"">+</div>","null","","","","","","",""
"545.4950000275858","","image-keyboard-response","177","415174","0.0-4.0-0.46","","img/green.png","32","trial","32","true","0.8,0.2","1:go_a","",""
"null","","html-keyboard-response","178","416177","0.0-4.0-1.46","","<img src=""img/green-r.png"" border=""10"">","null","trial","32","","0.8,0.2","1:go_a","1",""
"null","","html-keyboard-response","179","417180","0.0-4.0-2.46","","<div style=""font-size:60px;"">+</div>","null","","","","","","",""
"null","","image-keyboard-response","180","418682","0.0-4.0-0.47","","img/red.png","null","trial","null","true","0.2,0.8","2:nogo_b","",""
"null","","html-keyboard-response","181","419684","0.0-4.0-1.47","","<img src=""img/red-r.png"">","null","trial","null","","0.2,0.8","2:nogo_b","1",""
"null","","html-keyboard-response","182","420686","0.0-4.0-2.47","","<div style=""font-size:60px;"">+</div>","null","","","","","","",""
"689.5849999855272","","image-keyboard-response","183","421378","0.0-4.0-0.48","","img/green.png","32","trial","32","true","0.8,0.2","1:go_a","",""
"null","","html-keyboard-response","184","422381","0.0-4.0-1.48","","<img src=""img/green-r.png"" border=""10"">","null","trial","32","","0.8,0.2","1:go_a","1",""
"null","","html-keyboard-response","185","423382","0.0-4.0-2.48","","<div style=""font-size:60px;"">+</div>","null","","","","","","",""
"null","","image-keyboard-response","186","424885","0.0-4.0-0.49","","img/red.png","null","trial","null","true","0.2,0.8","2:nogo_b","",""
"null","","html-keyboard-response","187","425890","0.0-4.0-1.49","","<img src=""img/red-r.png"">","null","trial","null","","0.2,0.8","2:nogo_b","1",""
"null","","html-keyboard-response","188","426892","0.0-4.0-2.49","","<div style=""font-size:60px;"">+</div>","null","","","","","","",""
"null","","image-keyboard-response","189","428396","0.0-4.0-0.50","","img/red.png","null","trial","null","true","0.2,0.8","2:nogo_b","",""
"null","","html-keyboard-response","190","429399","0.0-4.0-1.50","","<img src=""img/red-n.png"">","null","trial","null","","0.2,0.8","2:nogo_b","0",""
"null","","html-keyboard-response","191","430401","0.0-4.0-2.50","","<div style=""font-size:60px;"">+</div>","null","","","","","","",""
"475.42000003159046","","image-keyboard-response","192","430878","0.0-4.0-0.51","","img/green.png","32","trial","32","true","0.8,0.2","1:go_a","",""
"null","","html-keyboard-response","193","431883","0.0-4.0-1.51","","<img src=""img/green-r.png"" border=""10"">","null","trial","32","","0.8,0.2","1:go_a","1",""
"null","","html-keyboard-response","194","432886","0.0-4.0-2.51","","<div style=""font-size:60px;"">+</div>","null","","","","","","",""
"null","","image-keyboard-response","195","434388","0.0-4.0-0.52","","img/red.png","null","trial","null","true","0.2,0.8","2:nogo_b","",""
"null","","html-keyboard-response","196","435391","0.0-4.0-1.52","","<img src=""img/red-r.png"">","null","trial","null","","0.2,0.8","2:nogo_b","1",""
"null","","html-keyboard-response","197","436394","0.0-4.0-2.52","","<div style=""font-size:60px;"">+</div>","null","","","","","","",""
"710.3150000330061","","image-keyboard-response","198","437106","0.0-4.0-0.53","","img/green.png","32","trial","32","true","0.8,0.2","1:go_a","",""
"null","","html-keyboard-response","199","438113","0.0-4.0-1.53","","<img src=""img/green-r.png"" border=""10"">","null","trial","32","","0.8,0.2","1:go_a","1",""
"null","","html-keyboard-response","200","439115","0.0-4.0-2.53","","<div style=""font-size:60px;"">+</div>","null","","","","","","",""
"null","","image-keyboard-response","201","440618","0.0-4.0-0.54","","img/red.png","null","trial","null","true","0.2,0.8","2:nogo_b","",""
"null","","html-keyboard-response","202","441620","0.0-4.0-1.54","","<img src=""img/red-r.png"">","null","trial","null","","0.2,0.8","2:nogo_b","1",""
"null","","html-keyboard-response","203","442622","0.0-4.0-2.54","","<div style=""font-size:60px;"">+</div>","null","","","","","","",""
"541.6699999477714","","image-keyboard-response","204","443166","0.0-4.0-0.55","","img/green.png","32","trial","32","true","0.8,0.2","1:go_a","",""
"null","","html-keyboard-response","205","444172","0.0-4.0-1.55","","<img src=""img/green-r.png"" border=""10"">","null","trial","32","","0.8,0.2","1:go_a","1",""
"null","","html-keyboard-response","206","445175","0.0-4.0-2.55","","<div style=""font-size:60px;"">+</div>","null","","","","","","",""
"821.7550000408664","","image-keyboard-response","207","445998","0.0-4.0-0.56","","img/green.png","32","trial","32","true","0.8,0.2","1:go_a","",""
"null","","html-keyboard-response","208","447002","0.0-4.0-1.56","","<img src=""img/green-r.png"" border=""10"">","null","trial","32","","0.8,0.2","1:go_a","1",""
"null","","html-keyboard-response","209","448005","0.0-4.0-2.56","","<div style=""font-size:60px;"">+</div>","null","","","","","","",""
"null","","image-keyboard-response","210","449551","0.0-4.0-0.57","","img/red.png","null","trial","null","true","0.2,0.8","2:nogo_b","",""
"null","","html-keyboard-response","211","450556","0.0-4.0-1.57","","<img src=""img/red-r.png"">","null","trial","null","","0.2,0.8","2:nogo_b","1",""
"null","","html-keyboard-response","212","451557","0.0-4.0-2.57","","<div style=""font-size:60px;"">+</div>","null","","","","","","",""
"886.9899999699555","","image-keyboard-response","213","452446","0.0-4.0-0.58","","img/red.png","32","trial","null","false","0.2,0.8","2:nogo_b","",""
"null","","html-keyboard-response","214","453448","0.0-4.0-1.58","","<img src=""img/red-n.png"" border=""10"">","null","trial","null","","0.2,0.8","2:nogo_b","0",""
"null","","html-keyboard-response","215","454450","0.0-4.0-2.58","","<div style=""font-size:60px;"">+</div>","null","","","","","","",""
"482.785000000149","","image-keyboard-response","216","454934","0.0-4.0-0.59","","img/green.png","32","trial","32","true","0.8,0.2","1:go_a","",""
"null","","html-keyboard-response","217","455936","0.0-4.0-1.59","","<img src=""img/green-n.png"" border=""10"">","null","trial","32","","0.8,0.2","1:go_a","0",""
"null","","html-keyboard-response","218","456937","0.0-4.0-2.59","","<div style=""font-size:60px;"">+</div>","null","","","","","","",""
"4162.149999989197","","instructions","219","461100","0.0-5.0","[{""page_index"":0,""viewing_time"":4161.819999979343}]","","","","","","","","",""
"928.3350000041537","","image-keyboard-response","220","462030","0.0-6.0-0.0","","img/red.png","32","trial","null","false","0.4,0.6","2:nogo_b","",""
"null","","html-keyboard-response","221","463033","0.0-6.0-1.0","","<img src=""img/red-r.png"" border=""10"">","null","trial","null","","0.4,0.6","2:nogo_b","1",""
"null","","html-keyboard-response","222","464034","0.0-6.0-2.0","","<div style=""font-size:60px;"">+</div>","null","","","","","","",""
"null","","image-keyboard-response","223","465535","0.0-6.0-0.1","","img/grey.png","null","trial","null","true","0.4,0.6","4:nogo_d","",""
"null","","html-keyboard-response","224","466536","0.0-6.0-1.1","","<img src=""img/grey-r.png"">","null","trial","null","","0.4,0.6","4:nogo_d","1",""
"null","","html-keyboard-response","225","467538","0.0-6.0-2.1","","<div style=""font-size:60px;"">+</div>","null","","","","","","",""
"1473.1449999962933","","image-keyboard-response","226","469013","0.0-6.0-0.2","","img/blue.png","32","trial","32","true","0.6,0.4","1:go_a","",""
"null","","html-keyboard-response","227","470016","0.0-6.0-1.2","","<img src=""img/blue-n.png"" border=""10"">","null","trial","32","","0.6,0.4","1:go_a","0",""
"null","","html-keyboard-response","228","471017","0.0-6.0-2.2","","<div style=""font-size:60px;"">+</div>","null","","","","","","",""
"null","","image-keyboard-response","229","472519","0.0-6.0-0.3","","img/purple.png","null","trial","32","false","0.6,0.4","3:go_c","",""
"null","","html-keyboard-response","230","473529","0.0-6.0-1.3","","<img src=""img/purple-r.png"">","null","trial","32","","0.6,0.4","3:go_c","1",""
"null","","html-keyboard-response","231","474530","0.0-6.0-2.3","","<div style=""font-size:60px;"">+</div>","null","","","","","","",""
"632.6949999784119","","image-keyboard-response","232","475165","0.0-6.0-0.4","","img/red.png","32","trial","null","false","0.4,0.6","2:nogo_b","",""
"null","","html-keyboard-response","233","476168","0.0-6.0-1.4","","<img src=""img/red-n.png"" border=""10"">","null","trial","null","","0.4,0.6","2:nogo_b","0",""
"null","","html-keyboard-response","234","477170","0.0-6.0-2.4","","<div style=""font-size:60px;"">+</div>","null","","","","","","",""
"781.9399999571033","","image-keyboard-response","235","477954","0.0-6.0-0.5","","img/purple.png","32","trial","32","true","0.6,0.4","3:go_c","",""
"null","","html-keyboard-response","236","478957","0.0-6.0-1.5","","<img src=""img/purple-r.png"" border=""10"">","null","trial","32","","0.6,0.4","3:go_c","1",""
"null","","html-keyboard-response","237","479959","0.0-6.0-2.5","","<div style=""font-size:60px;"">+</div>","null","","","","","","",""
"883.5549999494106","","image-keyboard-response","238","480844","0.0-6.0-0.6","","img/blue.png","32","trial","32","true","0.6,0.4","1:go_a","",""
"null","","html-keyboard-response","239","481863","0.0-6.0-1.6","","<img src=""img/blue-r.png"" border=""10"">","null","trial","32","","0.6,0.4","1:go_a","1",""
"null","","html-keyboard-response","240","482864","0.0-6.0-2.6","","<div style=""font-size:60px;"">+</div>","null","","","","","","",""
"null","","image-keyboard-response","241","484376","0.0-6.0-0.7","","img/grey.png","null","trial","null","true","0.4,0.6","4:nogo_d","",""
"null","","html-keyboard-response","242","485381","0.0-6.0-1.7","","<img src=""img/grey-r.png"">","null","trial","null","","0.4,0.6","4:nogo_d","1",""
"null","","html-keyboard-response","243","486383","0.0-6.0-2.7","","<div style=""font-size:60px;"">+</div>","null","","","","","","",""
"709.6000000019558","","image-keyboard-response","244","487093","0.0-6.0-0.8","","img/blue.png","32","trial","32","true","0.6,0.4","1:go_a","",""
"null","","html-keyboard-response","245","488097","0.0-6.0-1.8","","<img src=""img/blue-r.png"" border=""10"">","null","trial","32","","0.6,0.4","1:go_a","1",""
"null","","html-keyboard-response","246","489099","0.0-6.0-2.8","","<div style=""font-size:60px;"">+</div>","null","","","","","","",""
"null","","image-keyboard-response","247","490601","0.0-6.0-0.9","","img/red.png","null","trial","null","true","0.4,0.6","2:nogo_b","",""
"null","","html-keyboard-response","248","491603","0.0-6.0-1.9","","<img src=""img/red-r.png"">","null","trial","null","","0.4,0.6","2:nogo_b","1",""
"null","","html-keyboard-response","249","492605","0.0-6.0-2.9","","<div style=""font-size:60px;"">+</div>","null","","","","","","",""
"632.2950000176206","","image-keyboard-response","250","493238","0.0-6.0-0.10","","img/purple.png","32","trial","32","true","0.6,0.4","3:go_c","",""
"null","","html-keyboard-response","251","494240","0.0-6.0-1.10","","<img src=""img/purple-r.png"" border=""10"">","null","trial","32","","0.6,0.4","3:go_c","1",""
"null","","html-keyboard-response","252","495242","0.0-6.0-2.10","","<div style=""font-size:60px;"">+</div>","null","","","","","","",""
"null","","image-keyboard-response","253","496743","0.0-6.0-0.11","","img/grey.png","null","trial","null","true","0.4,0.6","4:nogo_d","",""
"null","","html-keyboard-response","254","497746","0.0-6.0-1.11","","<img src=""img/grey-n.png"">","null","trial","null","","0.4,0.6","4:nogo_d","0",""
"null","","html-keyboard-response","255","498749","0.0-6.0-2.11","","<div style=""font-size:60px;"">+</div>","null","","","","","","",""
"null","","image-keyboard-response","256","500251","0.0-6.0-0.12","","img/grey.png","null","trial","null","true","0.4,0.6","4:nogo_d","",""
"null","","html-keyboard-response","257","501253","0.0-6.0-1.12","","<img src=""img/grey-n.png"">","null","trial","null","","0.4,0.6","4:nogo_d","0",""
"null","","html-keyboard-response","258","502255","0.0-6.0-2.12","","<div style=""font-size:60px;"">+</div>","null","","","","","","",""
"null","","image-keyboard-response","259","503756","0.0-6.0-0.13","","img/red.png","null","trial","null","true","0.4,0.6","2:nogo_b","",""
"null","","html-keyboard-response","260","504758","0.0-6.0-1.13","","<img src=""img/red-r.png"">","null","trial","null","","0.4,0.6","2:nogo_b","1",""
"null","","html-keyboard-response","261","505760","0.0-6.0-2.13","","<div style=""font-size:60px;"">+</div>","null","","","","","","",""
"623.9499999792315","","image-keyboard-response","262","506385","0.0-6.0-0.14","","img/purple.png","32","trial","32","true","0.6,0.4","3:go_c","",""
"null","","html-keyboard-response","263","507389","0.0-6.0-1.14","","<img src=""img/purple-r.png"" border=""10"">","null","trial","32","","0.6,0.4","3:go_c","1",""
"null","","html-keyboard-response","264","508391","0.0-6.0-2.14","","<div style=""font-size:60px;"">+</div>","null","","","","","","",""
"756.0699999448843","","image-keyboard-response","265","509148","0.0-6.0-0.15","","img/blue.png","32","trial","32","true","0.6,0.4","1:go_a","",""
"null","","html-keyboard-response","266","510150","0.0-6.0-1.15","","<img src=""img/blue-n.png"" border=""10"">","null","trial","32","","0.6,0.4","1:go_a","0",""
"null","","html-keyboard-response","267","511152","0.0-6.0-2.15","","<div style=""font-size:60px;"">+</div>","null","","","","","","",""
"1011.2300000037067","","image-keyboard-response","268","512165","0.0-6.0-0.16","","img/blue.png","32","trial","32","true","0.6,0.4","1:go_a","",""
"null","","html-keyboard-response","269","513169","0.0-6.0-1.16","","<img src=""img/blue-r.png"" border=""10"">","null","trial","32","","0.6,0.4","1:go_a","1",""
"null","","html-keyboard-response","270","514172","0.0-6.0-2.16","","<div style=""font-size:60px;"">+</div>","null","","","","","","",""
"799.1599999950267","","image-keyboard-response","271","514973","0.0-6.0-0.17","","img/grey.png","32","trial","null","false","0.4,0.6","4:nogo_d","",""
"null","","html-keyboard-response","272","515976","0.0-6.0-1.17","","<img src=""img/grey-n.png"" border=""10"">","null","trial","null","","0.4,0.6","4:nogo_d","0",""
"null","","html-keyboard-response","273","516977","0.0-6.0-2.17","","<div style=""font-size:60px;"">+</div>","null","","","","","","",""
"675.3799999714829","","image-keyboard-response","274","517653","0.0-6.0-0.18","","img/purple.png","32","trial","32","true","0.6,0.4","3:go_c","",""
"null","","html-keyboard-response","275","518656","0.0-6.0-1.18","","<img src=""img/purple-r.png"" border=""10"">","null","trial","32","","0.6,0.4","3:go_c","1",""
"null","","html-keyboard-response","276","519658","0.0-6.0-2.18","","<div style=""font-size:60px;"">+</div>","null","","","","","","",""
"517.3700000159442","","image-keyboard-response","277","520180","0.0-6.0-0.19","","img/red.png","32","trial","null","false","0.4,0.6","2:nogo_b","",""
"null","","html-keyboard-response","278","521185","0.0-6.0-1.19","","<img src=""img/red-r.png"" border=""10"">","null","trial","null","","0.4,0.6","2:nogo_b","1",""
"null","","html-keyboard-response","279","522188","0.0-6.0-2.19","","<div style=""font-size:60px;"">+</div>","null","","","","","","",""
"648.0150000425056","","image-keyboard-response","280","522837","0.0-6.0-0.20","","img/blue.png","32","trial","32","true","0.6,0.4","1:go_a","",""
"null","","html-keyboard-response","281","523839","0.0-6.0-1.20","","<img src=""img/blue-r.png"" border=""10"">","null","trial","32","","0.6,0.4","1:go_a","1",""
"null","","html-keyboard-response","282","524841","0.0-6.0-2.20","","<div style=""font-size:60px;"">+</div>","null","","","","","","",""
"null","","image-keyboard-response","283","526344","0.0-6.0-0.21","","img/grey.png","null","trial","null","true","0.4,0.6","4:nogo_d","",""
"null","","html-keyboard-response","284","527348","0.0-6.0-1.21","","<img src=""img/grey-n.png"">","null","trial","null","","0.4,0.6","4:nogo_d","0",""
"null","","html-keyboard-response","285","528350","0.0-6.0-2.21","","<div style=""font-size:60px;"">+</div>","null","","","","","","",""
"657.8599999775179","","image-keyboard-response","286","529010","0.0-6.0-0.22","","img/purple.png","32","trial","32","true","0.6,0.4","3:go_c","",""
"null","","html-keyboard-response","287","530014","0.0-6.0-1.22","","<img src=""img/purple-r.png"" border=""10"">","null","trial","32","","0.6,0.4","3:go_c","1",""
"null","","html-keyboard-response","288","531027","0.0-6.0-2.22","","<div style=""font-size:60px;"">+</div>","null","","","","","","",""
"816.0449999850243","","image-keyboard-response","289","531843","0.0-6.0-0.23","","img/red.png","32","trial","null","false","0.4,0.6","2:nogo_b","",""
"null","","html-keyboard-response","290","532845","0.0-6.0-1.23","","<img src=""img/red-n.png"" border=""10"">","null","trial","null","","0.4,0.6","2:nogo_b","0",""
"null","","html-keyboard-response","291","533846","0.0-6.0-2.23","","<div style=""font-size:60px;"">+</div>","null","","","","","","",""
"502.14499997673556","","image-keyboard-response","292","534349","0.0-6.0-0.24","","img/purple.png","32","trial","32","true","0.6,0.4","3:go_c","",""
"null","","html-keyboard-response","293","535352","0.0-6.0-1.24","","<img src=""img/purple-r.png"" border=""10"">","null","trial","32","","0.6,0.4","3:go_c","1",""
"null","","html-keyboard-response","294","536353","0.0-6.0-2.24","","<div style=""font-size:60px;"">+</div>","null","","","","","","",""
"null","","image-keyboard-response","295","537855","0.0-6.0-0.25","","img/grey.png","null","trial","null","true","0.4,0.6","4:nogo_d","",""
"null","","html-keyboard-response","296","538860","0.0-6.0-1.25","","<img src=""img/grey-n.png"">","null","trial","null","","0.4,0.6","4:nogo_d","0",""
"null","","html-keyboard-response","297","539862","0.0-6.0-2.25","","<div style=""font-size:60px;"">+</div>","null","","","","","","",""
"897.594999987632","","image-keyboard-response","298","540761","0.0-6.0-0.26","","img/red.png","32","trial","null","false","0.4,0.6","2:nogo_b","",""
"null","","html-keyboard-response","299","541764","0.0-6.0-1.26","","<img src=""img/red-r.png"" border=""10"">","null","trial","null","","0.4,0.6","2:nogo_b","1",""
"null","","html-keyboard-response","300","542766","0.0-6.0-2.26","","<div style=""font-size:60px;"">+</div>","null","","","","","","",""
"565.9450000384822","","image-keyboard-response","301","543333","0.0-6.0-0.27","","img/blue.png","32","trial","32","true","0.6,0.4","1:go_a","",""
"null","","html-keyboard-response","302","544337","0.0-6.0-1.27","","<img src=""img/blue-r.png"" border=""10"">","null","trial","32","","0.6,0.4","1:go_a","1",""
"null","","html-keyboard-response","303","545339","0.0-6.0-2.27","","<div style=""font-size:60px;"">+</div>","null","","","","","","",""
"632.4499999755062","","image-keyboard-response","304","545973","0.0-6.0-0.28","","img/purple.png","32","trial","32","true","0.6,0.4","3:go_c","",""
"null","","html-keyboard-response","305","546976","0.0-6.0-1.28","","<img src=""img/purple-r.png"" border=""10"">","null","trial","32","","0.6,0.4","3:go_c","1",""
"null","","html-keyboard-response","306","547979","0.0-6.0-2.28","","<div style=""font-size:60px;"">+</div>","null","","","","","","",""
"600.8100000326522","","image-keyboard-response","307","548582","0.0-6.0-0.29","","img/blue.png","32","trial","32","true","0.6,0.4","1:go_a","",""
"null","","html-keyboard-response","308","549586","0.0-6.0-1.29","","<img src=""img/blue-r.png"" border=""10"">","null","trial","32","","0.6,0.4","1:go_a","1",""
"null","","html-keyboard-response","309","550589","0.0-6.0-2.29","","<div style=""font-size:60px;"">+</div>","null","","","","","","",""
"null","","image-keyboard-response","310","552091","0.0-6.0-0.30","","img/grey.png","null","trial","null","true","0.4,0.6","4:nogo_d","",""
"null","","html-keyboard-response","311","553093","0.0-6.0-1.30","","<img src=""img/grey-n.png"">","null","trial","null","","0.4,0.6","4:nogo_d","0",""
"null","","html-keyboard-response","312","554096","0.0-6.0-2.30","","<div style=""font-size:60px;"">+</div>","null","","","","","","",""
"503.885000012815","","image-keyboard-response","313","554602","0.0-6.0-0.31","","img/red.png","32","trial","null","false","0.4,0.6","2:nogo_b","",""
"null","","html-keyboard-response","314","555606","0.0-6.0-1.31","","<img src=""img/red-r.png"" border=""10"">","null","trial","null","","0.4,0.6","2:nogo_b","1",""
"null","","html-keyboard-response","315","556608","0.0-6.0-2.31","","<div style=""font-size:60px;"">+</div>","null","","","","","","",""
"612.1649999986403","","image-keyboard-response","316","557221","0.0-6.0-0.32","","img/purple.png","32","trial","32","true","0.6,0.4","3:go_c","",""
"null","","html-keyboard-response","317","558224","0.0-6.0-1.32","","<img src=""img/purple-n.png"" border=""10"">","null","trial","32","","0.6,0.4","3:go_c","0",""
"null","","html-keyboard-response","318","559226","0.0-6.0-2.32","","<div style=""font-size:60px;"">+</div>","null","","","","","","",""
"null","","image-keyboard-response","319","560726","0.0-6.0-0.33","","img/grey.png","null","trial","null","true","0.4,0.6","4:nogo_d","",""
"null","","html-keyboard-response","320","561728","0.0-6.0-1.33","","<img src=""img/grey-r.png"">","null","trial","null","","0.4,0.6","4:nogo_d","1",""
"null","","html-keyboard-response","321","562730","0.0-6.0-2.33","","<div style=""font-size:60px;"">+</div>","null","","","","","","",""
"488.10499999672174","","image-keyboard-response","322","563220","0.0-6.0-0.34","","img/red.png","32","trial","null","false","0.4,0.6","2:nogo_b","",""
"null","","html-keyboard-response","323","564222","0.0-6.0-1.34","","<img src=""img/red-n.png"" border=""10"">","null","trial","null","","0.4,0.6","2:nogo_b","0",""
"null","","html-keyboard-response","324","565223","0.0-6.0-2.34","","<div style=""font-size:60px;"">+</div>","null","","","","","","",""
"537.1450000093319","","image-keyboard-response","325","565761","0.0-6.0-0.35","","img/blue.png","32","trial","32","true","0.6,0.4","1:go_a","",""
"null","","html-keyboard-response","326","566764","0.0-6.0-1.35","","<img src=""img/blue-r.png"" border=""10"">","null","trial","32","","0.6,0.4","1:go_a","1",""
"null","","html-keyboard-response","327","567766","0.0-6.0-2.35","","<div style=""font-size:60px;"">+</div>","null","","","","","","",""
"700.7699999958277","","image-keyboard-response","328","568468","0.0-6.0-0.36","","img/purple.png","32","trial","32","true","0.6,0.4","3:go_c","",""
"null","","html-keyboard-response","329","569469","0.0-6.0-1.36","","<img src=""img/purple-r.png"" border=""10"">","null","trial","32","","0.6,0.4","3:go_c","1",""
"null","","html-keyboard-response","330","570473","0.0-6.0-2.36","","<div style=""font-size:60px;"">+</div>","null","","","","","","",""
"1001.7099999822676","","image-keyboard-response","331","571476","0.0-6.0-0.37","","img/red.png","32","trial","null","false","0.4,0.6","2:nogo_b","",""
"null","","html-keyboard-response","332","572477","0.0-6.0-1.37","","<img src=""img/red-r.png"" border=""10"">","null","trial","null","","0.4,0.6","2:nogo_b","1",""
"null","","html-keyboard-response","333","573479","0.0-6.0-2.37","","<div style=""font-size:60px;"">+</div>","null","","","","","","",""
"null","","image-keyboard-response","334","574981","0.0-6.0-0.38","","img/grey.png","null","trial","null","true","0.4,0.6","4:nogo_d","",""
"null","","html-keyboard-response","335","575983","0.0-6.0-1.38","","<img src=""img/grey-n.png"">","null","trial","null","","0.4,0.6","4:nogo_d","0",""
"null","","html-keyboard-response","336","576985","0.0-6.0-2.38","","<div style=""font-size:60px;"">+</div>","null","","","","","","",""
"651.6749999718741","","image-keyboard-response","337","577638","0.0-6.0-0.39","","img/blue.png","32","trial","32","true","0.6,0.4","1:go_a","",""
"null","","html-keyboard-response","338","578641","0.0-6.0-1.39","","<img src=""img/blue-n.png"" border=""10"">","null","trial","32","","0.6,0.4","1:go_a","0",""
"null","","html-keyboard-response","339","579643","0.0-6.0-2.39","","<div style=""font-size:60px;"">+</div>","null","","","","","","",""
"654.9849999719299","","image-keyboard-response","340","580299","0.0-6.0-0.40","","img/blue.png","32","trial","32","true","0.6,0.4","1:go_a","",""
"null","","html-keyboard-response","341","581302","0.0-6.0-1.40","","<img src=""img/blue-r.png"" border=""10"">","null","trial","32","","0.6,0.4","1:go_a","1",""
"null","","html-keyboard-response","342","582304","0.0-6.0-2.40","","<div style=""font-size:60px;"">+</div>","null","","","","","","",""
"619.4799999939278","","image-keyboard-response","343","582925","0.0-6.0-0.41","","img/purple.png","32","trial","32","true","0.6,0.4","3:go_c","",""
"null","","html-keyboard-response","344","583928","0.0-6.0-1.41","","<img src=""img/purple-r.png"" border=""10"">","null","trial","32","","0.6,0.4","3:go_c","1",""
"null","","html-keyboard-response","345","584931","0.0-6.0-2.41","","<div style=""font-size:60px;"">+</div>","null","","","","","","",""
"663.875000027474","","image-keyboard-response","346","585597","0.0-6.0-0.42","","img/red.png","32","trial","null","false","0.4,0.6","2:nogo_b","",""
"null","","html-keyboard-response","347","586600","0.0-6.0-1.42","","<img src=""img/red-n.png"" border=""10"">","null","trial","null","","0.4,0.6","2:nogo_b","0",""
"null","","html-keyboard-response","348","587603","0.0-6.0-2.42","","<div style=""font-size:60px;"">+</div>","null","","","","","","",""
"null","","image-keyboard-response","349","589105","0.0-6.0-0.43","","img/grey.png","null","trial","null","true","0.4,0.6","4:nogo_d","",""
"null","","html-keyboard-response","350","590108","0.0-6.0-1.43","","<img src=""img/grey-r.png"">","null","trial","null","","0.4,0.6","4:nogo_d","1",""
"null","","html-keyboard-response","351","591110","0.0-6.0-2.43","","<div style=""font-size:60px;"">+</div>","null","","","","","","",""
"558.1799999927171","","image-keyboard-response","352","591668","0.0-6.0-0.44","","img/purple.png","32","trial","32","true","0.6,0.4","3:go_c","",""
"null","","html-keyboard-response","353","592670","0.0-6.0-1.44","","<img src=""img/purple-r.png"" border=""10"">","null","trial","32","","0.6,0.4","3:go_c","1",""
"null","","html-keyboard-response","354","593681","0.0-6.0-2.44","","<div style=""font-size:60px;"">+</div>","null","","","","","","",""
"562.1300000348128","","image-keyboard-response","355","594244","0.0-6.0-0.45","","img/blue.png","32","trial","32","true","0.6,0.4","1:go_a","",""
"null","","html-keyboard-response","356","595245","0.0-6.0-1.45","","<img src=""img/blue-r.png"" border=""10"">","null","trial","32","","0.6,0.4","1:go_a","1",""
"null","","html-keyboard-response","357","596247","0.0-6.0-2.45","","<div style=""font-size:60px;"">+</div>","null","","","","","","",""
"661.2949999980628","","image-keyboard-response","358","596909","0.0-6.0-0.46","","img/red.png","32","trial","null","false","0.4,0.6","2:nogo_b","",""
"null","","html-keyboard-response","359","597912","0.0-6.0-1.46","","<img src=""img/red-r.png"" border=""10"">","null","trial","null","","0.4,0.6","2:nogo_b","1",""
"null","","html-keyboard-response","360","598913","0.0-6.0-2.46","","<div style=""font-size:60px;"">+</div>","null","","","","","","",""
"null","","image-keyboard-response","361","600415","0.0-6.0-0.47","","img/grey.png","null","trial","null","true","0.4,0.6","4:nogo_d","",""
"null","","html-keyboard-response","362","601418","0.0-6.0-1.47","","<img src=""img/grey-r.png"">","null","trial","null","","0.4,0.6","4:nogo_d","1",""
"null","","html-keyboard-response","363","602420","0.0-6.0-2.47","","<div style=""font-size:60px;"">+</div>","null","","","","","","",""
"459.11499997600913","","image-keyboard-response","364","602881","0.0-6.0-0.48","","img/red.png","32","trial","null","false","0.4,0.6","2:nogo_b","",""
"null","","html-keyboard-response","365","603885","0.0-6.0-1.48","","<img src=""img/red-r.png"" border=""10"">","null","trial","null","","0.4,0.6","2:nogo_b","1",""
"null","","html-keyboard-response","366","604887","0.0-6.0-2.48","","<div style=""font-size:60px;"">+</div>","null","","","","","","",""
"652.0550000132062","","image-keyboard-response","367","605541","0.0-6.0-0.49","","img/blue.png","32","trial","32","true","0.6,0.4","1:go_a","",""
"null","","html-keyboard-response","368","606546","0.0-6.0-1.49","","<img src=""img/blue-n.png"" border=""10"">","null","trial","32","","0.6,0.4","1:go_a","0",""
"null","","html-keyboard-response","369","607548","0.0-6.0-2.49","","<div style=""font-size:60px;"">+</div>","null","","","","","","",""
"null","","image-keyboard-response","370","609051","0.0-6.0-0.50","","img/grey.png","null","trial","null","true","0.4,0.6","4:nogo_d","",""
"null","","html-keyboard-response","371","610055","0.0-6.0-1.50","","<img src=""img/grey-n.png"">","null","trial","null","","0.4,0.6","4:nogo_d","0",""
"null","","html-keyboard-response","372","611057","0.0-6.0-2.50","","<div style=""font-size:60px;"">+</div>","null","","","","","","",""
"650.4800000111572","","image-keyboard-response","373","611709","0.0-6.0-0.51","","img/purple.png","32","trial","32","true","0.6,0.4","3:go_c","",""
"null","","html-keyboard-response","374","612712","0.0-6.0-1.51","","<img src=""img/purple-r.png"" border=""10"">","null","trial","32","","0.6,0.4","3:go_c","1",""
"null","","html-keyboard-response","375","613714","0.0-6.0-2.51","","<div style=""font-size:60px;"">+</div>","null","","","","","","",""
"692.7349999896251","","image-keyboard-response","376","614409","0.0-6.0-0.52","","img/blue.png","32","trial","32","true","0.6,0.4","1:go_a","",""
"null","","html-keyboard-response","377","615412","0.0-6.0-1.52","","<img src=""img/blue-n.png"" border=""10"">","null","trial","32","","0.6,0.4","1:go_a","0",""
"null","","html-keyboard-response","378","616414","0.0-6.0-2.52","","<div style=""font-size:60px;"">+</div>","null","","","","","","",""
"588.5600000037812","","image-keyboard-response","379","617004","0.0-6.0-0.53","","img/purple.png","32","trial","32","true","0.6,0.4","3:go_c","",""
"null","","html-keyboard-response","380","618006","0.0-6.0-1.53","","<img src=""img/purple-r.png"" border=""10"">","null","trial","32","","0.6,0.4","3:go_c","1",""
"null","","html-keyboard-response","381","619008","0.0-6.0-2.53","","<div style=""font-size:60px;"">+</div>","null","","","","","","",""
"null","","image-keyboard-response","382","620512","0.0-6.0-0.54","","img/grey.png","null","trial","null","true","0.4,0.6","4:nogo_d","",""
"null","","html-keyboard-response","383","621515","0.0-6.0-1.54","","<img src=""img/grey-n.png"">","null","trial","null","","0.4,0.6","4:nogo_d","0",""
"null","","html-keyboard-response","384","622516","0.0-6.0-2.54","","<div style=""font-size:60px;"">+</div>","null","","","","","","",""
"727.0150000113063","","image-keyboard-response","385","623245","0.0-6.0-0.55","","img/red.png","32","trial","null","false","0.4,0.6","2:nogo_b","",""
"null","","html-keyboard-response","386","624248","0.0-6.0-1.55","","<img src=""img/red-n.png"" border=""10"">","null","trial","null","","0.4,0.6","2:nogo_b","0",""
"null","","html-keyboard-response","387","625251","0.0-6.0-2.55","","<div style=""font-size:60px;"">+</div>","null","","","","","","",""
"836.284999968484","","image-keyboard-response","388","626089","0.0-6.0-0.56","","img/red.png","32","trial","null","false","0.4,0.6","2:nogo_b","",""
"null","","html-keyboard-response","389","627092","0.0-6.0-1.56","","<img src=""img/red-r.png"" border=""10"">","null","trial","null","","0.4,0.6","2:nogo_b","1",""
"null","","html-keyboard-response","390","628095","0.0-6.0-2.56","","<div style=""font-size:60px;"">+</div>","null","","","","","","",""
"513.8349999906495","","image-keyboard-response","391","628612","0.0-6.0-0.57","","img/blue.png","32","trial","32","true","0.6,0.4","1:go_a","",""
"null","","html-keyboard-response","392","629614","0.0-6.0-1.57","","<img src=""img/blue-r.png"" border=""10"">","null","trial","32","","0.6,0.4","1:go_a","1",""
"null","","html-keyboard-response","393","630616","0.0-6.0-2.57","","<div style=""font-size:60px;"">+</div>","null","","","","","","",""
"null","","image-keyboard-response","394","632119","0.0-6.0-0.58","","img/grey.png","null","trial","null","true","0.4,0.6","4:nogo_d","",""
"null","","html-keyboard-response","395","633122","0.0-6.0-1.58","","<img src=""img/grey-n.png"">","null","trial","null","","0.4,0.6","4:nogo_d","0",""
"null","","html-keyboard-response","396","634124","0.0-6.0-2.58","","<div style=""font-size:60px;"">+</div>","null","","","","","","",""
"678.879999963101","","image-keyboard-response","397","634805","0.0-6.0-0.59","","img/purple.png","32","trial","32","true","0.6,0.4","3:go_c","",""
"null","","html-keyboard-response","398","635809","0.0-6.0-1.59","","<img src=""img/purple-n.png"" border=""10"">","null","trial","32","","0.6,0.4","3:go_c","0",""
"null","","html-keyboard-response","399","636810","0.0-6.0-2.59","","<div style=""font-size:60px;"">+</div>","null","","","","","","",""
"null","","image-keyboard-response","400","638311","0.0-6.0-0.60","","img/grey.png","null","trial","null","true","0.4,0.6","4:nogo_d","",""
"null","","html-keyboard-response","401","639313","0.0-6.0-1.60","","<img src=""img/grey-n.png"">","null","trial","null","","0.4,0.6","4:nogo_d","0",""
"null","","html-keyboard-response","402","640314","0.0-6.0-2.60","","<div style=""font-size:60px;"">+</div>","null","","","","","","",""
"544.5949999848381","","image-keyboard-response","403","640860","0.0-6.0-0.61","","img/red.png","32","trial","null","false","0.4,0.6","2:nogo_b","",""
"null","","html-keyboard-response","404","641863","0.0-6.0-1.61","","<img src=""img/red-r.png"" border=""10"">","null","trial","null","","0.4,0.6","2:nogo_b","1",""
"null","","html-keyboard-response","405","642865","0.0-6.0-2.61","","<div style=""font-size:60px;"">+</div>","null","","","","","","",""
"578.0150000355206","","image-keyboard-response","406","643444","0.0-6.0-0.62","","img/purple.png","32","trial","32","true","0.6,0.4","3:go_c","",""
"null","","html-keyboard-response","407","644446","0.0-6.0-1.62","","<img src=""img/purple-n.png"" border=""10"">","null","trial","32","","0.6,0.4","3:go_c","0",""
"null","","html-keyboard-response","408","645449","0.0-6.0-2.62","","<div style=""font-size:60px;"">+</div>","null","","","","","","",""
"634.7199999727309","","image-keyboard-response","409","646085","0.0-6.0-0.63","","img/blue.png","32","trial","32","true","0.6,0.4","1:go_a","",""
"null","","html-keyboard-response","410","647089","0.0-6.0-1.63","","<img src=""img/blue-n.png"" border=""10"">","null","trial","32","","0.6,0.4","1:go_a","0",""
"null","","html-keyboard-response","411","648090","0.0-6.0-2.63","","<div style=""font-size:60px;"">+</div>","null","","","","","","",""
"null","","image-keyboard-response","412","649592","0.0-6.0-0.64","","img/grey.png","null","trial","null","true","0.4,0.6","4:nogo_d","",""
"null","","html-keyboard-response","413","650595","0.0-6.0-1.64","","<img src=""img/grey-r.png"">","null","trial","null","","0.4,0.6","4:nogo_d","1",""
"null","","html-keyboard-response","414","651597","0.0-6.0-2.64","","<div style=""font-size:60px;"">+</div>","null","","","","","","",""
"439.3350000027567","","image-keyboard-response","415","652037","0.0-6.0-0.65","","img/red.png","32","trial","null","false","0.4,0.6","2:nogo_b","",""
"null","","html-keyboard-response","416","653040","0.0-6.0-1.65","","<img src=""img/red-n.png"" border=""10"">","null","trial","null","","0.4,0.6","2:nogo_b","0",""
"null","","html-keyboard-response","417","654043","0.0-6.0-2.65","","<div style=""font-size:60px;"">+</div>","null","","","","","","",""
"497.0449999673292","","image-keyboard-response","418","654541","0.0-6.0-0.66","","img/blue.png","32","trial","32","true","0.6,0.4","1:go_a","",""
"null","","html-keyboard-response","419","655545","0.0-6.0-1.66","","<img src=""img/blue-r.png"" border=""10"">","null","trial","32","","0.6,0.4","1:go_a","1",""
"null","","html-keyboard-response","420","656547","0.0-6.0-2.66","","<div style=""font-size:60px;"">+</div>","null","","","","","","",""
"623.8450000528246","","image-keyboard-response","421","657173","0.0-6.0-0.67","","img/purple.png","32","trial","32","true","0.6,0.4","3:go_c","",""
"null","","html-keyboard-response","422","658177","0.0-6.0-1.67","","<img src=""img/purple-n.png"" border=""10"">","null","trial","32","","0.6,0.4","3:go_c","0",""
"null","","html-keyboard-response","423","659179","0.0-6.0-2.67","","<div style=""font-size:60px;"">+</div>","null","","","","","","",""
"527.1549999597482","","image-keyboard-response","424","659708","0.0-6.0-0.68","","img/red.png","32","trial","null","false","0.4,0.6","2:nogo_b","",""
"null","","html-keyboard-response","425","660710","0.0-6.0-1.68","","<img src=""img/red-r.png"" border=""10"">","null","trial","null","","0.4,0.6","2:nogo_b","1",""
"null","","html-keyboard-response","426","661713","0.0-6.0-2.68","","<div style=""font-size:60px;"">+</div>","null","","","","","","",""
"682.7000000048429","","image-keyboard-response","427","662397","0.0-6.0-0.69","","img/purple.png","32","trial","32","true","0.6,0.4","3:go_c","",""
"null","","html-keyboard-response","428","663398","0.0-6.0-1.69","","<img src=""img/purple-n.png"" border=""10"">","null","trial","32","","0.6,0.4","3:go_c","0",""
"null","","html-keyboard-response","429","664401","0.0-6.0-2.69","","<div style=""font-size:60px;"">+</div>","null","","","","","","",""
"null","","image-keyboard-response","430","665925","0.0-6.0-0.70","","img/grey.png","null","trial","null","true","0.4,0.6","4:nogo_d","",""
"null","","html-keyboard-response","431","666937","0.0-6.0-1.70","","<img src=""img/grey-n.png"">","null","trial","null","","0.4,0.6","4:nogo_d","0",""
"null","","html-keyboard-response","432","667939","0.0-6.0-2.70","","<div style=""font-size:60px;"">+</div>","null","","","","","","",""
"568.0300000240095","","image-keyboard-response","433","668508","0.0-6.0-0.71","","img/blue.png","32","trial","32","true","0.6,0.4","1:go_a","",""
"null","","html-keyboard-response","434","669511","0.0-6.0-1.71","","<img src=""img/blue-n.png"" border=""10"">","null","trial","32","","0.6,0.4","1:go_a","0",""
"null","","html-keyboard-response","435","670513","0.0-6.0-2.71","","<div style=""font-size:60px;"">+</div>","null","","","","","","",""
"null","","image-keyboard-response","436","672016","0.0-6.0-0.72","","img/grey.png","null","trial","null","true","0.4,0.6","4:nogo_d","",""
"null","","html-keyboard-response","437","673019","0.0-6.0-1.72","","<img src=""img/grey-n.png"">","null","trial","null","","0.4,0.6","4:nogo_d","0",""
"null","","html-keyboard-response","438","674020","0.0-6.0-2.72","","<div style=""font-size:60px;"">+</div>","null","","","","","","",""
"482.9899999895133","","image-keyboard-response","439","674505","0.0-6.0-0.73","","img/red.png","32","trial","null","false","0.4,0.6","2:nogo_b","",""
"null","","html-keyboard-response","440","675512","0.0-6.0-1.73","","<img src=""img/red-n.png"" border=""10"">","null","trial","null","","0.4,0.6","2:nogo_b","0",""
"null","","html-keyboard-response","441","676513","0.0-6.0-2.73","","<div style=""font-size:60px;"">+</div>","null","","","","","","",""
"730.8499999926426","","image-keyboard-response","442","677245","0.0-6.0-0.74","","img/blue.png","32","trial","32","true","0.6,0.4","1:go_a","",""
"null","","html-keyboard-response","443","678247","0.0-6.0-1.74","","<img src=""img/blue-r.png"" border=""10"">","null","trial","32","","0.6,0.4","1:go_a","1",""
"null","","html-keyboard-response","444","679261","0.0-6.0-2.74","","<div style=""font-size:60px;"">+</div>","null","","","","","","",""
"525.5400000023656","","image-keyboard-response","445","679787","0.0-6.0-0.75","","img/purple.png","32","trial","32","true","0.6,0.4","3:go_c","",""
"null","","html-keyboard-response","446","680789","0.0-6.0-1.75","","<img src=""img/purple-n.png"" border=""10"">","null","trial","32","","0.6,0.4","3:go_c","0",""
"null","","html-keyboard-response","447","681791","0.0-6.0-2.75","","<div style=""font-size:60px;"">+</div>","null","","","","","","",""
"602.3100000456907","","image-keyboard-response","448","682396","0.0-6.0-0.76","","img/blue.png","32","trial","32","true","0.6,0.4","1:go_a","",""
"null","","html-keyboard-response","449","683397","0.0-6.0-1.76","","<img src=""img/blue-n.png"" border=""10"">","null","trial","32","","0.6,0.4","1:go_a","0",""
"null","","html-keyboard-response","450","684399","0.0-6.0-2.76","","<div style=""font-size:60px;"">+</div>","null","","","","","","",""
"599.8350000008941","","image-keyboard-response","451","685001","0.0-6.0-0.77","","img/purple.png","32","trial","32","true","0.6,0.4","3:go_c","",""
"null","","html-keyboard-response","452","686006","0.0-6.0-1.77","","<img src=""img/purple-n.png"" border=""10"">","null","trial","32","","0.6,0.4","3:go_c","0",""
"null","","html-keyboard-response","453","687009","0.0-6.0-2.77","","<div style=""font-size:60px;"">+</div>","null","","","","","","",""
"642.0550000038929","","image-keyboard-response","454","687653","0.0-6.0-0.78","","img/red.png","32","trial","null","false","0.4,0.6","2:nogo_b","",""
"null","","html-keyboard-response","455","688657","0.0-6.0-1.78","","<img src=""img/red-n.png"" border=""10"">","null","trial","null","","0.4,0.6","2:nogo_b","0",""
"null","","html-keyboard-response","456","689659","0.0-6.0-2.78","","<div style=""font-size:60px;"">+</div>","null","","","","","","",""
"null","","image-keyboard-response","457","691162","0.0-6.0-0.79","","img/grey.png","null","trial","null","true","0.4,0.6","4:nogo_d","",""
"null","","html-keyboard-response","458","692166","0.0-6.0-1.79","","<img src=""img/grey-r.png"">","null","trial","null","","0.4,0.6","4:nogo_d","1",""
"null","","html-keyboard-response","459","693168","0.0-6.0-2.79","","<div style=""font-size:60px;"">+</div>","null","","","","","","",""
"705.6749999755993","","image-keyboard-response","460","693876","0.0-6.0-0.80","","img/purple.png","32","trial","32","true","0.6,0.4","3:go_c","",""
"null","","html-keyboard-response","461","694877","0.0-6.0-1.80","","<img src=""img/purple-r.png"" border=""10"">","null","trial","32","","0.6,0.4","3:go_c","1",""
"null","","html-keyboard-response","462","695878","0.0-6.0-2.80","","<div style=""font-size:60px;"">+</div>","null","","","","","","",""
"null","","image-keyboard-response","463","697381","0.0-6.0-0.81","","img/grey.png","null","trial","null","true","0.4,0.6","4:nogo_d","",""
"null","","html-keyboard-response","464","698384","0.0-6.0-1.81","","<img src=""img/grey-n.png"">","null","trial","null","","0.4,0.6","4:nogo_d","0",""
"null","","html-keyboard-response","465","699387","0.0-6.0-2.81","","<div style=""font-size:60px;"">+</div>","null","","","","","","",""
"612.4649999546818","","image-keyboard-response","466","700001","0.0-6.0-0.82","","img/blue.png","32","trial","32","true","0.6,0.4","1:go_a","",""
"null","","html-keyboard-response","467","701007","0.0-6.0-1.82","","<img src=""img/blue-r.png"" border=""10"">","null","trial","32","","0.6,0.4","1:go_a","1",""
"null","","html-keyboard-response","468","702008","0.0-6.0-2.82","","<div style=""font-size:60px;"">+</div>","null","","","","","","",""
"523.7600000109524","","image-keyboard-response","469","702533","0.0-6.0-0.83","","img/red.png","32","trial","null","false","0.4,0.6","2:nogo_b","",""
"null","","html-keyboard-response","470","703536","0.0-6.0-1.83","","<img src=""img/red-n.png"" border=""10"">","null","trial","null","","0.4,0.6","2:nogo_b","0",""
"null","","html-keyboard-response","471","704539","0.0-6.0-2.83","","<div style=""font-size:60px;"">+</div>","null","","","","","","",""
"null","","image-keyboard-response","472","706040","0.0-6.0-0.84","","img/grey.png","null","trial","null","true","0.4,0.6","4:nogo_d","",""
"null","","html-keyboard-response","473","707042","0.0-6.0-1.84","","<img src=""img/grey-n.png"">","null","trial","null","","0.4,0.6","4:nogo_d","0",""
"null","","html-keyboard-response","474","708045","0.0-6.0-2.84","","<div style=""font-size:60px;"">+</div>","null","","","","","","",""
"null","","image-keyboard-response","475","709547","0.0-6.0-0.85","","img/red.png","null","trial","null","true","0.4,0.6","2:nogo_b","",""
"null","","html-keyboard-response","476","710550","0.0-6.0-1.85","","<img src=""img/red-n.png"">","null","trial","null","","0.4,0.6","2:nogo_b","0",""
"null","","html-keyboard-response","477","711551","0.0-6.0-2.85","","<div style=""font-size:60px;"">+</div>","null","","","","","","",""
"684.9250000086613","","image-keyboard-response","478","712237","0.0-6.0-0.86","","img/purple.png","32","trial","32","true","0.6,0.4","3:go_c","",""
"null","","html-keyboard-response","479","713240","0.0-6.0-1.86","","<img src=""img/purple-n.png"" border=""10"">","null","trial","32","","0.6,0.4","3:go_c","0",""
"null","","html-keyboard-response","480","714242","0.0-6.0-2.86","","<div style=""font-size:60px;"">+</div>","null","","","","","","",""
"609.1749999905005","","image-keyboard-response","481","714852","0.0-6.0-0.87","","img/blue.png","32","trial","32","true","0.6,0.4","1:go_a","",""
"null","","html-keyboard-response","482","715855","0.0-6.0-1.87","","<img src=""img/blue-n.png"" border=""10"">","null","trial","32","","0.6,0.4","1:go_a","0",""
"null","","html-keyboard-response","483","716856","0.0-6.0-2.87","","<div style=""font-size:60px;"">+</div>","null","","","","","","",""
"714.4800000241958","","image-keyboard-response","484","717573","0.0-6.0-0.88","","img/purple.png","32","trial","32","true","0.6,0.4","3:go_c","",""
"null","","html-keyboard-response","485","718575","0.0-6.0-1.88","","<img src=""img/purple-r.png"" border=""10"">","null","trial","32","","0.6,0.4","3:go_c","1",""
"null","","html-keyboard-response","486","719577","0.0-6.0-2.88","","<div style=""font-size:60px;"">+</div>","null","","","","","","",""
"601.8849999527447","","image-keyboard-response","487","720181","0.0-6.0-0.89","","img/red.png","32","trial","null","false","0.4,0.6","2:nogo_b","",""
"null","","html-keyboard-response","488","721184","0.0-6.0-1.89","","<img src=""img/red-n.png"" border=""10"">","null","trial","null","","0.4,0.6","2:nogo_b","0",""
"null","","html-keyboard-response","489","722186","0.0-6.0-2.89","","<div style=""font-size:60px;"">+</div>","null","","","","","","",""
"597.9049999732524","","image-keyboard-response","490","722785","0.0-6.0-0.90","","img/blue.png","32","trial","32","true","0.6,0.4","1:go_a","",""
"null","","html-keyboard-response","491","723788","0.0-6.0-1.90","","<img src=""img/blue-r.png"" border=""10"">","null","trial","32","","0.6,0.4","1:go_a","1",""
"null","","html-keyboard-response","492","724790","0.0-6.0-2.90","","<div style=""font-size:60px;"">+</div>","null","","","","","","",""
"null","","image-keyboard-response","493","726292","0.0-6.0-0.91","","img/grey.png","null","trial","null","true","0.4,0.6","4:nogo_d","",""
"null","","html-keyboard-response","494","727294","0.0-6.0-1.91","","<img src=""img/grey-r.png"">","null","trial","null","","0.4,0.6","4:nogo_d","1",""
"null","","html-keyboard-response","495","728296","0.0-6.0-2.91","","<div style=""font-size:60px;"">+</div>","null","","","","","","",""
"null","","image-keyboard-response","496","729799","0.0-6.0-0.92","","img/grey.png","null","trial","null","true","0.4,0.6","4:nogo_d","",""
"null","","html-keyboard-response","497","730811","0.0-6.0-1.92","","<img src=""img/grey-r.png"">","null","trial","null","","0.4,0.6","4:nogo_d","1",""
"null","","html-keyboard-response","498","731813","0.0-6.0-2.92","","<div style=""font-size:60px;"">+</div>","null","","","","","","",""
"797.3300000303425","","image-keyboard-response","499","732612","0.0-6.0-0.93","","img/red.png","32","trial","null","false","0.4,0.6","2:nogo_b","",""
"null","","html-keyboard-response","500","733615","0.0-6.0-1.93","","<img src=""img/red-r.png"" border=""10"">","null","trial","null","","0.4,0.6","2:nogo_b","1",""
"null","","html-keyboard-response","501","734617","0.0-6.0-2.93","","<div style=""font-size:60px;"">+</div>","null","","","","","","",""
"890.4449999681674","","image-keyboard-response","502","735509","0.0-6.0-0.94","","img/purple.png","32","trial","32","true","0.6,0.4","3:go_c","",""
"null","","html-keyboard-response","503","736510","0.0-6.0-1.94","","<img src=""img/purple-n.png"" border=""10"">","null","trial","32","","0.6,0.4","3:go_c","0",""
"null","","html-keyboard-response","504","737513","0.0-6.0-2.94","","<div style=""font-size:60px;"">+</div>","null","","","","","","",""
"857.7250000089407","","image-keyboard-response","505","738371","0.0-6.0-0.95","","img/blue.png","32","trial","32","true","0.6,0.4","1:go_a","",""
"null","","html-keyboard-response","506","739373","0.0-6.0-1.95","","<img src=""img/blue-n.png"" border=""10"">","null","trial","32","","0.6,0.4","1:go_a","0",""
"null","","html-keyboard-response","507","740375","0.0-6.0-2.95","","<div style=""font-size:60px;"">+</div>","null","","","","","","",""
"null","","image-keyboard-response","508","741877","0.0-6.0-0.96","","img/grey.png","null","trial","null","true","0.4,0.6","4:nogo_d","",""
"null","","html-keyboard-response","509","742879","0.0-6.0-1.96","","<img src=""img/grey-r.png"">","null","trial","null","","0.4,0.6","4:nogo_d","1",""
"null","","html-keyboard-response","510","743881","0.0-6.0-2.96","","<div style=""font-size:60px;"">+</div>","null","","","","","","",""
"642.104999977164","","image-keyboard-response","511","744525","0.0-6.0-0.97","","img/purple.png","32","trial","32","true","0.6,0.4","3:go_c","",""
"null","","html-keyboard-response","512","745528","0.0-6.0-1.97","","<img src=""img/purple-n.png"" border=""10"">","null","trial","32","","0.6,0.4","3:go_c","0",""
"null","","html-keyboard-response","513","746530","0.0-6.0-2.97","","<div style=""font-size:60px;"">+</div>","null","","","","","","",""
"988.855000003241","","image-keyboard-response","514","747521","0.0-6.0-0.98","","img/blue.png","32","trial","32","true","0.6,0.4","1:go_a","",""
"null","","html-keyboard-response","515","748523","0.0-6.0-1.98","","<img src=""img/blue-n.png"" border=""10"">","null","trial","32","","0.6,0.4","1:go_a","0",""
"null","","html-keyboard-response","516","749526","0.0-6.0-2.98","","<div style=""font-size:60px;"">+</div>","null","","","","","","",""
"590.3050000197254","","image-keyboard-response","517","750117","0.0-6.0-0.99","","img/red.png","32","trial","null","false","0.4,0.6","2:nogo_b","",""
"null","","html-keyboard-response","518","751121","0.0-6.0-1.99","","<img src=""img/red-n.png"" border=""10"">","null","trial","null","","0.4,0.6","2:nogo_b","0",""
"null","","html-keyboard-response","519","752123","0.0-6.0-2.99","","<div style=""font-size:60px;"">+</div>","null","","","","","","",""
"456.9049999699928","","image-keyboard-response","520","752581","0.0-6.0-0.100","","img/grey.png","32","trial","null","false","0.4,0.6","4:nogo_d","",""
"null","","html-keyboard-response","521","753588","0.0-6.0-1.100","","<img src=""img/grey-n.png"" border=""10"">","null","trial","null","","0.4,0.6","4:nogo_d","0",""
"null","","html-keyboard-response","522","754590","0.0-6.0-2.100","","<div style=""font-size:60px;"">+</div>","null","","","","","","",""
"1292.0450000092387","","image-keyboard-response","523","755883","0.0-6.0-0.101","","img/blue.png","32","trial","32","true","0.6,0.4","1:go_a","",""
"null","","html-keyboard-response","524","756886","0.0-6.0-1.101","","<img src=""img/blue-n.png"" border=""10"">","null","trial","32","","0.6,0.4","1:go_a","0",""
"null","","html-keyboard-response","525","757887","0.0-6.0-2.101","","<div style=""font-size:60px;"">+</div>","null","","","","","","",""
"null","","image-keyboard-response","526","759390","0.0-6.0-0.102","","img/red.png","null","trial","null","true","0.4,0.6","2:nogo_b","",""
"null","","html-keyboard-response","527","760394","0.0-6.0-1.102","","<img src=""img/red-n.png"">","null","trial","null","","0.4,0.6","2:nogo_b","0",""
"null","","html-keyboard-response","528","761396","0.0-6.0-2.102","","<div style=""font-size:60px;"">+</div>","null","","","","","","",""
"882.8349999967031","","image-keyboard-response","529","762281","0.0-6.0-0.103","","img/purple.png","32","trial","32","true","0.6,0.4","3:go_c","",""
"null","","html-keyboard-response","530","763286","0.0-6.0-1.103","","<img src=""img/purple-r.png"" border=""10"">","null","trial","32","","0.6,0.4","3:go_c","1",""
"null","","html-keyboard-response","531","764287","0.0-6.0-2.103","","<div style=""font-size:60px;"">+</div>","null","","","","","","",""
"675.0799999572337","","image-keyboard-response","532","764964","0.0-6.0-0.104","","img/purple.png","32","trial","32","true","0.6,0.4","3:go_c","",""
"null","","html-keyboard-response","533","765967","0.0-6.0-1.104","","<img src=""img/purple-n.png"" border=""10"">","null","trial","32","","0.6,0.4","3:go_c","0",""
"null","","html-keyboard-response","534","766969","0.0-6.0-2.104","","<div style=""font-size:60px;"">+</div>","null","","","","","","",""
"null","","image-keyboard-response","535","768471","0.0-6.0-0.105","","img/grey.png","null","trial","null","true","0.4,0.6","4:nogo_d","",""
"null","","html-keyboard-response","536","769474","0.0-6.0-1.105","","<img src=""img/grey-n.png"">","null","trial","null","","0.4,0.6","4:nogo_d","0",""
"null","","html-keyboard-response","537","770477","0.0-6.0-2.105","","<div style=""font-size:60px;"">+</div>","null","","","","","","",""
"941.0599999828264","","image-keyboard-response","538","771420","0.0-6.0-0.106","","img/blue.png","32","trial","32","true","0.6,0.4","1:go_a","",""
"null","","html-keyboard-response","539","772424","0.0-6.0-1.106","","<img src=""img/blue-n.png"" border=""10"">","null","trial","32","","0.6,0.4","1:go_a","0",""
"null","","html-keyboard-response","540","773426","0.0-6.0-2.106","","<div style=""font-size:60px;"">+</div>","null","","","","","","",""
"740.5650000437163","","image-keyboard-response","541","774168","0.0-6.0-0.107","","img/red.png","32","trial","null","false","0.4,0.6","2:nogo_b","",""
"null","","html-keyboard-response","542","775172","0.0-6.0-1.107","","<img src=""img/red-n.png"" border=""10"">","null","trial","null","","0.4,0.6","2:nogo_b","0",""
"null","","html-keyboard-response","543","776176","0.0-6.0-2.107","","<div style=""font-size:60px;"">+</div>","null","","","","","","",""
"960.4849999886937","","image-keyboard-response","544","777140","0.0-6.0-0.108","","img/red.png","32","trial","null","false","0.4,0.6","2:nogo_b","",""
"null","","html-keyboard-response","545","778144","0.0-6.0-1.108","","<img src=""img/red-n.png"" border=""10"">","null","trial","null","","0.4,0.6","2:nogo_b","0",""
"null","","html-keyboard-response","546","779150","0.0-6.0-2.108","","<div style=""font-size:60px;"">+</div>","null","","","","","","",""
"null","","image-keyboard-response","547","780654","0.0-6.0-0.109","","img/grey.png","null","trial","null","true","0.4,0.6","4:nogo_d","",""
"null","","html-keyboard-response","548","781658","0.0-6.0-1.109","","<img src=""img/grey-n.png"">","null","trial","null","","0.4,0.6","4:nogo_d","0",""
"null","","html-keyboard-response","549","782660","0.0-6.0-2.109","","<div style=""font-size:60px;"">+</div>","null","","","","","","",""
"1238.4450000245124","","image-keyboard-response","550","783900","0.0-6.0-0.110","","img/blue.png","32","trial","32","true","0.6,0.4","1:go_a","",""
"null","","html-keyboard-response","551","784903","0.0-6.0-1.110","","<img src=""img/blue-n.png"" border=""10"">","null","trial","32","","0.6,0.4","1:go_a","0",""
"null","","html-keyboard-response","552","785905","0.0-6.0-2.110","","<div style=""font-size:60px;"">+</div>","null","","","","","","",""
"737.2949999989942","","image-keyboard-response","553","786644","0.0-6.0-0.111","","img/purple.png","32","trial","32","true","0.6,0.4","3:go_c","",""
"null","","html-keyboard-response","554","787646","0.0-6.0-1.111","","<img src=""img/purple-n.png"" border=""10"">","null","trial","32","","0.6,0.4","3:go_c","0",""
"null","","html-keyboard-response","555","788648","0.0-6.0-2.111","","<div style=""font-size:60px;"">+</div>","null","","","","","","",""
"698.7300000037067","","image-keyboard-response","556","789349","0.0-6.0-0.112","","img/blue.png","32","trial","32","true","0.6,0.4","1:go_a","",""
"null","","html-keyboard-response","557","790354","0.0-6.0-1.112","","<img src=""img/blue-n.png"" border=""10"">","null","trial","32","","0.6,0.4","1:go_a","0",""
"null","","html-keyboard-response","558","791356","0.0-6.0-2.112","","<div style=""font-size:60px;"">+</div>","null","","","","","","",""
"null","","image-keyboard-response","559","792860","0.0-6.0-0.113","","img/purple.png","null","trial","32","false","0.6,0.4","3:go_c","",""
"null","","html-keyboard-response","560","793862","0.0-6.0-1.113","","<img src=""img/purple-n.png"">","null","trial","32","","0.6,0.4","3:go_c","0",""
"null","","html-keyboard-response","561","794864","0.0-6.0-2.113","","<div style=""font-size:60px;"">+</div>","null","","","","","","",""
"null","","image-keyboard-response","562","796368","0.0-6.0-0.114","","img/red.png","null","trial","null","true","0.4,0.6","2:nogo_b","",""
"null","","html-keyboard-response","563","797369","0.0-6.0-1.114","","<img src=""img/red-r.png"">","null","trial","null","","0.4,0.6","2:nogo_b","1",""
"null","","html-keyboard-response","564","798371","0.0-6.0-2.114","","<div style=""font-size:60px;"">+</div>","null","","","","","","",""
"null","","image-keyboard-response","565","799874","0.0-6.0-0.115","","img/grey.png","null","trial","null","true","0.4,0.6","4:nogo_d","",""
"null","","html-keyboard-response","566","800881","0.0-6.0-1.115","","<img src=""img/grey-r.png"">","null","trial","null","","0.4,0.6","4:nogo_d","1",""
"null","","html-keyboard-response","567","801883","0.0-6.0-2.115","","<div style=""font-size:60px;"">+</div>","null","","","","","","",""
"682.3950000107288","","image-keyboard-response","568","802568","0.0-6.0-0.116","","img/blue.png","32","trial","32","true","0.6,0.4","1:go_a","",""
"null","","html-keyboard-response","569","803571","0.0-6.0-1.116","","<img src=""img/blue-r.png"" border=""10"">","null","trial","32","","0.6,0.4","1:go_a","1",""
"null","","html-keyboard-response","570","804574","0.0-6.0-2.116","","<div style=""font-size:60px;"">+</div>","null","","","","","","",""
"null","","image-keyboard-response","571","806076","0.0-6.0-0.117","","img/grey.png","null","trial","null","true","0.4,0.6","4:nogo_d","",""
"null","","html-keyboard-response","572","807080","0.0-6.0-1.117","","<img src=""img/grey-n.png"">","null","trial","null","","0.4,0.6","4:nogo_d","0",""
"null","","html-keyboard-response","573","808081","0.0-6.0-2.117","","<div style=""font-size:60px;"">+</div>","null","","","","","","",""
"504.7049999702722","","image-keyboard-response","574","808588","0.0-6.0-0.118","","img/red.png","32","trial","null","false","0.4,0.6","2:nogo_b","",""
"null","","html-keyboard-response","575","809592","0.0-6.0-1.118","","<img src=""img/red-n.png"" border=""10"">","null","trial","null","","0.4,0.6","2:nogo_b","0",""
"null","","html-keyboard-response","576","810593","0.0-6.0-2.118","","<div style=""font-size:60px;"">+</div>","null","","","","","","",""
"616.710000031162","","image-keyboard-response","577","811211","0.0-6.0-0.119","","img/purple.png","32","trial","32","true","0.6,0.4","3:go_c","",""
"null","","html-keyboard-response","578","812212","0.0-6.0-1.119","","<img src=""img/purple-r.png"" border=""10"">","null","trial","32","","0.6,0.4","3:go_c","1",""
"null","","html-keyboard-response","579","813215","0.0-6.0-2.119","","<div style=""font-size:60px;"">+</div>","null","","","","","","",""
"5849.435000040103","","instructions","580","819064","0.0-7.0","[{""page_index"":0,""viewing_time"":5849.160000041593}]","","","","","","","","",""
"930.2000000025146","","image-keyboard-response","581","819996","0.0-8.0-0.0","","img/orange.png","32","trial","32","true","1,0","3:go_c","",""
"null","","html-keyboard-response","582","821000","0.0-8.0-1.0","","<img src=""img/orange-r.png"" border=""10"">","null","trial","32","","1,0","3:go_c","1",""
"null","","html-keyboard-response","583","822004","0.0-8.0-2.0","","<div style=""font-size:60px;"">+</div>","null","","","","","","",""
"843.7850000336766","","image-keyboard-response","584","822852","0.0-8.0-0.1","","img/yellow.png","32","trial","null","false","0.2,0.8","2:nogo_b","",""
"null","","html-keyboard-response","585","823855","0.0-8.0-1.1","","<img src=""img/yellow-n.png"" border=""10"">","null","trial","null","","0.2,0.8","2:nogo_b","0",""
"null","","html-keyboard-response","586","824857","0.0-8.0-2.1","","<div style=""font-size:60px;"">+</div>","null","","","","","","",""
"695.9449999849312","","image-keyboard-response","587","825555","0.0-8.0-0.2","","img/blue.png","32","trial","32","true","0.8,0.2","1:go_a","",""
"null","","html-keyboard-response","588","826557","0.0-8.0-1.2","","<img src=""img/blue-r.png"" border=""10"">","null","trial","32","","0.8,0.2","1:go_a","1",""
"null","","html-keyboard-response","589","827560","0.0-8.0-2.2","","<div style=""font-size:60px;"">+</div>","null","","","","","","",""
"null","","image-keyboard-response","590","829061","0.0-8.0-0.3","","img/purple.png","null","trial","null","true","0,1","4:nogo_d","",""
"null","","html-keyboard-response","591","830064","0.0-8.0-1.3","","<img src=""img/purple-r.png"">","null","trial","null","","0,1","4:nogo_d","1",""
"null","","html-keyboard-response","592","831067","0.0-8.0-2.3","","<div style=""font-size:60px;"">+</div>","null","","","","","","",""
"583.3550000097603","","image-keyboard-response","593","831652","0.0-8.0-0.4","","img/orange.png","32","trial","32","true","1,0","3:go_c","",""
"null","","html-keyboard-response","594","832656","0.0-8.0-1.4","","<img src=""img/orange-r.png"" border=""10"">","null","trial","32","","1,0","3:go_c","1",""
"null","","html-keyboard-response","595","833657","0.0-8.0-2.4","","<div style=""font-size:60px;"">+</div>","null","","","","","","",""
"null","","image-keyboard-response","596","835159","0.0-8.0-0.5","","img/yellow.png","null","trial","null","true","0.2,0.8","2:nogo_b","",""
"null","","html-keyboard-response","597","836163","0.0-8.0-1.5","","<img src=""img/yellow-r.png"">","null","trial","null","","0.2,0.8","2:nogo_b","1",""
"null","","html-keyboard-response","598","837166","0.0-8.0-2.5","","<div style=""font-size:60px;"">+</div>","null","","","","","","",""
"882.8649999923073","","image-keyboard-response","599","838051","0.0-8.0-0.6","","img/purple.png","32","trial","null","false","0,1","4:nogo_d","",""
"null","","html-keyboard-response","600","839053","0.0-8.0-1.6","","<img src=""img/purple-n.png"" border=""10"">","null","trial","null","","0,1","4:nogo_d","0",""
"null","","html-keyboard-response","601","840055","0.0-8.0-2.6","","<div style=""font-size:60px;"">+</div>","null","","","","","","",""
"740.2550000115298","","image-keyboard-response","602","840796","0.0-8.0-0.7","","img/blue.png","32","trial","32","true","0.8,0.2","1:go_a","",""
"null","","html-keyboard-response","603","841798","0.0-8.0-1.7","","<img src=""img/blue-r.png"" border=""10"">","null","trial","32","","0.8,0.2","1:go_a","1",""
"null","","html-keyboard-response","604","842801","0.0-8.0-2.7","","<div style=""font-size:60px;"">+</div>","null","","","","","","",""
"705.6299999821931","","image-keyboard-response","605","843508","0.0-8.0-0.8","","img/purple.png","32","trial","null","false","0,1","4:nogo_d","",""
"null","","html-keyboard-response","606","844515","0.0-8.0-1.8","","<img src=""img/purple-n.png"" border=""10"">","null","trial","null","","0,1","4:nogo_d","0",""
"null","","html-keyboard-response","607","845517","0.0-8.0-2.8","","<div style=""font-size:60px;"">+</div>","null","","","","","","",""
"805.6850000284612","","image-keyboard-response","608","846324","0.0-8.0-0.9","","img/blue.png","32","trial","32","true","0.8,0.2","1:go_a","",""
"null","","html-keyboard-response","609","847327","0.0-8.0-1.9","","<img src=""img/blue-r.png"" border=""10"">","null","trial","32","","0.8,0.2","1:go_a","1",""
"null","","html-keyboard-response","610","848329","0.0-8.0-2.9","","<div style=""font-size:60px;"">+</div>","null","","","","","","",""
"872.8800000390038","","image-keyboard-response","611","849204","0.0-8.0-0.10","","img/yellow.png","32","trial","null","false","0.2,0.8","2:nogo_b","",""
"null","","html-keyboard-response","612","850205","0.0-8.0-1.10","","<img src=""img/yellow-n.png"" border=""10"">","null","trial","null","","0.2,0.8","2:nogo_b","0",""
"null","","html-keyboard-response","613","851206","0.0-8.0-2.10","","<div style=""font-size:60px;"">+</div>","null","","","","","","",""
"480.8849999681115","","image-keyboard-response","614","851688","0.0-8.0-0.11","","img/orange.png","32","trial","32","true","1,0","3:go_c","",""
"null","","html-keyboard-response","615","852691","0.0-8.0-1.11","","<img src=""img/orange-r.png"" border=""10"">","null","trial","32","","1,0","3:go_c","1",""
"null","","html-keyboard-response","616","853694","0.0-8.0-2.11","","<div style=""font-size:60px;"">+</div>","null","","","","","","",""
"null","","image-keyboard-response","617","855195","0.0-8.0-0.12","","img/yellow.png","null","trial","null","true","0.2,0.8","2:nogo_b","",""
"null","","html-keyboard-response","618","856197","0.0-8.0-1.12","","<img src=""img/yellow-r.png"">","null","trial","null","","0.2,0.8","2:nogo_b","1",""
"null","","html-keyboard-response","619","857198","0.0-8.0-2.12","","<div style=""font-size:60px;"">+</div>","null","","","","","","",""
"788.5799999930896","","image-keyboard-response","620","857987","0.0-8.0-0.13","","img/orange.png","32","trial","32","true","1,0","3:go_c","",""
"null","","html-keyboard-response","621","858990","0.0-8.0-1.13","","<img src=""img/orange-r.png"" border=""10"">","null","trial","32","","1,0","3:go_c","1",""
"null","","html-keyboard-response","622","859994","0.0-8.0-2.13","","<div style=""font-size:60px;"">+</div>","null","","","","","","",""
"527.8699999907985","","image-keyboard-response","623","860524","0.0-8.0-0.14","","img/blue.png","32","trial","32","true","0.8,0.2","1:go_a","",""
"null","","html-keyboard-response","624","861526","0.0-8.0-1.14","","<img src=""img/blue-r.png"" border=""10"">","null","trial","32","","0.8,0.2","1:go_a","1",""
"null","","html-keyboard-response","625","862528","0.0-8.0-2.14","","<div style=""font-size:60px;"">+</div>","null","","","","","","",""
"null","","image-keyboard-response","626","864030","0.0-8.0-0.15","","img/purple.png","null","trial","null","true","0,1","4:nogo_d","",""
"null","","html-keyboard-response","627","865032","0.0-8.0-1.15","","<img src=""img/purple-r.png"">","null","trial","null","","0,1","4:nogo_d","1",""
"null","","html-keyboard-response","628","866034","0.0-8.0-2.15","","<div style=""font-size:60px;"">+</div>","null","","","","","","",""
"596.3650000048801","","image-keyboard-response","629","866632","0.0-8.0-0.16","","img/orange.png","32","trial","32","true","1,0","3:go_c","",""
"null","","html-keyboard-response","630","867636","0.0-8.0-1.16","","<img src=""img/orange-r.png"" border=""10"">","null","trial","32","","1,0","3:go_c","1",""
"null","","html-keyboard-response","631","868638","0.0-8.0-2.16","","<div style=""font-size:60px;"">+</div>","null","","","","","","",""
"null","","image-keyboard-response","632","870140","0.0-8.0-0.17","","img/purple.png","null","trial","null","true","0,1","4:nogo_d","",""
"null","","html-keyboard-response","633","871143","0.0-8.0-1.17","","<img src=""img/purple-r.png"">","null","trial","null","","0,1","4:nogo_d","1",""
"null","","html-keyboard-response","634","872145","0.0-8.0-2.17","","<div style=""font-size:60px;"">+</div>","null","","","","","","",""
"624.0999999572523","","image-keyboard-response","635","872770","0.0-8.0-0.18","","img/blue.png","32","trial","32","true","0.8,0.2","1:go_a","",""
"null","","html-keyboard-response","636","873773","0.0-8.0-1.18","","<img src=""img/blue-r.png"" border=""10"">","null","trial","32","","0.8,0.2","1:go_a","1",""
"null","","html-keyboard-response","637","874775","0.0-8.0-2.18","","<div style=""font-size:60px;"">+</div>","null","","","","","","",""
"1027.2499999846332","","image-keyboard-response","638","875804","0.0-8.0-0.19","","img/yellow.png","32","trial","null","false","0.2,0.8","2:nogo_b","",""
"null","","html-keyboard-response","639","876808","0.0-8.0-1.19","","<img src=""img/yellow-r.png"" border=""10"">","null","trial","null","","0.2,0.8","2:nogo_b","1",""
"null","","html-keyboard-response","640","877810","0.0-8.0-2.19","","<div style=""font-size:60px;"">+</div>","null","","","","","","",""
"747.3400000017136","","image-keyboard-response","641","878559","0.0-8.0-0.20","","img/blue.png","32","trial","32","true","0.8,0.2","1:go_a","",""
"null","","html-keyboard-response","642","879562","0.0-8.0-1.20","","<img src=""img/blue-n.png"" border=""10"">","null","trial","32","","0.8,0.2","1:go_a","0",""
"null","","html-keyboard-response","643","880568","0.0-8.0-2.20","","<div style=""font-size:60px;"">+</div>","null","","","","","","",""
"1233.3000000216998","","image-keyboard-response","644","881802","0.0-8.0-0.21","","img/yellow.png","32","trial","null","false","0.2,0.8","2:nogo_b","",""
"null","","html-keyboard-response","645","882804","0.0-8.0-1.21","","<img src=""img/yellow-n.png"" border=""10"">","null","trial","null","","0.2,0.8","2:nogo_b","0",""
"null","","html-keyboard-response","646","883814","0.0-8.0-2.21","","<div style=""font-size:60px;"">+</div>","null","","","","","","",""
"580.2999999723397","","image-keyboard-response","647","884395","0.0-8.0-0.22","","img/purple.png","32","trial","null","false","0,1","4:nogo_d","",""
"null","","html-keyboard-response","648","885414","0.0-8.0-1.22","","<img src=""img/purple-n.png"" border=""10"">","null","trial","null","","0,1","4:nogo_d","0",""
"null","","html-keyboard-response","649","886416","0.0-8.0-2.22","","<div style=""font-size:60px;"">+</div>","null","","","","","","",""
"675.6599999498576","","image-keyboard-response","650","887093","0.0-8.0-0.23","","img/orange.png","32","trial","32","true","1,0","3:go_c","",""
"null","","html-keyboard-response","651","888095","0.0-8.0-1.23","","<img src=""img/orange-r.png"" border=""10"">","null","trial","32","","1,0","3:go_c","1",""
"null","","html-keyboard-response","652","889097","0.0-8.0-2.23","","<div style=""font-size:60px;"">+</div>","null","","","","","","",""
"null","","image-keyboard-response","653","890601","0.0-8.0-0.24","","img/purple.png","null","trial","null","true","0,1","4:nogo_d","",""
"null","","html-keyboard-response","654","891604","0.0-8.0-1.24","","<img src=""img/purple-r.png"">","null","trial","null","","0,1","4:nogo_d","1",""
"null","","html-keyboard-response","655","892607","0.0-8.0-2.24","","<div style=""font-size:60px;"">+</div>","null","","","","","","",""
"507.93000002158806","","image-keyboard-response","656","893118","0.0-8.0-0.25","","img/blue.png","32","trial","32","true","0.8,0.2","1:go_a","",""
"null","","html-keyboard-response","657","894120","0.0-8.0-1.25","","<img src=""img/blue-r.png"" border=""10"">","null","trial","32","","0.8,0.2","1:go_a","1",""
"null","","html-keyboard-response","658","895121","0.0-8.0-2.25","","<div style=""font-size:60px;"">+</div>","null","","","","","","",""
"809.2799999867566","","image-keyboard-response","659","895932","0.0-8.0-0.26","","img/orange.png","32","trial","32","true","1,0","3:go_c","",""
"null","","html-keyboard-response","660","896934","0.0-8.0-1.26","","<img src=""img/orange-r.png"" border=""10"">","null","trial","32","","1,0","3:go_c","1",""
"null","","html-keyboard-response","661","897936","0.0-8.0-2.26","","<div style=""font-size:60px;"">+</div>","null","","","","","","",""
"null","","image-keyboard-response","662","899439","0.0-8.0-0.27","","img/yellow.png","null","trial","null","true","0.2,0.8","2:nogo_b","",""
"null","","html-keyboard-response","663","900443","0.0-8.0-1.27","","<img src=""img/yellow-r.png"">","null","trial","null","","0.2,0.8","2:nogo_b","1",""
"null","","html-keyboard-response","664","901445","0.0-8.0-2.27","","<div style=""font-size:60px;"">+</div>","null","","","","","","",""
"null","","image-keyboard-response","665","902947","0.0-8.0-0.28","","img/yellow.png","null","trial","null","true","0.2,0.8","2:nogo_b","",""
"null","","html-keyboard-response","666","903950","0.0-8.0-1.28","","<img src=""img/yellow-r.png"">","null","trial","null","","0.2,0.8","2:nogo_b","1",""
"null","","html-keyboard-response","667","904951","0.0-8.0-2.28","","<div style=""font-size:60px;"">+</div>","null","","","","","","",""
"447.93500000378117","","image-keyboard-response","668","905401","0.0-8.0-0.29","","img/orange.png","32","trial","32","true","1,0","3:go_c","",""
"null","","html-keyboard-response","669","906406","0.0-8.0-1.29","","<img src=""img/orange-r.png"" border=""10"">","null","trial","32","","1,0","3:go_c","1",""
"null","","html-keyboard-response","670","907409","0.0-8.0-2.29","","<div style=""font-size:60px;"">+</div>","null","","","","","","",""
"576.05000003241","","image-keyboard-response","671","907988","0.0-8.0-0.30","","img/blue.png","32","trial","32","true","0.8,0.2","1:go_a","",""
"null","","html-keyboard-response","672","908992","0.0-8.0-1.30","","<img src=""img/blue-n.png"" border=""10"">","null","trial","32","","0.8,0.2","1:go_a","0",""
"null","","html-keyboard-response","673","909993","0.0-8.0-2.30","","<div style=""font-size:60px;"">+</div>","null","","","","","","",""
"521.2549999705516","","image-keyboard-response","674","910516","0.0-8.0-0.31","","img/purple.png","32","trial","null","false","0,1","4:nogo_d","",""
"null","","html-keyboard-response","675","911519","0.0-8.0-1.31","","<img src=""img/purple-n.png"" border=""10"">","null","trial","null","","0,1","4:nogo_d","0",""
"null","","html-keyboard-response","676","912521","0.0-8.0-2.31","","<div style=""font-size:60px;"">+</div>","null","","","","","","",""
"645.5199999618344","","image-keyboard-response","677","913168","0.0-8.0-0.32","","img/blue.png","32","trial","32","true","0.8,0.2","1:go_a","",""
