"rt","url","trial_type","trial_index","time_elapsed","internal_node_id","view_history","stimulus","key_press","test_part","correct_response","correct","use_rew","which_stim","reward","responses"
"10475.130000006175","consent.html","external-html","0","10555","0.0-0.0","","","","","","","","","",""
"144807.24999999802","","instructions","1","155363","0.0-1.0","[{""page_index"":0,""viewing_time"":4060.6449999904726},{""page_index"":1,""viewing_time"":72148.80500000436},{""page_index"":2,""viewing_time"":4622.289999999339},{""page_index"":3,""viewing_time"":21266.090000004624},{""page_index"":4,""viewing_time"":25051.959999997052},{""page_index"":5,""viewing_time"":5671.804999990854},{""page_index"":6,""viewing_time"":11984.480000013718}]","","","","","","","","",""
"null","","image-keyboard-response","2","156866","0.0-2.0-0.0","","img/test3.PNG","null","practice","null","true","","","",""
"null","","html-keyboard-response","3","157869","0.0-2.0-1.0","","<img src=""img/test3-reward.PNG"">","null","","","","","","",""
"null","","html-keyboard-response","4","158871","0.0-2.0-2.0","","<div style=""font-size:60px;"">+</div>","null","","","","","","",""
"455.82000000285916","","image-keyboard-response","5","159328","0.0-2.0-0.1","","img/test1.PNG","32","practice","32","true","","","",""
"null","","html-keyboard-response","6","160330","0.0-2.0-1.1","","<img src=""img/test1-reward.PNG"" border=""10px; grey"">","null","","","","","","",""
"null","","html-keyboard-response","7","161332","0.0-2.0-2.1","","<div style=""font-size:60px;"">+</div>","null","","","","","","",""
"null","","image-keyboard-response","8","162833","0.0-2.0-0.2","","img/test2.PNG","null","practice","null","true","","","",""
"null","","html-keyboard-response","9","163834","0.0-2.0-1.2","","<img src=""img/test2-reward.PNG"">","null","","","","","","",""
"null","","html-keyboard-response","10","164836","0.0-2.0-2.2","","<div style=""font-size:60px;"">+</div>","null","","","","","","",""
"null","","image-keyboard-response","11","166341","0.0-2.0-0.3","","img/test2.PNG","null","practice","null","true","","","",""
"null","","html-keyboard-response","12","167342","0.0-2.0-1.3","","<img src=""img/test2-reward.PNG"">","null","","","","","","",""
"null","","html-keyboard-response","13","168344","0.0-2.0-2.3","","<div style=""font-size:60px;"">+</div>","null","","","","","","",""
"null","","image-keyboard-response","14","169846","0.0-2.0-0.4","","img/test3.PNG","null","practice","null","true","","","",""
"null","","html-keyboard-response","15","170848","0.0-2.0-1.4","","<img src=""img/test3-reward.PNG"">","null","","","","","","",""
"null","","html-keyboard-response","16","171849","0.0-2.0-2.4","","<div style=""font-size:60px;"">+</div>","null","","","","","","",""
"485.19500000111293","","image-keyboard-response","17","172336","0.0-2.0-0.5","","img/test1.PNG","32","practice","32","true","","","",""
"null","","html-keyboard-response","18","173339","0.0-2.0-1.5","","<img src=""img/test1-reward.PNG"" border=""10px; grey"">","null","","","","","","",""
"null","","html-keyboard-response","19","174341","0.0-2.0-2.5","","<div style=""font-size:60px;"">+</div>","null","","","","","","",""
"710.0650000065798","","image-keyboard-response","20","175052","0.0-2.0-0.6","","img/test1.PNG","32","practice","32","true","","","",""
"null","","html-keyboard-response","21","176056","0.0-2.0-1.6","","<img src=""img/test1-reward.PNG"" border=""10px; grey"">","null","","","","","","",""
"null","","html-keyboard-response","22","177058","0.0-2.0-2.6","","<div style=""font-size:60px;"">+</div>","null","","","","","","",""
"null","","image-keyboard-response","23","178560","0.0-2.0-0.7","","img/test3.PNG","null","practice","null","true","","","",""
"null","","html-keyboard-response","24","179561","0.0-2.0-1.7","","<img src=""img/test3-reward.PNG"">","null","","","","","","",""
"null","","html-keyboard-response","25","180562","0.0-2.0-2.7","","<div style=""font-size:60px;"">+</div>","null","","","","","","",""
"null","","image-keyboard-response","26","182064","0.0-2.0-0.8","","img/test2.PNG","null","practice","null","true","","","",""
"null","","html-keyboard-response","27","183066","0.0-2.0-1.8","","<img src=""img/test2-reward.PNG"">","null","","","","","","",""
"null","","html-keyboard-response","28","184068","0.0-2.0-2.8","","<div style=""font-size:60px;"">+</div>","null","","","","","","",""
"null","","image-keyboard-response","29","185574","0.0-2.0-0.9","","img/test3.PNG","null","practice","null","true","","","",""
"null","","html-keyboard-response","30","186576","0.0-2.0-1.9","","<img src=""img/test3-reward.PNG"">","null","","","","","","",""
"null","","html-keyboard-response","31","187578","0.0-2.0-2.9","","<div style=""font-size:60px;"">+</div>","null","","","","","","",""
"463.75999999872874","","image-keyboard-response","32","188043","0.0-2.0-0.10","","img/test1.PNG","32","practice","32","true","","","",""
"null","","html-keyboard-response","33","189045","0.0-2.0-1.10","","<img src=""img/test1-reward.PNG"" border=""10px; grey"">","null","","","","","","",""
"null","","html-keyboard-response","34","190047","0.0-2.0-2.10","","<div style=""font-size:60px;"">+</div>","null","","","","","","",""
"null","","image-keyboard-response","35","191549","0.0-2.0-0.11","","img/test2.PNG","null","practice","null","true","","","",""
"null","","html-keyboard-response","36","192551","0.0-2.0-1.11","","<img src=""img/test2-reward.PNG"">","null","","","","","","",""
"null","","html-keyboard-response","37","193551","0.0-2.0-2.11","","<div style=""font-size:60px;"">+</div>","null","","","","","","",""
"16866.09500000486","","instructions","38","210418","0.0-3.0","[{""page_index"":0,""viewing_time"":16865.880000012112}]","","","","","","","","",""
"1326.1250000068685","","image-keyboard-response","39","211745","0.0-4.0-0.0","","img/purple.png","32","trial","null","false","0.2,0.8","2:nogo_b","",""
"null","","html-keyboard-response","40","212748","0.0-4.0-1.0","","<img src=""img/purple-n.png"" border=""10"">","null","trial","null","","0.2,0.8","2:nogo_b","0",""
"null","","html-keyboard-response","41","213749","0.0-4.0-2.0","","<div style=""font-size:60px;"">+</div>","null","","","","","","",""
"519.045000008191","","image-keyboard-response","42","214269","0.0-4.0-0.1","","img/blue.png","32","trial","32","true","0.8,0.2","1:go_a","",""
"null","","html-keyboard-response","43","215273","0.0-4.0-1.1","","<img src=""img/blue-r.png"" border=""10"">","null","trial","32","","0.8,0.2","1:go_a","1",""
"null","","html-keyboard-response","44","216276","0.0-4.0-2.1","","<div style=""font-size:60px;"">+</div>","null","","","","","","",""
"562.0800000033341","","image-keyboard-response","45","216839","0.0-4.0-0.2","","img/purple.png","32","trial","null","false","0.2,0.8","2:nogo_b","",""
"null","","html-keyboard-response","46","217842","0.0-4.0-1.2","","<img src=""img/purple-r.png"" border=""10"">","null","trial","null","","0.2,0.8","2:nogo_b","1",""
"null","","html-keyboard-response","47","218849","0.0-4.0-2.2","","<div style=""font-size:60px;"">+</div>","null","","","","","","",""
"540.7250000134809","","image-keyboard-response","48","219390","0.0-4.0-0.3","","img/blue.png","32","trial","32","true","0.8,0.2","1:go_a","",""
"null","","html-keyboard-response","49","220394","0.0-4.0-1.3","","<img src=""img/blue-r.png"" border=""10"">","null","trial","32","","0.8,0.2","1:go_a","1",""
"null","","html-keyboard-response","50","221394","0.0-4.0-2.3","","<div style=""font-size:60px;"">+</div>","null","","","","","","",""
"450.45000000391155","","image-keyboard-response","51","221846","0.0-4.0-0.4","","img/blue.png","32","trial","32","true","0.8,0.2","1:go_a","",""
"null","","html-keyboard-response","52","222849","0.0-4.0-1.4","","<img src=""img/blue-r.png"" border=""10"">","null","trial","32","","0.8,0.2","1:go_a","1",""
"null","","html-keyboard-response","53","223851","0.0-4.0-2.4","","<div style=""font-size:60px;"">+</div>","null","","","","","","",""
"435.8499999943888","","image-keyboard-response","54","224288","0.0-4.0-0.5","","img/purple.png","32","trial","null","false","0.2,0.8","2:nogo_b","",""
"null","","html-keyboard-response","55","225291","0.0-4.0-1.5","","<img src=""img/purple-n.png"" border=""10"">","null","trial","null","","0.2,0.8","2:nogo_b","0",""
"null","","html-keyboard-response","56","226293","0.0-4.0-2.5","","<div style=""font-size:60px;"">+</div>","null","","","","","","",""
"619.539999999688","","image-keyboard-response","57","226913","0.0-4.0-0.6","","img/purple.png","32","trial","null","false","0.2,0.8","2:nogo_b","",""
"null","","html-keyboard-response","58","227916","0.0-4.0-1.6","","<img src=""img/purple-r.png"" border=""10"">","null","trial","null","","0.2,0.8","2:nogo_b","1",""
"null","","html-keyboard-response","59","228918","0.0-4.0-2.6","","<div style=""font-size:60px;"">+</div>","null","","","","","","",""
"447.0100000035018","","image-keyboard-response","60","229366","0.0-4.0-0.7","","img/blue.png","32","trial","32","true","0.8,0.2","1:go_a","",""
"null","","html-keyboard-response","61","230368","0.0-4.0-1.7","","<img src=""img/blue-n.png"" border=""10"">","null","trial","32","","0.8,0.2","1:go_a","0",""
"null","","html-keyboard-response","62","231368","0.0-4.0-2.7","","<div style=""font-size:60px;"">+</div>","null","","","","","","",""
"380.3900000057183","","image-keyboard-response","63","231750","0.0-4.0-0.8","","img/purple.png","32","trial","null","false","0.2,0.8","2:nogo_b","",""
"null","","html-keyboard-response","64","232752","0.0-4.0-1.8","","<img src=""img/purple-r.png"" border=""10"">","null","trial","null","","0.2,0.8","2:nogo_b","1",""
"null","","html-keyboard-response","65","233764","0.0-4.0-2.8","","<div style=""font-size:60px;"">+</div>","null","","","","","","",""
"672.4399999948218","","image-keyboard-response","66","234438","0.0-4.0-0.9","","img/blue.png","32","trial","32","true","0.8,0.2","1:go_a","",""
"null","","html-keyboard-response","67","235442","0.0-4.0-1.9","","<img src=""img/blue-r.png"" border=""10"">","null","trial","32","","0.8,0.2","1:go_a","1",""
"null","","html-keyboard-response","68","236444","0.0-4.0-2.9","","<div style=""font-size:60px;"">+</div>","null","","","","","","",""
"570.6150000041816","","image-keyboard-response","69","237016","0.0-4.0-0.10","","img/blue.png","32","trial","32","true","0.8,0.2","1:go_a","",""
"null","","html-keyboard-response","70","238020","0.0-4.0-1.10","","<img src=""img/blue-r.png"" border=""10"">","null","trial","32","","0.8,0.2","1:go_a","1",""
"null","","html-keyboard-response","71","239022","0.0-4.0-2.10","","<div style=""font-size:60px;"">+</div>","null","","","","","","",""
"null","","image-keyboard-response","72","240525","0.0-4.0-0.11","","img/purple.png","null","trial","null","true","0.2,0.8","2:nogo_b","",""
"null","","html-keyboard-response","73","241539","0.0-4.0-1.11","","<img src=""img/purple-r.png"">","null","trial","null","","0.2,0.8","2:nogo_b","1",""
"null","","html-keyboard-response","74","242541","0.0-4.0-2.11","","<div style=""font-size:60px;"">+</div>","null","","","","","","",""
"442.50499999907333","","image-keyboard-response","75","242985","0.0-4.0-0.12","","img/purple.png","32","trial","null","false","0.2,0.8","2:nogo_b","",""
"null","","html-keyboard-response","76","243988","0.0-4.0-1.12","","<img src=""img/purple-n.png"" border=""10"">","null","trial","null","","0.2,0.8","2:nogo_b","0",""
"null","","html-keyboard-response","77","244992","0.0-4.0-2.12","","<div style=""font-size:60px;"">+</div>","null","","","","","","",""
"450.2700000011828","","image-keyboard-response","78","245443","0.0-4.0-0.13","","img/blue.png","32","trial","32","true","0.8,0.2","1:go_a","",""
"null","","html-keyboard-response","79","246445","0.0-4.0-1.13","","<img src=""img/blue-n.png"" border=""10"">","null","trial","32","","0.8,0.2","1:go_a","0",""
"null","","html-keyboard-response","80","247447","0.0-4.0-2.13","","<div style=""font-size:60px;"">+</div>","null","","","","","","",""
"830.020000008517","","image-keyboard-response","81","248278","0.0-4.0-0.14","","img/purple.png","32","trial","null","false","0.2,0.8","2:nogo_b","",""
"null","","html-keyboard-response","82","249280","0.0-4.0-1.14","","<img src=""img/purple-n.png"" border=""10"">","null","trial","null","","0.2,0.8","2:nogo_b","0",""
"null","","html-keyboard-response","83","250281","0.0-4.0-2.14","","<div style=""font-size:60px;"">+</div>","null","","","","","","",""
"417.27499999979045","","image-keyboard-response","84","250699","0.0-4.0-0.15","","img/blue.png","32","trial","32","true","0.8,0.2","1:go_a","",""
"null","","html-keyboard-response","85","251701","0.0-4.0-1.15","","<img src=""img/blue-r.png"" border=""10"">","null","trial","32","","0.8,0.2","1:go_a","1",""
"null","","html-keyboard-response","86","252702","0.0-4.0-2.15","","<div style=""font-size:60px;"">+</div>","null","","","","","","",""
"728.6149999999907","","image-keyboard-response","87","253431","0.0-4.0-0.16","","img/blue.png","32","trial","32","true","0.8,0.2","1:go_a","",""
"null","","html-keyboard-response","88","254433","0.0-4.0-1.16","","<img src=""img/blue-r.png"" border=""10"">","null","trial","32","","0.8,0.2","1:go_a","1",""
"null","","html-keyboard-response","89","255435","0.0-4.0-2.16","","<div style=""font-size:60px;"">+</div>","null","","","","","","",""
"null","","image-keyboard-response","90","256937","0.0-4.0-0.17","","img/purple.png","null","trial","null","true","0.2,0.8","2:nogo_b","",""
"null","","html-keyboard-response","91","257940","0.0-4.0-1.17","","<img src=""img/purple-r.png"">","null","trial","null","","0.2,0.8","2:nogo_b","1",""
"null","","html-keyboard-response","92","258942","0.0-4.0-2.17","","<div style=""font-size:60px;"">+</div>","null","","","","","","",""
"400.6649999937508","","image-keyboard-response","93","259344","0.0-4.0-0.18","","img/blue.png","32","trial","32","true","0.8,0.2","1:go_a","",""
"null","","html-keyboard-response","94","260346","0.0-4.0-1.18","","<img src=""img/blue-r.png"" border=""10"">","null","trial","32","","0.8,0.2","1:go_a","1",""
"null","","html-keyboard-response","95","261347","0.0-4.0-2.18","","<div style=""font-size:60px;"">+</div>","null","","","","","","",""
"null","","image-keyboard-response","96","262863","0.0-4.0-0.19","","img/purple.png","null","trial","null","true","0.2,0.8","2:nogo_b","",""
"null","","html-keyboard-response","97","263865","0.0-4.0-1.19","","<img src=""img/purple-n.png"">","null","trial","null","","0.2,0.8","2:nogo_b","0",""
"null","","html-keyboard-response","98","264866","0.0-4.0-2.19","","<div style=""font-size:60px;"">+</div>","null","","","","","","",""
"null","","image-keyboard-response","99","266368","0.0-4.0-0.20","","img/purple.png","null","trial","null","true","0.2,0.8","2:nogo_b","",""
"null","","html-keyboard-response","100","267369","0.0-4.0-1.20","","<img src=""img/purple-r.png"">","null","trial","null","","0.2,0.8","2:nogo_b","1",""
"null","","html-keyboard-response","101","268370","0.0-4.0-2.20","","<div style=""font-size:60px;"">+</div>","null","","","","","","",""
"396.05500000470784","","image-keyboard-response","102","268767","0.0-4.0-0.21","","img/blue.png","32","trial","32","true","0.8,0.2","1:go_a","",""
"null","","html-keyboard-response","103","269769","0.0-4.0-1.21","","<img src=""img/blue-r.png"" border=""10"">","null","trial","32","","0.8,0.2","1:go_a","1",""
"null","","html-keyboard-response","104","270770","0.0-4.0-2.21","","<div style=""font-size:60px;"">+</div>","null","","","","","","",""
"null","","image-keyboard-response","105","272271","0.0-4.0-0.22","","img/purple.png","null","trial","null","true","0.2,0.8","2:nogo_b","",""
"null","","html-keyboard-response","106","273274","0.0-4.0-1.22","","<img src=""img/purple-r.png"">","null","trial","null","","0.2,0.8","2:nogo_b","1",""
"null","","html-keyboard-response","107","274277","0.0-4.0-2.22","","<div style=""font-size:60px;"">+</div>","null","","","","","","",""
"651.6649999975925","","image-keyboard-response","108","274929","0.0-4.0-0.23","","img/blue.png","32","trial","32","true","0.8,0.2","1:go_a","",""
"null","","html-keyboard-response","109","275931","0.0-4.0-1.23","","<img src=""img/blue-r.png"" border=""10"">","null","trial","32","","0.8,0.2","1:go_a","1",""
"null","","html-keyboard-response","110","276933","0.0-4.0-2.23","","<div style=""font-size:60px;"">+</div>","null","","","","","","",""
"562.194999991334","","image-keyboard-response","111","277496","0.0-4.0-0.24","","img/blue.png","32","trial","32","true","0.8,0.2","1:go_a","",""
"null","","html-keyboard-response","112","278499","0.0-4.0-1.24","","<img src=""img/blue-r.png"" border=""10"">","null","trial","32","","0.8,0.2","1:go_a","1",""
"null","","html-keyboard-response","113","279501","0.0-4.0-2.24","","<div style=""font-size:60px;"">+</div>","null","","","","","","",""
"747.3100000061095","","image-keyboard-response","114","280248","0.0-4.0-0.25","","img/purple.png","32","trial","null","false","0.2,0.8","2:nogo_b","",""
"null","","html-keyboard-response","115","281251","0.0-4.0-1.25","","<img src=""img/purple-n.png"" border=""10"">","null","trial","null","","0.2,0.8","2:nogo_b","0",""
"null","","html-keyboard-response","116","282253","0.0-4.0-2.25","","<div style=""font-size:60px;"">+</div>","null","","","","","","",""
"558.2900000008522","","image-keyboard-response","117","282812","0.0-4.0-0.26","","img/blue.png","32","trial","32","true","0.8,0.2","1:go_a","",""
"null","","html-keyboard-response","118","283815","0.0-4.0-1.26","","<img src=""img/blue-r.png"" border=""10"">","null","trial","32","","0.8,0.2","1:go_a","1",""
"null","","html-keyboard-response","119","284818","0.0-4.0-2.26","","<div style=""font-size:60px;"">+</div>","null","","","","","","",""
"null","","image-keyboard-response","120","286320","0.0-4.0-0.27","","img/purple.png","null","trial","null","true","0.2,0.8","2:nogo_b","",""
"null","","html-keyboard-response","121","287327","0.0-4.0-1.27","","<img src=""img/purple-r.png"">","null","trial","null","","0.2,0.8","2:nogo_b","1",""
"null","","html-keyboard-response","122","288344","0.0-4.0-2.27","","<div style=""font-size:60px;"">+</div>","null","","","","","","",""
"null","","image-keyboard-response","123","289845","0.0-4.0-0.28","","img/purple.png","null","trial","null","true","0.2,0.8","2:nogo_b","",""
"null","","html-keyboard-response","124","290846","0.0-4.0-1.28","","<img src=""img/purple-n.png"">","null","trial","null","","0.2,0.8","2:nogo_b","0",""
"null","","html-keyboard-response","125","291848","0.0-4.0-2.28","","<div style=""font-size:60px;"">+</div>","null","","","","","","",""
"447.9250000003958","","image-keyboard-response","126","292296","0.0-4.0-0.29","","img/blue.png","32","trial","32","true","0.8,0.2","1:go_a","",""
"null","","html-keyboard-response","127","293298","0.0-4.0-1.29","","<img src=""img/blue-r.png"" border=""10"">","null","trial","32","","0.8,0.2","1:go_a","1",""
"null","","html-keyboard-response","128","294299","0.0-4.0-2.29","","<div style=""font-size:60px;"">+</div>","null","","","","","","",""
"566.1050000053365","","image-keyboard-response","129","294866","0.0-4.0-0.30","","img/blue.png","32","trial","32","true","0.8,0.2","1:go_a","",""
"null","","html-keyboard-response","130","295868","0.0-4.0-1.30","","<img src=""img/blue-r.png"" border=""10"">","null","trial","32","","0.8,0.2","1:go_a","1",""
"null","","html-keyboard-response","131","296870","0.0-4.0-2.30","","<div style=""font-size:60px;"">+</div>","null","","","","","","",""
"null","","image-keyboard-response","132","298390","0.0-4.0-0.31","","img/purple.png","null","trial","null","true","0.2,0.8","2:nogo_b","",""
"null","","html-keyboard-response","133","299395","0.0-4.0-1.31","","<img src=""img/purple-r.png"">","null","trial","null","","0.2,0.8","2:nogo_b","1",""
"null","","html-keyboard-response","134","300396","0.0-4.0-2.31","","<div style=""font-size:60px;"">+</div>","null","","","","","","",""
"436.2200000032317","","image-keyboard-response","135","300833","0.0-4.0-0.32","","img/blue.png","32","trial","32","true","0.8,0.2","1:go_a","",""
"null","","html-keyboard-response","136","301835","0.0-4.0-1.32","","<img src=""img/blue-r.png"" border=""10"">","null","trial","32","","0.8,0.2","1:go_a","1",""
"null","","html-keyboard-response","137","302837","0.0-4.0-2.32","","<div style=""font-size:60px;"">+</div>","null","","","","","","",""
"null","","image-keyboard-response","138","304338","0.0-4.0-0.33","","img/purple.png","null","trial","null","true","0.2,0.8","2:nogo_b","",""
"null","","html-keyboard-response","139","305343","0.0-4.0-1.33","","<img src=""img/purple-r.png"">","null","trial","null","","0.2,0.8","2:nogo_b","1",""
"null","","html-keyboard-response","140","306345","0.0-4.0-2.33","","<div style=""font-size:60px;"">+</div>","null","","","","","","",""
"347.3399999929825","","image-keyboard-response","141","306693","0.0-4.0-0.34","","img/blue.png","32","trial","32","true","0.8,0.2","1:go_a","",""
"null","","html-keyboard-response","142","307708","0.0-4.0-1.34","","<img src=""img/blue-r.png"" border=""10"">","null","trial","32","","0.8,0.2","1:go_a","1",""
"null","","html-keyboard-response","143","308710","0.0-4.0-2.34","","<div style=""font-size:60px;"">+</div>","null","","","","","","",""
"null","","image-keyboard-response","144","310212","0.0-4.0-0.35","","img/purple.png","null","trial","null","true","0.2,0.8","2:nogo_b","",""
"null","","html-keyboard-response","145","311215","0.0-4.0-1.35","","<img src=""img/purple-r.png"">","null","trial","null","","0.2,0.8","2:nogo_b","1",""
"null","","html-keyboard-response","146","312217","0.0-4.0-2.35","","<div style=""font-size:60px;"">+</div>","null","","","","","","",""
"748.7649999966379","","image-keyboard-response","147","312966","0.0-4.0-0.36","","img/purple.png","32","trial","null","false","0.2,0.8","2:nogo_b","",""
"null","","html-keyboard-response","148","313969","0.0-4.0-1.36","","<img src=""img/purple-n.png"" border=""10"">","null","trial","null","","0.2,0.8","2:nogo_b","0",""
"null","","html-keyboard-response","149","314972","0.0-4.0-2.36","","<div style=""font-size:60px;"">+</div>","null","","","","","","",""
"443.2549999910407","","image-keyboard-response","150","315416","0.0-4.0-0.37","","img/blue.png","32","trial","32","true","0.8,0.2","1:go_a","",""
"null","","html-keyboard-response","151","316418","0.0-4.0-1.37","","<img src=""img/blue-r.png"" border=""10"">","null","trial","32","","0.8,0.2","1:go_a","1",""
"null","","html-keyboard-response","152","317420","0.0-4.0-2.37","","<div style=""font-size:60px;"">+</div>","null","","","","","","",""
"null","","image-keyboard-response","153","318922","0.0-4.0-0.38","","img/purple.png","null","trial","null","true","0.2,0.8","2:nogo_b","",""
"null","","html-keyboard-response","154","319925","0.0-4.0-1.38","","<img src=""img/purple-r.png"">","null","trial","null","","0.2,0.8","2:nogo_b","1",""
"null","","html-keyboard-response","155","320929","0.0-4.0-2.38","","<div style=""font-size:60px;"">+</div>","null","","","","","","",""
"392.4949999927776","","image-keyboard-response","156","321323","0.0-4.0-0.39","","img/blue.png","32","trial","32","true","0.8,0.2","1:go_a","",""
"null","","html-keyboard-response","157","322327","0.0-4.0-1.39","","<img src=""img/blue-r.png"" border=""10"">","null","trial","32","","0.8,0.2","1:go_a","1",""
"null","","html-keyboard-response","158","323328","0.0-4.0-2.39","","<div style=""font-size:60px;"">+</div>","null","","","","","","",""
"841.6350000043167","","image-keyboard-response","159","324171","0.0-4.0-0.40","","img/purple.png","32","trial","null","false","0.2,0.8","2:nogo_b","",""
"null","","html-keyboard-response","160","325173","0.0-4.0-1.40","","<img src=""img/purple-n.png"" border=""10"">","null","trial","null","","0.2,0.8","2:nogo_b","0",""
"null","","html-keyboard-response","161","326175","0.0-4.0-2.40","","<div style=""font-size:60px;"">+</div>","null","","","","","","",""
"359.7450000088429","","image-keyboard-response","162","326537","0.0-4.0-0.41","","img/blue.png","32","trial","32","true","0.8,0.2","1:go_a","",""
"null","","html-keyboard-response","163","327539","0.0-4.0-1.41","","<img src=""img/blue-r.png"" border=""10"">","null","trial","32","","0.8,0.2","1:go_a","1",""
"null","","html-keyboard-response","164","328541","0.0-4.0-2.41","","<div style=""font-size:60px;"">+</div>","null","","","","","","",""
"null","","image-keyboard-response","165","330044","0.0-4.0-0.42","","img/purple.png","null","trial","null","true","0.2,0.8","2:nogo_b","",""
"null","","html-keyboard-response","166","331047","0.0-4.0-1.42","","<img src=""img/purple-r.png"">","null","trial","null","","0.2,0.8","2:nogo_b","1",""
"null","","html-keyboard-response","167","332048","0.0-4.0-2.42","","<div style=""font-size:60px;"">+</div>","null","","","","","","",""
"616.9149999914225","","image-keyboard-response","168","332666","0.0-4.0-0.43","","img/blue.png","32","trial","32","true","0.8,0.2","1:go_a","",""
"null","","html-keyboard-response","169","333669","0.0-4.0-1.43","","<img src=""img/blue-r.png"" border=""10"">","null","trial","32","","0.8,0.2","1:go_a","1",""
"null","","html-keyboard-response","170","334671","0.0-4.0-2.43","","<div style=""font-size:60px;"">+</div>","null","","","","","","",""
"484.2800000042189","","image-keyboard-response","171","335156","0.0-4.0-0.44","","img/blue.png","32","trial","32","true","0.8,0.2","1:go_a","",""
"null","","html-keyboard-response","172","336171","0.0-4.0-1.44","","<img src=""img/blue-r.png"" border=""10"">","null","trial","32","","0.8,0.2","1:go_a","1",""
"null","","html-keyboard-response","173","337178","0.0-4.0-2.44","","<div style=""font-size:60px;"">+</div>","null","","","","","","",""
"null","","image-keyboard-response","174","338680","0.0-4.0-0.45","","img/purple.png","null","trial","null","true","0.2,0.8","2:nogo_b","",""
"null","","html-keyboard-response","175","339683","0.0-4.0-1.45","","<img src=""img/purple-r.png"">","null","trial","null","","0.2,0.8","2:nogo_b","1",""
"null","","html-keyboard-response","176","340684","0.0-4.0-2.45","","<div style=""font-size:60px;"">+</div>","null","","","","","","",""
"null","","image-keyboard-response","177","342185","0.0-4.0-0.46","","img/purple.png","null","trial","null","true","0.2,0.8","2:nogo_b","",""
"null","","html-keyboard-response","178","343187","0.0-4.0-1.46","","<img src=""img/purple-r.png"">","null","trial","null","","0.2,0.8","2:nogo_b","1",""
"null","","html-keyboard-response","179","344188","0.0-4.0-2.46","","<div style=""font-size:60px;"">+</div>","null","","","","","","",""
"689.2549999902258","","image-keyboard-response","180","344878","0.0-4.0-0.47","","img/blue.png","32","trial","32","true","0.8,0.2","1:go_a","",""
"null","","html-keyboard-response","181","345880","0.0-4.0-1.47","","<img src=""img/blue-r.png"" border=""10"">","null","trial","32","","0.8,0.2","1:go_a","1",""
"null","","html-keyboard-response","182","346881","0.0-4.0-2.47","","<div style=""font-size:60px;"">+</div>","null","","","","","","",""
"null","","image-keyboard-response","183","348384","0.0-4.0-0.48","","img/blue.png","null","trial","32","false","0.8,0.2","1:go_a","",""
"null","","html-keyboard-response","184","349386","0.0-4.0-1.48","","<img src=""img/blue-n.png"">","null","trial","32","","0.8,0.2","1:go_a","0",""
"null","","html-keyboard-response","185","350388","0.0-4.0-2.48","","<div style=""font-size:60px;"">+</div>","null","","","","","","",""
"1114.0849999937927","","image-keyboard-response","186","351503","0.0-4.0-0.49","","img/purple.png","32","trial","null","false","0.2,0.8","2:nogo_b","",""
"null","","html-keyboard-response","187","352505","0.0-4.0-1.49","","<img src=""img/purple-n.png"" border=""10"">","null","trial","null","","0.2,0.8","2:nogo_b","0",""
"null","","html-keyboard-response","188","353507","0.0-4.0-2.49","","<div style=""font-size:60px;"">+</div>","null","","","","","","",""
"null","","image-keyboard-response","189","355009","0.0-4.0-0.50","","img/purple.png","null","trial","null","true","0.2,0.8","2:nogo_b","",""
"null","","html-keyboard-response","190","356012","0.0-4.0-1.50","","<img src=""img/purple-r.png"">","null","trial","null","","0.2,0.8","2:nogo_b","1",""
"null","","html-keyboard-response","191","357015","0.0-4.0-2.50","","<div style=""font-size:60px;"">+</div>","null","","","","","","",""
"483.3749999961583","","image-keyboard-response","192","357499","0.0-4.0-0.51","","img/blue.png","32","trial","32","true","0.8,0.2","1:go_a","",""
"null","","html-keyboard-response","193","358501","0.0-4.0-1.51","","<img src=""img/blue-r.png"" border=""10"">","null","trial","32","","0.8,0.2","1:go_a","1",""
"null","","html-keyboard-response","194","359502","0.0-4.0-2.51","","<div style=""font-size:60px;"">+</div>","null","","","","","","",""
"null","","image-keyboard-response","195","361003","0.0-4.0-0.52","","img/purple.png","null","trial","null","true","0.2,0.8","2:nogo_b","",""
"null","","html-keyboard-response","196","362004","0.0-4.0-1.52","","<img src=""img/purple-r.png"">","null","trial","null","","0.2,0.8","2:nogo_b","1",""
"null","","html-keyboard-response","197","363006","0.0-4.0-2.52","","<div style=""font-size:60px;"">+</div>","null","","","","","","",""
"325.11999999405816","","image-keyboard-response","198","363332","0.0-4.0-0.53","","img/blue.png","32","trial","32","true","0.8,0.2","1:go_a","",""
"null","","html-keyboard-response","199","364334","0.0-4.0-1.53","","<img src=""img/blue-r.png"" border=""10"">","null","trial","32","","0.8,0.2","1:go_a","1",""
"null","","html-keyboard-response","200","365336","0.0-4.0-2.53","","<div style=""font-size:60px;"">+</div>","null","","","","","","",""
"null","","image-keyboard-response","201","366838","0.0-4.0-0.54","","img/purple.png","null","trial","null","true","0.2,0.8","2:nogo_b","",""
"null","","html-keyboard-response","202","367840","0.0-4.0-1.54","","<img src=""img/purple-r.png"">","null","trial","null","","0.2,0.8","2:nogo_b","1",""
"null","","html-keyboard-response","203","368841","0.0-4.0-2.54","","<div style=""font-size:60px;"">+</div>","null","","","","","","",""
"323.8500000006752","","image-keyboard-response","204","369165","0.0-4.0-0.55","","img/blue.png","32","trial","32","true","0.8,0.2","1:go_a","",""
"null","","html-keyboard-response","205","370167","0.0-4.0-1.55","","<img src=""img/blue-n.png"" border=""10"">","null","trial","32","","0.8,0.2","1:go_a","0",""
"null","","html-keyboard-response","206","371168","0.0-4.0-2.55","","<div style=""font-size:60px;"">+</div>","null","","","","","","",""
"511.39500000863336","","image-keyboard-response","207","371681","0.0-4.0-0.56","","img/purple.png","32","trial","null","false","0.2,0.8","2:nogo_b","",""
"null","","html-keyboard-response","208","372683","0.0-4.0-1.56","","<img src=""img/purple-n.png"" border=""10"">","null","trial","null","","0.2,0.8","2:nogo_b","0",""
"null","","html-keyboard-response","209","373685","0.0-4.0-2.56","","<div style=""font-size:60px;"">+</div>","null","","","","","","",""
"361.6499999916414","","image-keyboard-response","210","374047","0.0-4.0-0.57","","img/blue.png","32","trial","32","true","0.8,0.2","1:go_a","",""
"null","","html-keyboard-response","211","375050","0.0-4.0-1.57","","<img src=""img/blue-r.png"" border=""10"">","null","trial","32","","0.8,0.2","1:go_a","1",""
"null","","html-keyboard-response","212","376053","0.0-4.0-2.57","","<div style=""font-size:60px;"">+</div>","null","","","","","","",""
"418.34499999822583","","image-keyboard-response","213","376472","0.0-4.0-0.58","","img/blue.png","32","trial","32","true","0.8,0.2","1:go_a","",""
"null","","html-keyboard-response","214","377474","0.0-4.0-1.58","","<img src=""img/blue-r.png"" border=""10"">","null","trial","32","","0.8,0.2","1:go_a","1",""
"null","","html-keyboard-response","215","378477","0.0-4.0-2.58","","<div style=""font-size:60px;"">+</div>","null","","","","","","",""
"null","","image-keyboard-response","216","379979","0.0-4.0-0.59","","img/purple.png","null","trial","null","true","0.2,0.8","2:nogo_b","",""
"null","","html-keyboard-response","217","380982","0.0-4.0-1.59","","<img src=""img/purple-r.png"">","null","trial","null","","0.2,0.8","2:nogo_b","1",""
"null","","html-keyboard-response","218","381984","0.0-4.0-2.59","","<div style=""font-size:60px;"">+</div>","null","","","","","","",""
"6529.454999996233","","instructions","219","388514","0.0-5.0","[{""page_index"":0,""viewing_time"":6528.995000000577}]","","","","","","","","",""
"null","","image-keyboard-response","220","390016","0.0-6.0-0.0","","img/yellow.png","null","trial","32","false","0.8,0.2","1:go_a","",""
"null","","html-keyboard-response","221","391020","0.0-6.0-1.0","","<img src=""img/yellow-r.png"">","null","trial","32","","0.8,0.2","1:go_a","1",""
"null","","html-keyboard-response","222","392022","0.0-6.0-2.0","","<div style=""font-size:60px;"">+</div>","null","","","","","","",""
"407.4350000009872","","image-keyboard-response","223","392430","0.0-6.0-0.1","","img/green.png","32","trial","null","false","0.2,0.8","2:nogo_b","",""
"null","","html-keyboard-response","224","393432","0.0-6.0-1.1","","<img src=""img/green-n.png"" border=""10"">","null","trial","null","","0.2,0.8","2:nogo_b","0",""
"null","","html-keyboard-response","225","394433","0.0-6.0-2.1","","<div style=""font-size:60px;"">+</div>","null","","","","","","",""
"462.3800000117626","","image-keyboard-response","226","394896","0.0-6.0-0.2","","img/pink.png","32","trial","32","true","1,0","3:go_c","",""
"null","","html-keyboard-response","227","395899","0.0-6.0-1.2","","<img src=""img/pink-r.png"" border=""10"">","null","trial","32","","1,0","3:go_c","1",""
"null","","html-keyboard-response","228","396900","0.0-6.0-2.2","","<div style=""font-size:60px;"">+</div>","null","","","","","","",""
"605.1900000020396","","image-keyboard-response","229","397506","0.0-6.0-0.3","","img/purple.png","32","trial","null","false","0,1","4:nogo_d","",""
"null","","html-keyboard-response","230","398509","0.0-6.0-1.3","","<img src=""img/purple-n.png"" border=""10"">","null","trial","null","","0,1","4:nogo_d","0",""
"null","","html-keyboard-response","231","399513","0.0-6.0-2.3","","<div style=""font-size:60px;"">+</div>","null","","","","","","",""
"null","","image-keyboard-response","232","401022","0.0-6.0-0.4","","img/purple.png","null","trial","null","true","0,1","4:nogo_d","",""
"null","","html-keyboard-response","233","402024","0.0-6.0-1.4","","<img src=""img/purple-r.png"">","null","trial","null","","0,1","4:nogo_d","1",""
"null","","html-keyboard-response","234","403025","0.0-6.0-2.4","","<div style=""font-size:60px;"">+</div>","null","","","","","","",""
"647.2650000068825","","image-keyboard-response","235","403673","0.0-6.0-0.5","","img/green.png","32","trial","null","false","0.2,0.8","2:nogo_b","",""
"null","","html-keyboard-response","236","404676","0.0-6.0-1.5","","<img src=""img/green-n.png"" border=""10"">","null","trial","null","","0.2,0.8","2:nogo_b","0",""
"null","","html-keyboard-response","237","405676","0.0-6.0-2.5","","<div style=""font-size:60px;"">+</div>","null","","","","","","",""
"469.3950000073528","","image-keyboard-response","238","406146","0.0-6.0-0.6","","img/yellow.png","32","trial","32","true","0.8,0.2","1:go_a","",""
"null","","html-keyboard-response","239","407148","0.0-6.0-1.6","","<img src=""img/yellow-r.png"" border=""10"">","null","trial","32","","0.8,0.2","1:go_a","1",""
"null","","html-keyboard-response","240","408150","0.0-6.0-2.6","","<div style=""font-size:60px;"">+</div>","null","","","","","","",""
"561.8600000016158","","image-keyboard-response","241","408712","0.0-6.0-0.7","","img/pink.png","32","trial","32","true","1,0","3:go_c","",""
"null","","html-keyboard-response","242","409718","0.0-6.0-1.7","","<img src=""img/pink-r.png"" border=""10"">","null","trial","32","","1,0","3:go_c","1",""
"null","","html-keyboard-response","243","410720","0.0-6.0-2.7","","<div style=""font-size:60px;"">+</div>","null","","","","","","",""
"null","","image-keyboard-response","244","412221","0.0-6.0-0.8","","img/green.png","null","trial","null","true","0.2,0.8","2:nogo_b","",""
"null","","html-keyboard-response","245","413223","0.0-6.0-1.8","","<img src=""img/green-r.png"">","null","trial","null","","0.2,0.8","2:nogo_b","1",""
"null","","html-keyboard-response","246","414225","0.0-6.0-2.8","","<div style=""font-size:60px;"">+</div>","null","","","","","","",""
"633.4650000062538","","image-keyboard-response","247","414860","0.0-6.0-0.9","","img/pink.png","32","trial","32","true","1,0","3:go_c","",""
"null","","html-keyboard-response","248","415863","0.0-6.0-1.9","","<img src=""img/pink-r.png"" border=""10"">","null","trial","32","","1,0","3:go_c","1",""
"null","","html-keyboard-response","249","416873","0.0-6.0-2.9","","<div style=""font-size:60px;"">+</div>","null","","","","","","",""
"null","","image-keyboard-response","250","418374","0.0-6.0-0.10","","img/purple.png","null","trial","null","true","0,1","4:nogo_d","",""
"null","","html-keyboard-response","251","419377","0.0-6.0-1.10","","<img src=""img/purple-r.png"">","null","trial","null","","0,1","4:nogo_d","1",""
"null","","html-keyboard-response","252","420382","0.0-6.0-2.10","","<div style=""font-size:60px;"">+</div>","null","","","","","","",""
"365.3699999995297","","image-keyboard-response","253","420748","0.0-6.0-0.11","","img/yellow.png","32","trial","32","true","0.8,0.2","1:go_a","",""
"null","","html-keyboard-response","254","421751","0.0-6.0-1.11","","<img src=""img/yellow-r.png"" border=""10"">","null","trial","32","","0.8,0.2","1:go_a","1",""
"null","","html-keyboard-response","255","422752","0.0-6.0-2.11","","<div style=""font-size:60px;"">+</div>","null","","","","","","",""
"null","","image-keyboard-response","256","424254","0.0-6.0-0.12","","img/green.png","null","trial","null","true","0.2,0.8","2:nogo_b","",""
"null","","html-keyboard-response","257","425256","0.0-6.0-1.12","","<img src=""img/green-r.png"">","null","trial","null","","0.2,0.8","2:nogo_b","1",""
"null","","html-keyboard-response","258","426257","0.0-6.0-2.12","","<div style=""font-size:60px;"">+</div>","null","","","","","","",""
"467.7900000096997","","image-keyboard-response","259","426726","0.0-6.0-0.13","","img/yellow.png","32","trial","32","true","0.8,0.2","1:go_a","",""
"null","","html-keyboard-response","260","427729","0.0-6.0-1.13","","<img src=""img/yellow-r.png"" border=""10"">","null","trial","32","","0.8,0.2","1:go_a","1",""
"null","","html-keyboard-response","261","428731","0.0-6.0-2.13","","<div style=""font-size:60px;"">+</div>","null","","","","","","",""
"399.09000000625383","","image-keyboard-response","262","429131","0.0-6.0-0.14","","img/pink.png","32","trial","32","true","1,0","3:go_c","",""
"null","","html-keyboard-response","263","430133","0.0-6.0-1.14","","<img src=""img/pink-r.png"" border=""10"">","null","trial","32","","1,0","3:go_c","1",""
"null","","html-keyboard-response","264","431135","0.0-6.0-2.14","","<div style=""font-size:60px;"">+</div>","null","","","","","","",""
"null","","image-keyboard-response","265","432636","0.0-6.0-0.15","","img/purple.png","null","trial","null","true","0,1","4:nogo_d","",""
"null","","html-keyboard-response","266","433637","0.0-6.0-1.15","","<img src=""img/purple-r.png"">","null","trial","null","","0,1","4:nogo_d","1",""
"null","","html-keyboard-response","267","434644","0.0-6.0-2.15","","<div style=""font-size:60px;"">+</div>","null","","","","","","",""
"638.9499999932013","","image-keyboard-response","268","435284","0.0-6.0-0.16","","img/purple.png","32","trial","null","false","0,1","4:nogo_d","",""
"null","","html-keyboard-response","269","436286","0.0-6.0-1.16","","<img src=""img/purple-n.png"" border=""10"">","null","trial","null","","0,1","4:nogo_d","0",""
"null","","html-keyboard-response","270","437288","0.0-6.0-2.16","","<div style=""font-size:60px;"">+</div>","null","","","","","","",""
"350.8750000037253","","image-keyboard-response","271","437639","0.0-6.0-0.17","","img/yellow.png","32","trial","32","true","0.8,0.2","1:go_a","",""
"null","","html-keyboard-response","272","438646","0.0-6.0-1.17","","<img src=""img/yellow-r.png"" border=""10"">","null","trial","32","","0.8,0.2","1:go_a","1",""
"null","","html-keyboard-response","273","439648","0.0-6.0-2.17","","<div style=""font-size:60px;"">+</div>","null","","","","","","",""
"null","","image-keyboard-response","274","441150","0.0-6.0-0.18","","img/green.png","null","trial","null","true","0.2,0.8","2:nogo_b","",""
"null","","html-keyboard-response","275","442151","0.0-6.0-1.18","","<img src=""img/green-n.png"">","null","trial","null","","0.2,0.8","2:nogo_b","0",""
"null","","html-keyboard-response","276","443152","0.0-6.0-2.18","","<div style=""font-size:60px;"">+</div>","null","","","","","","",""
"836.3099999987753","","image-keyboard-response","277","443990","0.0-6.0-0.19","","img/pink.png","32","trial","32","true","1,0","3:go_c","",""
"null","","html-keyboard-response","278","444993","0.0-6.0-1.19","","<img src=""img/pink-r.png"" border=""10"">","null","trial","32","","1,0","3:go_c","1",""
"null","","html-keyboard-response","279","445995","0.0-6.0-2.19","","<div style=""font-size:60px;"">+</div>","null","","","","","","",""
"null","","image-keyboard-response","280","447497","0.0-6.0-0.20","","img/purple.png","null","trial","null","true","0,1","4:nogo_d","",""
"null","","html-keyboard-response","281","448500","0.0-6.0-1.20","","<img src=""img/purple-r.png"">","null","trial","null","","0,1","4:nogo_d","1",""
"null","","html-keyboard-response","282","449502","0.0-6.0-2.20","","<div style=""font-size:60px;"">+</div>","null","","","","","","",""
"880.6699999986449","","image-keyboard-response","283","450384","0.0-6.0-0.21","","img/green.png","32","trial","null","false","0.2,0.8","2:nogo_b","",""
"null","","html-keyboard-response","284","451386","0.0-6.0-1.21","","<img src=""img/green-n.png"" border=""10"">","null","trial","null","","0.2,0.8","2:nogo_b","0",""
"null","","html-keyboard-response","285","452388","0.0-6.0-2.21","","<div style=""font-size:60px;"">+</div>","null","","","","","","",""
"653.1799999938812","","image-keyboard-response","286","453041","0.0-6.0-0.22","","img/pink.png","32","trial","32","true","1,0","3:go_c","",""
"null","","html-keyboard-response","287","454044","0.0-6.0-1.22","","<img src=""img/pink-r.png"" border=""10"">","null","trial","32","","1,0","3:go_c","1",""
"null","","html-keyboard-response","288","455046","0.0-6.0-2.22","","<div style=""font-size:60px;"">+</div>","null","","","","","","",""
"446.9200000021374","","image-keyboard-response","289","455497","0.0-6.0-0.23","","img/yellow.png","32","trial","32","true","0.8,0.2","1:go_a","",""
"null","","html-keyboard-response","290","456500","0.0-6.0-1.23","","<img src=""img/yellow-r.png"" border=""10"">","null","trial","32","","0.8,0.2","1:go_a","1",""
"null","","html-keyboard-response","291","457503","0.0-6.0-2.23","","<div style=""font-size:60px;"">+</div>","null","","","","","","",""
"674.8950000037439","","image-keyboard-response","292","458179","0.0-6.0-0.24","","img/pink.png","32","trial","32","true","1,0","3:go_c","",""
"null","","html-keyboard-response","293","459183","0.0-6.0-1.24","","<img src=""img/pink-r.png"" border=""10"">","null","trial","32","","1,0","3:go_c","1",""
"null","","html-keyboard-response","294","460184","0.0-6.0-2.24","","<div style=""font-size:60px;"">+</div>","null","","","","","","",""
"null","","image-keyboard-response","295","461687","0.0-6.0-0.25","","img/green.png","null","trial","null","true","0.2,0.8","2:nogo_b","",""
"null","","html-keyboard-response","296","462689","0.0-6.0-1.25","","<img src=""img/green-r.png"">","null","trial","null","","0.2,0.8","2:nogo_b","1",""
"null","","html-keyboard-response","297","463691","0.0-6.0-2.25","","<div style=""font-size:60px;"">+</div>","null","","","","","","",""
"414.53499998897314","","image-keyboard-response","298","464106","0.0-6.0-0.26","","img/yellow.png","32","trial","32","true","0.8,0.2","1:go_a","",""
"null","","html-keyboard-response","299","465109","0.0-6.0-1.26","","<img src=""img/yellow-n.png"" border=""10"">","null","trial","32","","0.8,0.2","1:go_a","0",""
"null","","html-keyboard-response","300","466110","0.0-6.0-2.26","","<div style=""font-size:60px;"">+</div>","null","","","","","","",""
"null","","image-keyboard-response","301","467613","0.0-6.0-0.27","","img/purple.png","null","trial","null","true","0,1","4:nogo_d","",""
"null","","html-keyboard-response","302","468615","0.0-6.0-1.27","","<img src=""img/purple-r.png"">","null","trial","null","","0,1","4:nogo_d","1",""
"null","","html-keyboard-response","303","469617","0.0-6.0-2.27","","<div style=""font-size:60px;"">+</div>","null","","","","","","",""
"423.6699999892153","","image-keyboard-response","304","470042","0.0-6.0-0.28","","img/purple.png","32","trial","null","false","0,1","4:nogo_d","",""
"null","","html-keyboard-response","305","471044","0.0-6.0-1.28","","<img src=""img/purple-n.png"" border=""10"">","null","trial","null","","0,1","4:nogo_d","0",""
"null","","html-keyboard-response","306","472046","0.0-6.0-2.28","","<div style=""font-size:60px;"">+</div>","null","","","","","","",""
"510.28000000223983","","image-keyboard-response","307","472560","0.0-6.0-0.29","","img/yellow.png","32","trial","32","true","0.8,0.2","1:go_a","",""
"null","","html-keyboard-response","308","473562","0.0-6.0-1.29","","<img src=""img/yellow-n.png"" border=""10"">","null","trial","32","","0.8,0.2","1:go_a","0",""
"null","","html-keyboard-response","309","474566","0.0-6.0-2.29","","<div style=""font-size:60px;"">+</div>","null","","","","","","",""
"null","","image-keyboard-response","310","476068","0.0-6.0-0.30","","img/green.png","null","trial","null","true","0.2,0.8","2:nogo_b","",""
"null","","html-keyboard-response","311","477070","0.0-6.0-1.30","","<img src=""img/green-r.png"">","null","trial","null","","0.2,0.8","2:nogo_b","1",""
"null","","html-keyboard-response","312","478073","0.0-6.0-2.30","","<div style=""font-size:60px;"">+</div>","null","","","","","","",""
"385.3850000014063","","image-keyboard-response","313","478459","0.0-6.0-0.31","","img/pink.png","32","trial","32","true","1,0","3:go_c","",""
"null","","html-keyboard-response","314","479461","0.0-6.0-1.31","","<img src=""img/pink-r.png"" border=""10"">","null","trial","32","","1,0","3:go_c","1",""
"null","","html-keyboard-response","315","480463","0.0-6.0-2.31","","<div style=""font-size:60px;"">+</div>","null","","","","","","",""
"677.9300000052899","","image-keyboard-response","316","481143","0.0-6.0-0.32","","img/yellow.png","32","trial","32","true","0.8,0.2","1:go_a","",""
"null","","html-keyboard-response","317","482147","0.0-6.0-1.32","","<img src=""img/yellow-r.png"" border=""10"">","null","trial","32","","0.8,0.2","1:go_a","1",""
"null","","html-keyboard-response","318","483149","0.0-6.0-2.32","","<div style=""font-size:60px;"">+</div>","null","","","","","","",""
"759.0450000134297","","image-keyboard-response","319","483909","0.0-6.0-0.33","","img/green.png","32","trial","null","false","0.2,0.8","2:nogo_b","",""
"null","","html-keyboard-response","320","484911","0.0-6.0-1.33","","<img src=""img/green-r.png"" border=""10"">","null","trial","null","","0.2,0.8","2:nogo_b","1",""
"null","","html-keyboard-response","321","485914","0.0-6.0-2.33","","<div style=""font-size:60px;"">+</div>","null","","","","","","",""
"585.9400000044843","","image-keyboard-response","322","486501","0.0-6.0-0.34","","img/pink.png","32","trial","32","true","1,0","3:go_c","",""
"null","","html-keyboard-response","323","487505","0.0-6.0-1.34","","<img src=""img/pink-r.png"" border=""10"">","null","trial","32","","1,0","3:go_c","1",""
"null","","html-keyboard-response","324","488507","0.0-6.0-2.34","","<div style=""font-size:60px;"">+</div>","null","","","","","","",""
"508.86000000173226","","image-keyboard-response","325","489016","0.0-6.0-0.35","","img/purple.png","32","trial","null","false","0,1","4:nogo_d","",""
"null","","html-keyboard-response","326","490019","0.0-6.0-1.35","","<img src=""img/purple-n.png"" border=""10"">","null","trial","null","","0,1","4:nogo_d","0",""
"null","","html-keyboard-response","327","491022","0.0-6.0-2.35","","<div style=""font-size:60px;"">+</div>","null","","","","","","",""
"490.33000000054017","","image-keyboard-response","328","491513","0.0-6.0-0.36","","img/yellow.png","32","trial","32","true","0.8,0.2","1:go_a","",""
"null","","html-keyboard-response","329","492516","0.0-6.0-1.36","","<img src=""img/yellow-r.png"" border=""10"">","null","trial","32","","0.8,0.2","1:go_a","1",""
"null","","html-keyboard-response","330","493532","0.0-6.0-2.36","","<div style=""font-size:60px;"">+</div>","null","","","","","","",""
"598.7049999966985","","image-keyboard-response","331","494132","0.0-6.0-0.37","","img/pink.png","32","trial","32","true","1,0","3:go_c","",""
"null","","html-keyboard-response","332","495135","0.0-6.0-1.37","","<img src=""img/pink-r.png"" border=""10"">","null","trial","32","","1,0","3:go_c","1",""
"null","","html-keyboard-response","333","496137","0.0-6.0-2.37","","<div style=""font-size:60px;"">+</div>","null","","","","","","",""
"null","","image-keyboard-response","334","497639","0.0-6.0-0.38","","img/purple.png","null","trial","null","true","0,1","4:nogo_d","",""
"null","","html-keyboard-response","335","498642","0.0-6.0-1.38","","<img src=""img/purple-r.png"">","null","trial","null","","0,1","4:nogo_d","1",""
"null","","html-keyboard-response","336","499644","0.0-6.0-2.38","","<div style=""font-size:60px;"">+</div>","null","","","","","","",""
"770.8699999930104","","image-keyboard-response","337","500416","0.0-6.0-0.39","","img/green.png","32","trial","null","false","0.2,0.8","2:nogo_b","",""
"null","","html-keyboard-response","338","501418","0.0-6.0-1.39","","<img src=""img/green-n.png"" border=""10"">","null","trial","null","","0.2,0.8","2:nogo_b","0",""
"null","","html-keyboard-response","339","502420","0.0-6.0-2.39","","<div style=""font-size:60px;"">+</div>","null","","","","","","",""
"535.6200000096578","","image-keyboard-response","340","502957","0.0-6.0-0.40","","img/yellow.png","32","trial","32","true","0.8,0.2","1:go_a","",""
"null","","html-keyboard-response","341","503959","0.0-6.0-1.40","","<img src=""img/yellow-r.png"" border=""10"">","null","trial","32","","0.8,0.2","1:go_a","1",""
"null","","html-keyboard-response","342","504961","0.0-6.0-2.40","","<div style=""font-size:60px;"">+</div>","null","","","","","","",""
"808.7999999988824","","image-keyboard-response","343","505771","0.0-6.0-0.41","","img/purple.png","32","trial","null","false","0,1","4:nogo_d","",""
"null","","html-keyboard-response","344","506772","0.0-6.0-1.41","","<img src=""img/purple-n.png"" border=""10"">","null","trial","null","","0,1","4:nogo_d","0",""
"null","","html-keyboard-response","345","507774","0.0-6.0-2.41","","<div style=""font-size:60px;"">+</div>","null","","","","","","",""
"null","","image-keyboard-response","346","509276","0.0-6.0-0.42","","img/green.png","null","trial","null","true","0.2,0.8","2:nogo_b","",""
"null","","html-keyboard-response","347","510279","0.0-6.0-1.42","","<img src=""img/green-r.png"">","null","trial","null","","0.2,0.8","2:nogo_b","1",""
"null","","html-keyboard-response","348","511280","0.0-6.0-2.42","","<div style=""font-size:60px;"">+</div>","null","","","","","","",""
"419.5650000037858","","image-keyboard-response","349","511703","0.0-6.0-0.43","","img/pink.png","32","trial","32","true","1,0","3:go_c","",""
"null","","html-keyboard-response","350","512704","0.0-6.0-1.43","","<img src=""img/pink-r.png"" border=""10"">","null","trial","32","","1,0","3:go_c","1",""
"null","","html-keyboard-response","351","513707","0.0-6.0-2.43","","<div style=""font-size:60px;"">+</div>","null","","","","","","",""
"408.0099999991944","","image-keyboard-response","352","514116","0.0-6.0-0.44","","img/pink.png","32","trial","32","true","1,0","3:go_c","",""
"null","","html-keyboard-response","353","515119","0.0-6.0-1.44","","<img src=""img/pink-r.png"" border=""10"">","null","trial","32","","1,0","3:go_c","1",""
"null","","html-keyboard-response","354","516121","0.0-6.0-2.44","","<div style=""font-size:60px;"">+</div>","null","","","","","","",""
"523.2099999993807","","image-keyboard-response","355","516645","0.0-6.0-0.45","","img/yellow.png","32","trial","32","true","0.8,0.2","1:go_a","",""
"null","","html-keyboard-response","356","517649","0.0-6.0-1.45","","<img src=""img/yellow-r.png"" border=""10"">","null","trial","32","","0.8,0.2","1:go_a","1",""
"null","","html-keyboard-response","357","518652","0.0-6.0-2.45","","<div style=""font-size:60px;"">+</div>","null","","","","","","",""
"496.820000000298","","image-keyboard-response","358","519150","0.0-6.0-0.46","","img/purple.png","32","trial","null","false","0,1","4:nogo_d","",""
"null","","html-keyboard-response","359","520152","0.0-6.0-1.46","","<img src=""img/purple-n.png"" border=""10"">","null","trial","null","","0,1","4:nogo_d","0",""
"null","","html-keyboard-response","360","521154","0.0-6.0-2.46","","<div style=""font-size:60px;"">+</div>","null","","","","","","",""
"441.56000000657514","","image-keyboard-response","361","521597","0.0-6.0-0.47","","img/green.png","32","trial","null","false","0.2,0.8","2:nogo_b","",""
"null","","html-keyboard-response","362","522600","0.0-6.0-1.47","","<img src=""img/green-n.png"" border=""10"">","null","trial","null","","0.2,0.8","2:nogo_b","0",""
"null","","html-keyboard-response","363","523601","0.0-6.0-2.47","","<div style=""font-size:60px;"">+</div>","null","","","","","","",""
"514.8400000034599","","image-keyboard-response","364","524117","0.0-6.0-0.48","","img/pink.png","32","trial","32","true","1,0","3:go_c","",""
"null","","html-keyboard-response","365","525120","0.0-6.0-1.48","","<img src=""img/pink-r.png"" border=""10"">","null","trial","32","","1,0","3:go_c","1",""
"null","","html-keyboard-response","366","526122","0.0-6.0-2.48","","<div style=""font-size:60px;"">+</div>","null","","","","","","",""
"null","","image-keyboard-response","367","527624","0.0-6.0-0.49","","img/green.png","null","trial","null","true","0.2,0.8","2:nogo_b","",""
"null","","html-keyboard-response","368","528626","0.0-6.0-1.49","","<img src=""img/green-r.png"">","null","trial","null","","0.2,0.8","2:nogo_b","1",""
"null","","html-keyboard-response","369","529628","0.0-6.0-2.49","","<div style=""font-size:60px;"">+</div>","null","","","","","","",""
"417.4349999957485","","image-keyboard-response","370","530046","0.0-6.0-0.50","","img/yellow.png","32","trial","32","true","0.8,0.2","1:go_a","",""
"null","","html-keyboard-response","371","531050","0.0-6.0-1.50","","<img src=""img/yellow-r.png"" border=""10"">","null","trial","32","","0.8,0.2","1:go_a","1",""
"null","","html-keyboard-response","372","532052","0.0-6.0-2.50","","<div style=""font-size:60px;"">+</div>","null","","","","","","",""
"557.9499999876134","","image-keyboard-response","373","532611","0.0-6.0-0.51","","img/purple.png","32","trial","null","false","0,1","4:nogo_d","",""
"null","","html-keyboard-response","374","533613","0.0-6.0-1.51","","<img src=""img/purple-n.png"" border=""10"">","null","trial","null","","0,1","4:nogo_d","0",""
"null","","html-keyboard-response","375","534614","0.0-6.0-2.51","","<div style=""font-size:60px;"">+</div>","null","","","","","","",""
"742.0799999963492","","image-keyboard-response","376","535358","0.0-6.0-0.52","","img/purple.png","32","trial","null","false","0,1","4:nogo_d","",""
"null","","html-keyboard-response","377","536360","0.0-6.0-1.52","","<img src=""img/purple-n.png"" border=""10"">","null","trial","null","","0,1","4:nogo_d","0",""
"null","","html-keyboard-response","378","537362","0.0-6.0-2.52","","<div style=""font-size:60px;"">+</div>","null","","","","","","",""
"426.3150000042515","","image-keyboard-response","379","537789","0.0-6.0-0.53","","img/yellow.png","32","trial","32","true","0.8,0.2","1:go_a","",""
"null","","html-keyboard-response","380","538802","0.0-6.0-1.53","","<img src=""img/yellow-n.png"" border=""10"">","null","trial","32","","0.8,0.2","1:go_a","0",""
"null","","html-keyboard-response","381","539804","0.0-6.0-2.53","","<div style=""font-size:60px;"">+</div>","null","","","","","","",""
"480.3950000059558","","image-keyboard-response","382","540285","0.0-6.0-0.54","","img/pink.png","32","trial","32","true","1,0","3:go_c","",""
"null","","html-keyboard-response","383","541288","0.0-6.0-1.54","","<img src=""img/pink-r.png"" border=""10"">","null","trial","32","","1,0","3:go_c","1",""
"null","","html-keyboard-response","384","542290","0.0-6.0-2.54","","<div style=""font-size:60px;"">+</div>","null","","","","","","",""
"null","","image-keyboard-response","385","543791","0.0-6.0-0.55","","img/green.png","null","trial","null","true","0.2,0.8","2:nogo_b","",""
"null","","html-keyboard-response","386","544792","0.0-6.0-1.55","","<img src=""img/green-n.png"">","null","trial","null","","0.2,0.8","2:nogo_b","0",""
"null","","html-keyboard-response","387","545794","0.0-6.0-2.55","","<div style=""font-size:60px;"">+</div>","null","","","","","","",""
"478.8400000106776","","image-keyboard-response","388","546273","0.0-6.0-0.56","","img/pink.png","32","trial","32","true","1,0","3:go_c","",""
"null","","html-keyboard-response","389","547276","0.0-6.0-1.56","","<img src=""img/pink-r.png"" border=""10"">","null","trial","32","","1,0","3:go_c","1",""
"null","","html-keyboard-response","390","548277","0.0-6.0-2.56","","<div style=""font-size:60px;"">+</div>","null","","","","","","",""
"912.2649999917485","","image-keyboard-response","391","549191","0.0-6.0-0.57","","img/yellow.png","32","trial","32","true","0.8,0.2","1:go_a","",""
"null","","html-keyboard-response","392","550193","0.0-6.0-1.57","","<img src=""img/yellow-r.png"" border=""10"">","null","trial","32","","0.8,0.2","1:go_a","1",""
"null","","html-keyboard-response","393","551194","0.0-6.0-2.57","","<div style=""font-size:60px;"">+</div>","null","","","","","","",""
"null","","image-keyboard-response","394","552704","0.0-6.0-0.58","","img/purple.png","null","trial","null","true","0,1","4:nogo_d","",""
"null","","html-keyboard-response","395","553707","0.0-6.0-1.58","","<img src=""img/purple-r.png"">","null","trial","null","","0,1","4:nogo_d","1",""
"null","","html-keyboard-response","396","554711","0.0-6.0-2.58","","<div style=""font-size:60px;"">+</div>","null","","","","","","",""
"844.6899999980815","","image-keyboard-response","397","555557","0.0-6.0-0.59","","img/green.png","32","trial","null","false","0.2,0.8","2:nogo_b","",""
"null","","html-keyboard-response","398","556558","0.0-6.0-1.59","","<img src=""img/green-r.png"" border=""10"">","null","trial","null","","0.2,0.8","2:nogo_b","1",""
"null","","html-keyboard-response","399","557559","0.0-6.0-2.59","","<div style=""font-size:60px;"">+</div>","null","","","","","","",""
"502.43000000773463","","image-keyboard-response","400","558063","0.0-6.0-0.60","","img/yellow.png","32","trial","32","true","0.8,0.2","1:go_a","",""
"null","","html-keyboard-response","401","559065","0.0-6.0-1.60","","<img src=""img/yellow-r.png"" border=""10"">","null","trial","32","","0.8,0.2","1:go_a","1",""
"null","","html-keyboard-response","402","560068","0.0-6.0-2.60","","<div style=""font-size:60px;"">+</div>","null","","","","","","",""
"502.98999999358784","","image-keyboard-response","403","560572","0.0-6.0-0.61","","img/purple.png","32","trial","null","false","0,1","4:nogo_d","",""
"null","","html-keyboard-response","404","561574","0.0-6.0-1.61","","<img src=""img/purple-n.png"" border=""10"">","null","trial","null","","0,1","4:nogo_d","0",""
"null","","html-keyboard-response","405","562575","0.0-6.0-2.61","","<div style=""font-size:60px;"">+</div>","null","","","","","","",""
"444.63499999255873","","image-keyboard-response","406","563021","0.0-6.0-0.62","","img/green.png","32","trial","null","false","0.2,0.8","2:nogo_b","",""
"null","","html-keyboard-response","407","564036","0.0-6.0-1.62","","<img src=""img/green-n.png"" border=""10"">","null","trial","null","","0.2,0.8","2:nogo_b","0",""
"null","","html-keyboard-response","408","565039","0.0-6.0-2.62","","<div style=""font-size:60px;"">+</div>","null","","","","","","",""
"630.8500000013737","","image-keyboard-response","409","565670","0.0-6.0-0.63","","img/pink.png","32","trial","32","true","1,0","3:go_c","",""
"null","","html-keyboard-response","410","566673","0.0-6.0-1.63","","<img src=""img/pink-r.png"" border=""10"">","null","trial","32","","1,0","3:go_c","1",""
"null","","html-keyboard-response","411","567674","0.0-6.0-2.63","","<div style=""font-size:60px;"">+</div>","null","","","","","","",""
"580.6000000011409","","image-keyboard-response","412","568256","0.0-6.0-0.64","","img/yellow.png","32","trial","32","true","0.8,0.2","1:go_a","",""
"null","","html-keyboard-response","413","569258","0.0-6.0-1.64","","<img src=""img/yellow-r.png"" border=""10"">","null","trial","32","","0.8,0.2","1:go_a","1",""
"null","","html-keyboard-response","414","570259","0.0-6.0-2.64","","<div style=""font-size:60px;"">+</div>","null","","","","","","",""
"641.7050000018207","","image-keyboard-response","415","570902","0.0-6.0-0.65","","img/pink.png","32","trial","32","true","1,0","3:go_c","",""
"null","","html-keyboard-response","416","571904","0.0-6.0-1.65","","<img src=""img/pink-r.png"" border=""10"">","null","trial","32","","1,0","3:go_c","1",""
"null","","html-keyboard-response","417","572906","0.0-6.0-2.65","","<div style=""font-size:60px;"">+</div>","null","","","","","","",""
"717.3500000062631","","image-keyboard-response","418","573625","0.0-6.0-0.66","","img/green.png","32","trial","null","false","0.2,0.8","2:nogo_b","",""
"null","","html-keyboard-response","419","574626","0.0-6.0-1.66","","<img src=""img/green-r.png"" border=""10"">","null","trial","null","","0.2,0.8","2:nogo_b","1",""
"null","","html-keyboard-response","420","575629","0.0-6.0-2.66","","<div style=""font-size:60px;"">+</div>","null","","","","","","",""
"null","","image-keyboard-response","421","577130","0.0-6.0-0.67","","img/purple.png","null","trial","null","true","0,1","4:nogo_d","",""
"null","","html-keyboard-response","422","578133","0.0-6.0-1.67","","<img src=""img/purple-r.png"">","null","trial","null","","0,1","4:nogo_d","1",""
"null","","html-keyboard-response","423","579136","0.0-6.0-2.67","","<div style=""font-size:60px;"">+</div>","null","","","","","","",""
"377.9849999991711","","image-keyboard-response","424","579515","0.0-6.0-0.68","","img/yellow.png","32","trial","32","true","0.8,0.2","1:go_a","",""
"null","","html-keyboard-response","425","580520","0.0-6.0-1.68","","<img src=""img/yellow-r.png"" border=""10"">","null","trial","32","","0.8,0.2","1:go_a","1",""
"null","","html-keyboard-response","426","581521","0.0-6.0-2.68","","<div style=""font-size:60px;"">+</div>","null","","","","","","",""
"null","","image-keyboard-response","427","583023","0.0-6.0-0.69","","img/purple.png","null","trial","null","true","0,1","4:nogo_d","",""
"null","","html-keyboard-response","428","584026","0.0-6.0-1.69","","<img src=""img/purple-r.png"">","null","trial","null","","0,1","4:nogo_d","1",""
"null","","html-keyboard-response","429","585028","0.0-6.0-2.69","","<div style=""font-size:60px;"">+</div>","null","","","","","","",""
"376.0000000038417","","image-keyboard-response","430","585405","0.0-6.0-0.70","","img/pink.png","32","trial","32","true","1,0","3:go_c","",""
"null","","html-keyboard-response","431","586407","0.0-6.0-1.70","","<img src=""img/pink-r.png"" border=""10"">","null","trial","32","","1,0","3:go_c","1",""
"null","","html-keyboard-response","432","587408","0.0-6.0-2.70","","<div style=""font-size:60px;"">+</div>","null","","","","","","",""
"532.5249999877997","","image-keyboard-response","433","587942","0.0-6.0-0.71","","img/green.png","32","trial","null","false","0.2,0.8","2:nogo_b","",""
"null","","html-keyboard-response","434","588945","0.0-6.0-1.71","","<img src=""img/green-r.png"" border=""10"">","null","trial","null","","0.2,0.8","2:nogo_b","1",""
"null","","html-keyboard-response","435","589947","0.0-6.0-2.71","","<div style=""font-size:60px;"">+</div>","null","","","","","","",""
"670.8900000085123","","image-keyboard-response","436","590619","0.0-6.0-0.72","","img/purple.png","32","trial","null","false","0,1","4:nogo_d","",""
"null","","html-keyboard-response","437","591621","0.0-6.0-1.72","","<img src=""img/purple-n.png"" border=""10"">","null","trial","null","","0,1","4:nogo_d","0",""
"null","","html-keyboard-response","438","592622","0.0-6.0-2.72","","<div style=""font-size:60px;"">+</div>","null","","","","","","",""
"661.8450000096345","","image-keyboard-response","439","593285","0.0-6.0-0.73","","img/green.png","32","trial","null","false","0.2,0.8","2:nogo_b","",""
"null","","html-keyboard-response","440","594288","0.0-6.0-1.73","","<img src=""img/green-n.png"" border=""10"">","null","trial","null","","0.2,0.8","2:nogo_b","0",""
"null","","html-keyboard-response","441","595290","0.0-6.0-2.73","","<div style=""font-size:60px;"">+</div>","null","","","","","","",""
"568.634999988717","","image-keyboard-response","442","595860","0.0-6.0-0.74","","img/yellow.png","32","trial","32","true","0.8,0.2","1:go_a","",""
"null","","html-keyboard-response","443","596862","0.0-6.0-1.74","","<img src=""img/yellow-r.png"" border=""10"">","null","trial","32","","0.8,0.2","1:go_a","1",""
"null","","html-keyboard-response","444","597864","0.0-6.0-2.74","","<div style=""font-size:60px;"">+</div>","null","","","","","","",""
"null","","image-keyboard-response","445","599366","0.0-6.0-0.75","","img/pink.png","null","trial","32","false","1,0","3:go_c","",""
"null","","html-keyboard-response","446","600370","0.0-6.0-1.75","","<img src=""img/pink-n.png"">","null","trial","32","","1,0","3:go_c","0",""
"null","","html-keyboard-response","447","601380","0.0-6.0-2.75","","<div style=""font-size:60px;"">+</div>","null","","","","","","",""
"427.94000000867527","","image-keyboard-response","448","601809","0.0-6.0-0.76","","img/yellow.png","32","trial","32","true","0.8,0.2","1:go_a","",""
"null","","html-keyboard-response","449","602811","0.0-6.0-1.76","","<img src=""img/yellow-r.png"" border=""10"">","null","trial","32","","0.8,0.2","1:go_a","1",""
"null","","html-keyboard-response","450","603812","0.0-6.0-2.76","","<div style=""font-size:60px;"">+</div>","null","","","","","","",""
"624.0399999951478","","image-keyboard-response","451","604438","0.0-6.0-0.77","","img/pink.png","32","trial","32","true","1,0","3:go_c","",""
"null","","html-keyboard-response","452","605439","0.0-6.0-1.77","","<img src=""img/pink-r.png"" border=""10"">","null","trial","32","","1,0","3:go_c","1",""
"null","","html-keyboard-response","453","606441","0.0-6.0-2.77","","<div style=""font-size:60px;"">+</div>","null","","","","","","",""
"null","","image-keyboard-response","454","607942","0.0-6.0-0.78","","img/purple.png","null","trial","null","true","0,1","4:nogo_d","",""
"null","","html-keyboard-response","455","608944","0.0-6.0-1.78","","<img src=""img/purple-r.png"">","null","trial","null","","0,1","4:nogo_d","1",""
"null","","html-keyboard-response","456","609946","0.0-6.0-2.78","","<div style=""font-size:60px;"">+</div>","null","","","","","","",""
"null","","image-keyboard-response","457","611449","0.0-6.0-0.79","","img/green.png","null","trial","null","true","0.2,0.8","2:nogo_b","",""
"null","","html-keyboard-response","458","612451","0.0-6.0-1.79","","<img src=""img/green-r.png"">","null","trial","null","","0.2,0.8","2:nogo_b","1",""
"null","","html-keyboard-response","459","613453","0.0-6.0-2.79","","<div style=""font-size:60px;"">+</div>","null","","","","","","",""
"458.8650000077905","","image-keyboard-response","460","613914","0.0-6.0-0.80","","img/yellow.png","32","trial","32","true","0.8,0.2","1:go_a","",""
"null","","html-keyboard-response","461","614916","0.0-6.0-1.80","","<img src=""img/yellow-r.png"" border=""10"">","null","trial","32","","0.8,0.2","1:go_a","1",""
"null","","html-keyboard-response","462","615919","0.0-6.0-2.80","","<div style=""font-size:60px;"">+</div>","null","","","","","","",""
"623.4150000091176","","image-keyboard-response","463","616544","0.0-6.0-0.81","","img/pink.png","32","trial","32","true","1,0","3:go_c","",""
"null","","html-keyboard-response","464","617546","0.0-6.0-1.81","","<img src=""img/pink-r.png"" border=""10"">","null","trial","32","","1,0","3:go_c","1",""
"null","","html-keyboard-response","465","618548","0.0-6.0-2.81","","<div style=""font-size:60px;"">+</div>","null","","","","","","",""
"null","","image-keyboard-response","466","620050","0.0-6.0-0.82","","img/green.png","null","trial","null","true","0.2,0.8","2:nogo_b","",""
"null","","html-keyboard-response","467","621053","0.0-6.0-1.82","","<img src=""img/green-r.png"">","null","trial","null","","0.2,0.8","2:nogo_b","1",""
"null","","html-keyboard-response","468","622056","0.0-6.0-2.82","","<div style=""font-size:60px;"">+</div>","null","","","","","","",""
"477.0299999945564","","image-keyboard-response","469","622534","0.0-6.0-0.83","","img/purple.png","32","trial","null","false","0,1","4:nogo_d","",""
"null","","html-keyboard-response","470","623537","0.0-6.0-1.83","","<img src=""img/purple-n.png"" border=""10"">","null","trial","null","","0,1","4:nogo_d","0",""
"null","","html-keyboard-response","471","624540","0.0-6.0-2.83","","<div style=""font-size:60px;"">+</div>","null","","","","","","",""
"698.5350000031758","","image-keyboard-response","472","625239","0.0-6.0-0.84","","img/purple.png","32","trial","null","false","0,1","4:nogo_d","",""
"null","","html-keyboard-response","473","626241","0.0-6.0-1.84","","<img src=""img/purple-n.png"" border=""10"">","null","trial","null","","0,1","4:nogo_d","0",""
"null","","html-keyboard-response","474","627243","0.0-6.0-2.84","","<div style=""font-size:60px;"">+</div>","null","","","","","","",""
"516.1450000014156","","image-keyboard-response","475","627759","0.0-6.0-0.85","","img/pink.png","32","trial","32","true","1,0","3:go_c","",""
"null","","html-keyboard-response","476","628762","0.0-6.0-1.85","","<img src=""img/pink-r.png"" border=""10"">","null","trial","32","","1,0","3:go_c","1",""
"null","","html-keyboard-response","477","629763","0.0-6.0-2.85","","<div style=""font-size:60px;"">+</div>","null","","","","","","",""
"646.1700000072597","","image-keyboard-response","478","630410","0.0-6.0-0.86","","img/green.png","32","trial","null","false","0.2,0.8","2:nogo_b","",""
"null","","html-keyboard-response","479","631413","0.0-6.0-1.86","","<img src=""img/green-n.png"" border=""10"">","null","trial","null","","0.2,0.8","2:nogo_b","0",""
"null","","html-keyboard-response","480","632415","0.0-6.0-2.86","","<div style=""font-size:60px;"">+</div>","null","","","","","","",""
"449.9999999970896","","image-keyboard-response","481","632866","0.0-6.0-0.87","","img/yellow.png","32","trial","32","true","0.8,0.2","1:go_a","",""
"null","","html-keyboard-response","482","633869","0.0-6.0-1.87","","<img src=""img/yellow-r.png"" border=""10"">","null","trial","32","","0.8,0.2","1:go_a","1",""
"null","","html-keyboard-response","483","634871","0.0-6.0-2.87","","<div style=""font-size:60px;"">+</div>","null","","","","","","",""
"959.7950000024866","","image-keyboard-response","484","635832","0.0-6.0-0.88","","img/pink.png","32","trial","32","true","1,0","3:go_c","",""
"null","","html-keyboard-response","485","636834","0.0-6.0-1.88","","<img src=""img/pink-r.png"" border=""10"">","null","trial","32","","1,0","3:go_c","1",""
"null","","html-keyboard-response","486","637837","0.0-6.0-2.88","","<div style=""font-size:60px;"">+</div>","null","","","","","","",""
"516.010000006645","","image-keyboard-response","487","638354","0.0-6.0-0.89","","img/yellow.png","32","trial","32","true","0.8,0.2","1:go_a","",""
"null","","html-keyboard-response","488","639357","0.0-6.0-1.89","","<img src=""img/yellow-r.png"" border=""10"">","null","trial","32","","0.8,0.2","1:go_a","1",""
"null","","html-keyboard-response","489","640359","0.0-6.0-2.89","","<div style=""font-size:60px;"">+</div>","null","","","","","","",""
"null","","image-keyboard-response","490","641861","0.0-6.0-0.90","","img/purple.png","null","trial","null","true","0,1","4:nogo_d","",""
"null","","html-keyboard-response","491","642863","0.0-6.0-1.90","","<img src=""img/purple-r.png"">","null","trial","null","","0,1","4:nogo_d","1",""
"null","","html-keyboard-response","492","643864","0.0-6.0-2.90","","<div style=""font-size:60px;"">+</div>","null","","","","","","",""
"null","","image-keyboard-response","493","645365","0.0-6.0-0.91","","img/green.png","null","trial","null","true","0.2,0.8","2:nogo_b","",""
"null","","html-keyboard-response","494","646368","0.0-6.0-1.91","","<img src=""img/green-r.png"">","null","trial","null","","0.2,0.8","2:nogo_b","1",""
"null","","html-keyboard-response","495","647370","0.0-6.0-2.91","","<div style=""font-size:60px;"">+</div>","null","","","","","","",""
"358.01500000525266","","image-keyboard-response","496","647730","0.0-6.0-0.92","","img/yellow.png","32","trial","32","true","0.8,0.2","1:go_a","",""
"null","","html-keyboard-response","497","648739","0.0-6.0-1.92","","<img src=""img/yellow-r.png"" border=""10"">","null","trial","32","","0.8,0.2","1:go_a","1",""
"null","","html-keyboard-response","498","649741","0.0-6.0-2.92","","<div style=""font-size:60px;"">+</div>","null","","","","","","",""
"478.82500001287553","","image-keyboard-response","499","650221","0.0-6.0-0.93","","img/pink.png","32","trial","32","true","1,0","3:go_c","",""
"null","","html-keyboard-response","500","651223","0.0-6.0-1.93","","<img src=""img/pink-r.png"" border=""10"">","null","trial","32","","1,0","3:go_c","1",""
"null","","html-keyboard-response","501","652224","0.0-6.0-2.93","","<div style=""font-size:60px;"">+</div>","null","","","","","","",""
"null","","image-keyboard-response","502","653726","0.0-6.0-0.94","","img/green.png","null","trial","null","true","0.2,0.8","2:nogo_b","",""
"null","","html-keyboard-response","503","654728","0.0-6.0-1.94","","<img src=""img/green-r.png"">","null","trial","null","","0.2,0.8","2:nogo_b","1",""
"null","","html-keyboard-response","504","655729","0.0-6.0-2.94","","<div style=""font-size:60px;"">+</div>","null","","","","","","",""
"514.2199999972945","","image-keyboard-response","505","656244","0.0-6.0-0.95","","img/purple.png","32","trial","null","false","0,1","4:nogo_d","",""
"null","","html-keyboard-response","506","657246","0.0-6.0-1.95","","<img src=""img/purple-n.png"" border=""10"">","null","trial","null","","0,1","4:nogo_d","0",""
"null","","html-keyboard-response","507","658246","0.0-6.0-2.95","","<div style=""font-size:60px;"">+</div>","null","","","","","","",""
"648.2900000119116","","image-keyboard-response","508","658895","0.0-6.0-0.96","","img/pink.png","32","trial","32","true","1,0","3:go_c","",""
"null","","html-keyboard-response","509","659897","0.0-6.0-1.96","","<img src=""img/pink-r.png"" border=""10"">","null","trial","32","","1,0","3:go_c","1",""
"null","","html-keyboard-response","510","660900","0.0-6.0-2.96","","<div style=""font-size:60px;"">+</div>","null","","","","","","",""
"561.8150000082096","","image-keyboard-response","511","661463","0.0-6.0-0.97","","img/yellow.png","32","trial","32","true","0.8,0.2","1:go_a","",""
"null","","html-keyboard-response","512","662464","0.0-6.0-1.97","","<img src=""img/yellow-r.png"" border=""10"">","null","trial","32","","0.8,0.2","1:go_a","1",""
"null","","html-keyboard-response","513","663466","0.0-6.0-2.97","","<div style=""font-size:60px;"">+</div>","null","","","","","","",""
"null","","image-keyboard-response","514","664969","0.0-6.0-0.98","","img/purple.png","null","trial","null","true","0,1","4:nogo_d","",""
"null","","html-keyboard-response","515","665974","0.0-6.0-1.98","","<img src=""img/purple-r.png"">","null","trial","null","","0,1","4:nogo_d","1",""
"null","","html-keyboard-response","516","666975","0.0-6.0-2.98","","<div style=""font-size:60px;"">+</div>","null","","","","","","",""
"617.1049999975367","","image-keyboard-response","517","667593","0.0-6.0-0.99","","img/green.png","32","trial","null","false","0.2,0.8","2:nogo_b","",""
"null","","html-keyboard-response","518","668596","0.0-6.0-1.99","","<img src=""img/green-n.png"" border=""10"">","null","trial","null","","0.2,0.8","2:nogo_b","0",""
"null","","html-keyboard-response","519","669597","0.0-6.0-2.99","","<div style=""font-size:60px;"">+</div>","null","","","","","","",""
"510.9050000028219","","image-keyboard-response","520","670109","0.0-6.0-0.100","","img/pink.png","32","trial","32","true","1,0","3:go_c","",""
"null","","html-keyboard-response","521","671111","0.0-6.0-1.100","","<img src=""img/pink-r.png"" border=""10"">","null","trial","32","","1,0","3:go_c","1",""
"null","","html-keyboard-response","522","672113","0.0-6.0-2.100","","<div style=""font-size:60px;"">+</div>","null","","","","","","",""
"366.63999999291264","","image-keyboard-response","523","672480","0.0-6.0-0.101","","img/yellow.png","32","trial","32","true","0.8,0.2","1:go_a","",""
"null","","html-keyboard-response","524","673482","0.0-6.0-1.101","","<img src=""img/yellow-r.png"" border=""10"">","null","trial","32","","0.8,0.2","1:go_a","1",""
"null","","html-keyboard-response","525","674483","0.0-6.0-2.101","","<div style=""font-size:60px;"">+</div>","null","","","","","","",""
"null","","image-keyboard-response","526","675987","0.0-6.0-0.102","","img/green.png","null","trial","null","true","0.2,0.8","2:nogo_b","",""
"null","","html-keyboard-response","527","676991","0.0-6.0-1.102","","<img src=""img/green-r.png"">","null","trial","null","","0.2,0.8","2:nogo_b","1",""
"null","","html-keyboard-response","528","677992","0.0-6.0-2.102","","<div style=""font-size:60px;"">+</div>","null","","","","","","",""
"450.7549999980256","","image-keyboard-response","529","678443","0.0-6.0-0.103","","img/purple.png","32","trial","null","false","0,1","4:nogo_d","",""
"null","","html-keyboard-response","530","679445","0.0-6.0-1.103","","<img src=""img/purple-n.png"" border=""10"">","null","trial","null","","0,1","4:nogo_d","0",""
"null","","html-keyboard-response","531","680447","0.0-6.0-2.103","","<div style=""font-size:60px;"">+</div>","null","","","","","","",""
"null","","image-keyboard-response","532","681948","0.0-6.0-0.104","","img/purple.png","null","trial","null","true","0,1","4:nogo_d","",""
"null","","html-keyboard-response","533","682950","0.0-6.0-1.104","","<img src=""img/purple-r.png"">","null","trial","null","","0,1","4:nogo_d","1",""
"null","","html-keyboard-response","534","683952","0.0-6.0-2.104","","<div style=""font-size:60px;"">+</div>","null","","","","","","",""
"488.1299999979092","","image-keyboard-response","535","684441","0.0-6.0-0.105","","img/green.png","32","trial","null","false","0.2,0.8","2:nogo_b","",""
"null","","html-keyboard-response","536","685443","0.0-6.0-1.105","","<img src=""img/green-n.png"" border=""10"">","null","trial","null","","0.2,0.8","2:nogo_b","0",""
"null","","html-keyboard-response","537","686445","0.0-6.0-2.105","","<div style=""font-size:60px;"">+</div>","null","","","","","","",""
"454.9249999981839","","image-keyboard-response","538","686901","0.0-6.0-0.106","","img/pink.png","32","trial","32","true","1,0","3:go_c","",""
"null","","html-keyboard-response","539","687905","0.0-6.0-1.106","","<img src=""img/pink-r.png"" border=""10"">","null","trial","32","","1,0","3:go_c","1",""
"null","","html-keyboard-response","540","688906","0.0-6.0-2.106","","<div style=""font-size:60px;"">+</div>","null","","","","","","",""
"380.6850000109989","","image-keyboard-response","541","689288","0.0-6.0-0.107","","img/yellow.png","32","trial","32","true","0.8,0.2","1:go_a","",""
"null","","html-keyboard-response","542","690304","0.0-6.0-1.107","","<img src=""img/yellow-r.png"" border=""10"">","null","trial","32","","0.8,0.2","1:go_a","1",""
"null","","html-keyboard-response","543","691307","0.0-6.0-2.107","","<div style=""font-size:60px;"">+</div>","null","","","","","","",""
"419.0200000011828","","image-keyboard-response","544","691727","0.0-6.0-0.108","","img/yellow.png","32","trial","32","true","0.8,0.2","1:go_a","",""
"null","","html-keyboard-response","545","692731","0.0-6.0-1.108","","<img src=""img/yellow-r.png"" border=""10"">","null","trial","32","","0.8,0.2","1:go_a","1",""
"null","","html-keyboard-response","546","693732","0.0-6.0-2.108","","<div style=""font-size:60px;"">+</div>","null","","","","","","",""
"null","","image-keyboard-response","547","695234","0.0-6.0-0.109","","img/green.png","null","trial","null","true","0.2,0.8","2:nogo_b","",""
"null","","html-keyboard-response","548","696237","0.0-6.0-1.109","","<img src=""img/green-r.png"">","null","trial","null","","0.2,0.8","2:nogo_b","1",""
"null","","html-keyboard-response","549","697240","0.0-6.0-2.109","","<div style=""font-size:60px;"">+</div>","null","","","","","","",""
"459.2350000020815","","image-keyboard-response","550","697700","0.0-6.0-0.110","","img/pink.png","32","trial","32","true","1,0","3:go_c","",""
"null","","html-keyboard-response","551","698702","0.0-6.0-1.110","","<img src=""img/pink-r.png"" border=""10"">","null","trial","32","","1,0","3:go_c","1",""
"null","","html-keyboard-response","552","699705","0.0-6.0-2.110","","<div style=""font-size:60px;"">+</div>","null","","","","","","",""
"910.4450000013458","","image-keyboard-response","553","700617","0.0-6.0-0.111","","img/purple.png","32","trial","null","false","0,1","4:nogo_d","",""
"null","","html-keyboard-response","554","701619","0.0-6.0-1.111","","<img src=""img/purple-n.png"" border=""10"">","null","trial","null","","0,1","4:nogo_d","0",""
"null","","html-keyboard-response","555","702623","0.0-6.0-2.111","","<div style=""font-size:60px;"">+</div>","null","","","","","","",""
"666.9250000122702","","image-keyboard-response","556","703290","0.0-6.0-0.112","","img/pink.png","32","trial","32","true","1,0","3:go_c","",""
"null","","html-keyboard-response","557","704293","0.0-6.0-1.112","","<img src=""img/pink-r.png"" border=""10"">","null","trial","32","","1,0","3:go_c","1",""
"null","","html-keyboard-response","558","705295","0.0-6.0-2.112","","<div style=""font-size:60px;"">+</div>","null","","","","","","",""
"452.1200000017416","","image-keyboard-response","559","705748","0.0-6.0-0.113","","img/yellow.png","32","trial","32","true","0.8,0.2","1:go_a","",""
"null","","html-keyboard-response","560","706750","0.0-6.0-1.113","","<img src=""img/yellow-r.png"" border=""10"">","null","trial","32","","0.8,0.2","1:go_a","1",""
"null","","html-keyboard-response","561","707752","0.0-6.0-2.113","","<div style=""font-size:60px;"">+</div>","null","","","","","","",""
"536.420000004","","image-keyboard-response","562","708289","0.0-6.0-0.114","","img/green.png","32","trial","null","false","0.2,0.8","2:nogo_b","",""
"null","","html-keyboard-response","563","709298","0.0-6.0-1.114","","<img src=""img/green-n.png"" border=""10"">","null","trial","null","","0.2,0.8","2:nogo_b","0",""
"null","","html-keyboard-response","564","710300","0.0-6.0-2.114","","<div style=""font-size:60px;"">+</div>","null","","","","","","",""
"504.71000000834465","","image-keyboard-response","565","710805","0.0-6.0-0.115","","img/purple.png","32","trial","null","false","0,1","4:nogo_d","",""
"null","","html-keyboard-response","566","711808","0.0-6.0-1.115","","<img src=""img/purple-n.png"" border=""10"">","null","trial","null","","0,1","4:nogo_d","0",""
"null","","html-keyboard-response","567","712809","0.0-6.0-2.115","","<div style=""font-size:60px;"">+</div>","null","","","","","","",""
"null","","image-keyboard-response","568","714311","0.0-6.0-0.116","","img/green.png","null","trial","null","true","0.2,0.8","2:nogo_b","",""
"null","","html-keyboard-response","569","715313","0.0-6.0-1.116","","<img src=""img/green-r.png"">","null","trial","null","","0.2,0.8","2:nogo_b","1",""
"null","","html-keyboard-response","570","716315","0.0-6.0-2.116","","<div style=""font-size:60px;"">+</div>","null","","","","","","",""
"728.2749999867519","","image-keyboard-response","571","717044","0.0-6.0-0.117","","img/pink.png","32","trial","32","true","1,0","3:go_c","",""
"null","","html-keyboard-response","572","718047","0.0-6.0-1.117","","<img src=""img/pink-r.png"" border=""10"">","null","trial","32","","1,0","3:go_c","1",""
"null","","html-keyboard-response","573","719050","0.0-6.0-2.117","","<div style=""font-size:60px;"">+</div>","null","","","","","","",""
"null","","image-keyboard-response","574","720552","0.0-6.0-0.118","","img/purple.png","null","trial","null","true","0,1","4:nogo_d","",""
"null","","html-keyboard-response","575","721554","0.0-6.0-1.118","","<img src=""img/purple-r.png"">","null","trial","null","","0,1","4:nogo_d","1",""
"null","","html-keyboard-response","576","722558","0.0-6.0-2.118","","<div style=""font-size:60px;"">+</div>","null","","","","","","",""
"401.6050000063842","","image-keyboard-response","577","722961","0.0-6.0-0.119","","img/yellow.png","32","trial","32","true","0.8,0.2","1:go_a","",""
"null","","html-keyboard-response","578","723963","0.0-6.0-1.119","","<img src=""img/yellow-r.png"" border=""10"">","null","trial","32","","0.8,0.2","1:go_a","1",""
"null","","html-keyboard-response","579","724965","0.0-6.0-2.119","","<div style=""font-size:60px;"">+</div>","null","","","","","","",""
"20986.63499999384","","instructions","580","745952","0.0-7.0","[{""page_index"":0,""viewing_time"":20986.37499999313}]","","","","","","","","",""
"null","","image-keyboard-response","581","747455","0.0-8.0-0.0","","img/grey.png","null","trial","32","false","0.8,0.2","1:go_a","",""
"null","","html-keyboard-response","582","748459","0.0-8.0-1.0","","<img src=""img/grey-r.png"">","null","trial","32","","0.8,0.2","1:go_a","1",""
"null","","html-keyboard-response","583","749461","0.0-8.0-2.0","","<div style=""font-size:60px;"">+</div>","null","","","","","","",""
"391.2049999926239","","image-keyboard-response","584","749853","0.0-8.0-0.1","","img/yellow.png","32","trial","null","false","0.2,0.8","4:nogo_d","",""
"null","","html-keyboard-response","585","750856","0.0-8.0-1.1","","<img src=""img/yellow-n.png"" border=""10"">","null","trial","null","","0.2,0.8","4:nogo_d","0",""
"null","","html-keyboard-response","586","751858","0.0-8.0-2.1","","<div style=""font-size:60px;"">+</div>","null","","","","","","",""
"376.28499999118503","","image-keyboard-response","587","752235","0.0-8.0-0.2","","img/green.png","32","trial","32","true","0.8,0.2","3:go_c","",""
"null","","html-keyboard-response","588","753237","0.0-8.0-1.2","","<img src=""img/green-r.png"" border=""10"">","null","trial","32","","0.8,0.2","3:go_c","1",""
"null","","html-keyboard-response","589","754240","0.0-8.0-2.2","","<div style=""font-size:60px;"">+</div>","null","","","","","","",""
"634.2000000004191","","image-keyboard-response","590","754875","0.0-8.0-0.3","","img/purple.png","32","trial","null","false","0.2,0.8","2:nogo_b","",""
"null","","html-keyboard-response","591","755878","0.0-8.0-1.3","","<img src=""img/purple-n.png"" border=""10"">","null","trial","null","","0.2,0.8","2:nogo_b","0",""
"null","","html-keyboard-response","592","756881","0.0-8.0-2.3","","<div style=""font-size:60px;"">+</div>","null","","","","","","",""
"460.63499999581836","","image-keyboard-response","593","757342","0.0-8.0-0.4","","img/yellow.png","32","trial","null","false","0.2,0.8","4:nogo_d","",""
"null","","html-keyboard-response","594","758345","0.0-8.0-1.4","","<img src=""img/yellow-n.png"" border=""10"">","null","trial","null","","0.2,0.8","4:nogo_d","0",""
"null","","html-keyboard-response","595","759347","0.0-8.0-2.4","","<div style=""font-size:60px;"">+</div>","null","","","","","","",""
"439.2050000024028","","image-keyboard-response","596","759787","0.0-8.0-0.5","","img/grey.png","32","trial","32","true","0.8,0.2","1:go_a","",""
"null","","html-keyboard-response","597","760789","0.0-8.0-1.5","","<img src=""img/grey-r.png"" border=""10"">","null","trial","32","","0.8,0.2","1:go_a","1",""
"null","","html-keyboard-response","598","761792","0.0-8.0-2.5","","<div style=""font-size:60px;"">+</div>","null","","","","","","",""
"644.9250000005122","","image-keyboard-response","599","762437","0.0-8.0-0.6","","img/green.png","32","trial","32","true","0.8,0.2","3:go_c","",""
"null","","html-keyboard-response","600","763439","0.0-8.0-1.6","","<img src=""img/green-r.png"" border=""10"">","null","trial","32","","0.8,0.2","3:go_c","1",""
"null","","html-keyboard-response","601","764442","0.0-8.0-2.6","","<div style=""font-size:60px;"">+</div>","null","","","","","","",""
"null","","image-keyboard-response","602","765944","0.0-8.0-0.7","","img/purple.png","null","trial","null","true","0.2,0.8","2:nogo_b","",""
"null","","html-keyboard-response","603","766947","0.0-8.0-1.7","","<img src=""img/purple-r.png"">","null","trial","null","","0.2,0.8","2:nogo_b","1",""
"null","","html-keyboard-response","604","767950","0.0-8.0-2.7","","<div style=""font-size:60px;"">+</div>","null","","","","","","",""
"549.7749999922235","","image-keyboard-response","605","768501","0.0-8.0-0.8","","img/purple.png","32","trial","null","false","0.2,0.8","2:nogo_b","",""
"null","","html-keyboard-response","606","769504","0.0-8.0-1.8","","<img src=""img/purple-n.png"" border=""10"">","null","trial","null","","0.2,0.8","2:nogo_b","0",""
"null","","html-keyboard-response","607","770506","0.0-8.0-2.8","","<div style=""font-size:60px;"">+</div>","null","","","","","","",""
"454.87500001036096","","image-keyboard-response","608","770962","0.0-8.0-0.9","","img/yellow.png","32","trial","null","false","0.2,0.8","4:nogo_d","",""
"null","","html-keyboard-response","609","771965","0.0-8.0-1.9","","<img src=""img/yellow-n.png"" border=""10"">","null","trial","null","","0.2,0.8","4:nogo_d","0",""
"null","","html-keyboard-response","610","772967","0.0-8.0-2.9","","<div style=""font-size:60px;"">+</div>","null","","","","","","",""
"435.01000000105705","","image-keyboard-response","611","773403","0.0-8.0-0.10","","img/green.png","32","trial","32","true","0.8,0.2","3:go_c","",""
"null","","html-keyboard-response","612","774406","0.0-8.0-1.10","","<img src=""img/green-r.png"" border=""10"">","null","trial","32","","0.8,0.2","3:go_c","1",""
"null","","html-keyboard-response","613","775409","0.0-8.0-2.10","","<div style=""font-size:60px;"">+</div>","null","","","","","","",""
"577.4950000050012","","image-keyboard-response","614","775987","0.0-8.0-0.11","","img/grey.png","32","trial","32","true","0.8,0.2","1:go_a","",""
"null","","html-keyboard-response","615","777002","0.0-8.0-1.11","","<img src=""img/grey-r.png"" border=""10"">","null","trial","32","","0.8,0.2","1:go_a","1",""
"null","","html-keyboard-response","616","778004","0.0-8.0-2.11","","<div style=""font-size:60px;"">+</div>","null","","","","","","",""
"616.8249999900581","","image-keyboard-response","617","778622","0.0-8.0-0.12","","img/green.png","32","trial","32","true","0.8,0.2","3:go_c","",""
"null","","html-keyboard-response","618","779627","0.0-8.0-1.12","","<img src=""img/green-r.png"" border=""10"">","null","trial","32","","0.8,0.2","3:go_c","1",""
"null","","html-keyboard-response","619","780629","0.0-8.0-2.12","","<div style=""font-size:60px;"">+</div>","null","","","","","","",""
"null","","image-keyboard-response","620","782130","0.0-8.0-0.13","","img/purple.png","null","trial","null","true","0.2,0.8","2:nogo_b","",""
"null","","html-keyboard-response","621","783132","0.0-8.0-1.13","","<img src=""img/purple-n.png"">","null","trial","null","","0.2,0.8","2:nogo_b","0",""
"null","","html-keyboard-response","622","784135","0.0-8.0-2.13","","<div style=""font-size:60px;"">+</div>","null","","","","","","",""
"488.04500000551343","","image-keyboard-response","623","784624","0.0-8.0-0.14","","img/yellow.png","32","trial","null","false","0.2,0.8","4:nogo_d","",""
"null","","html-keyboard-response","624","785641","0.0-8.0-1.14","","<img src=""img/yellow-n.png"" border=""10"">","null","trial","null","","0.2,0.8","4:nogo_d","0",""
"null","","html-keyboard-response","625","786643","0.0-8.0-2.14","","<div style=""font-size:60px;"">+</div>","null","","","","","","",""
"530.6600000039907","","image-keyboard-response","626","787175","0.0-8.0-0.15","","img/grey.png","32","trial","32","true","0.8,0.2","1:go_a","",""
"null","","html-keyboard-response","627","788178","0.0-8.0-1.15","","<img src=""img/grey-n.png"" border=""10"">","null","trial","32","","0.8,0.2","1:go_a","0",""
"null","","html-keyboard-response","628","789180","0.0-8.0-2.15","","<div style=""font-size:60px;"">+</div>","null","","","","","","",""
"512.0349999924656","","image-keyboard-response","629","789692","0.0-8.0-0.16","","img/purple.png","32","trial","null","false","0.2,0.8","2:nogo_b","",""
"null","","html-keyboard-response","630","790695","0.0-8.0-1.16","","<img src=""img/purple-n.png"" border=""10"">","null","trial","null","","0.2,0.8","2:nogo_b","0",""
"null","","html-keyboard-response","631","791696","0.0-8.0-2.16","","<div style=""font-size:60px;"">+</div>","null","","","","","","",""
"502.9599999979837","","image-keyboard-response","632","792199","0.0-8.0-0.17","","img/yellow.png","32","trial","null","false","0.2,0.8","4:nogo_d","",""
"null","","html-keyboard-response","633","793203","0.0-8.0-1.17","","<img src=""img/yellow-n.png"" border=""10"">","null","trial","null","","0.2,0.8","4:nogo_d","0",""
"null","","html-keyboard-response","634","794205","0.0-8.0-2.17","","<div style=""font-size:60px;"">+</div>","null","","","","","","",""
"820.8449999947334","","image-keyboard-response","635","795028","0.0-8.0-0.18","","img/grey.png","32","trial","32","true","0.8,0.2","1:go_a","",""
"null","","html-keyboard-response","636","796030","0.0-8.0-1.18","","<img src=""img/grey-n.png"" border=""10"">","null","trial","32","","0.8,0.2","1:go_a","0",""
"null","","html-keyboard-response","637","797032","0.0-8.0-2.18","","<div style=""font-size:60px;"">+</div>","null","","","","","","",""
"null","","image-keyboard-response","638","798533","0.0-8.0-0.19","","img/green.png","null","trial","32","false","0.8,0.2","3:go_c","",""
"null","","html-keyboard-response","639","799536","0.0-8.0-1.19","","<img src=""img/green-n.png"">","null","trial","32","","0.8,0.2","3:go_c","0",""
"null","","html-keyboard-response","640","800537","0.0-8.0-2.19","","<div style=""font-size:60px;"">+</div>","null","","","","","","",""
"null","","image-keyboard-response","641","802040","0.0-8.0-0.20","","img/purple.png","null","trial","null","true","0.2,0.8","2:nogo_b","",""
"null","","html-keyboard-response","642","803045","0.0-8.0-1.20","","<img src=""img/purple-r.png"">","null","trial","null","","0.2,0.8","2:nogo_b","1",""
"null","","html-keyboard-response","643","804047","0.0-8.0-2.20","","<div style=""font-size:60px;"">+</div>","null","","","","","","",""
"null","","image-keyboard-response","644","805549","0.0-8.0-0.21","","img/grey.png","null","trial","32","false","0.8,0.2","1:go_a","",""
"null","","html-keyboard-response","645","806551","0.0-8.0-1.21","","<img src=""img/grey-r.png"">","null","trial","32","","0.8,0.2","1:go_a","1",""
"null","","html-keyboard-response","646","807552","0.0-8.0-2.21","","<div style=""font-size:60px;"">+</div>","null","","","","","","",""
"null","","image-keyboard-response","647","809054","0.0-8.0-0.22","","img/yellow.png","null","trial","null","true","0.2,0.8","4:nogo_d","",""
"null","","html-keyboard-response","648","810056","0.0-8.0-1.22","","<img src=""img/yellow-r.png"">","null","trial","null","","0.2,0.8","4:nogo_d","1",""
"null","","html-keyboard-response","649","811057","0.0-8.0-2.22","","<div style=""font-size:60px;"">+</div>","null","","","","","","",""
"390.4799999872921","","image-keyboard-response","650","811450","0.0-8.0-0.23","","img/green.png","32","trial","32","true","0.8,0.2","3:go_c","",""
"null","","html-keyboard-response","651","812452","0.0-8.0-1.23","","<img src=""img/green-r.png"" border=""10"">","null","trial","32","","0.8,0.2","3:go_c","1",""
"null","","html-keyboard-response","652","813454","0.0-8.0-2.23","","<div style=""font-size:60px;"">+</div>","null","","","","","","",""
"498.9649999915855","","image-keyboard-response","653","813954","0.0-8.0-0.24","","img/purple.png","32","trial","null","false","0.2,0.8","2:nogo_b","",""
"null","","html-keyboard-response","654","814956","0.0-8.0-1.24","","<img src=""img/purple-n.png"" border=""10"">","null","trial","null","","0.2,0.8","2:nogo_b","0",""
"null","","html-keyboard-response","655","815958","0.0-8.0-2.24","","<div style=""font-size:60px;"">+</div>","null","","","","","","",""
"959.7650000068825","","image-keyboard-response","656","816919","0.0-8.0-0.25","","img/grey.png","32","trial","32","true","0.8,0.2","1:go_a","",""
"null","","html-keyboard-response","657","817921","0.0-8.0-1.25","","<img src=""img/grey-r.png"" border=""10"">","null","trial","32","","0.8,0.2","1:go_a","1",""
"null","","html-keyboard-response","658","818922","0.0-8.0-2.25","","<div style=""font-size:60px;"">+</div>","null","","","","","","",""
"622.9700000112643","","image-keyboard-response","659","819548","0.0-8.0-0.26","","img/yellow.png","32","trial","null","false","0.2,0.8","4:nogo_d","",""
"null","","html-keyboard-response","660","820550","0.0-8.0-1.26","","<img src=""img/yellow-r.png"" border=""10"">","null","trial","null","","0.2,0.8","4:nogo_d","1",""
"null","","html-keyboard-response","661","821551","0.0-8.0-2.26","","<div style=""font-size:60px;"">+</div>","null","","","","","","",""
"595.5300000059651","","image-keyboard-response","662","822147","0.0-8.0-0.27","","img/green.png","32","trial","32","true","0.8,0.2","3:go_c","",""
"null","","html-keyboard-response","663","823149","0.0-8.0-1.27","","<img src=""img/green-r.png"" border=""10"">","null","trial","32","","0.8,0.2","3:go_c","1",""
"null","","html-keyboard-response","664","824150","0.0-8.0-2.27","","<div style=""font-size:60px;"">+</div>","null","","","","","","",""
"529.1649999999208","","image-keyboard-response","665","824681","0.0-8.0-0.28","","img/yellow.png","32","trial","null","false","0.2,0.8","4:nogo_d","",""
"null","","html-keyboard-response","666","825684","0.0-8.0-1.28","","<img src=""img/yellow-n.png"" border=""10"">","null","trial","null","","0.2,0.8","4:nogo_d","0",""
"null","","html-keyboard-response","667","826687","0.0-8.0-2.28","","<div style=""font-size:60px;"">+</div>","null","","","","","","",""
"427.4850000074366","","image-keyboard-response","668","827115","0.0-8.0-0.29","","img/grey.png","32","trial","32","true","0.8,0.2","1:go_a","",""
"null","","html-keyboard-response","669","828117","0.0-8.0-1.29","","<img src=""img/grey-n.png"" border=""10"">","null","trial","32","","0.8,0.2","1:go_a","0",""
"null","","html-keyboard-response","670","829118","0.0-8.0-2.29","","<div style=""font-size:60px;"">+</div>","null","","","","","","",""
"779.0749999985565","","image-keyboard-response","671","829897","0.0-8.0-0.30","","img/green.png","32","trial","32","true","0.8,0.2","3:go_c","",""
"null","","html-keyboard-response","672","830899","0.0-8.0-1.30","","<img src=""img/green-r.png"" border=""10"">","null","trial","32","","0.8,0.2","3:go_c","1",""
"null","","html-keyboard-response","673","831901","0.0-8.0-2.30","","<div style=""font-size:60px;"">+</div>","null","","","","","","",""
"655.7299999985844","","image-keyboard-response","674","832557","0.0-8.0-0.31","","img/purple.png","32","trial","null","false","0.2,0.8","2:nogo_b","",""
"null","","html-keyboard-response","675","833560","0.0-8.0-1.31","","<img src=""img/purple-n.png"" border=""10"">","null","trial","null","","0.2,0.8","2:nogo_b","0",""
