"rt","url","trial_type","trial_index","time_elapsed","internal_node_id","view_history","stimulus","key_press","test_part","correct_response","correct","use_rew","which_stim","reward","responses"
"93119.2050000027","consent.html","external-html","0","93256","0.0-0.0","","","","","","","","","",""
"195603.42499999388","","instructions","1","288861","0.0-1.0","[{""page_index"":0,""viewing_time"":9749.189999994996},{""page_index"":1,""viewing_time"":51295.24500000116},{""page_index"":2,""viewing_time"":13887.69499999762},{""page_index"":3,""viewing_time"":44455.51500000147},{""page_index"":4,""viewing_time"":26695.66499999928},{""page_index"":5,""viewing_time"":26279.69500000472},{""page_index"":6,""viewing_time"":23239.63499999809}]","","","","","","","","",""
"null","","image-keyboard-response","2","290378","0.0-2.0-0.0","","img/test3.PNG","null","practice","null","true","","","",""
"null","","html-keyboard-response","3","291392","0.0-2.0-1.0","","<img src=""img/test3-reward.PNG"">","null","","","","","","",""
"null","","html-keyboard-response","4","292406","0.0-2.0-2.0","","<div style=""font-size:60px;"">+</div>","null","","","","","","",""
"null","","image-keyboard-response","5","293922","0.0-2.0-0.1","","img/test2.PNG","null","practice","null","true","","","",""
"null","","html-keyboard-response","6","294935","0.0-2.0-1.1","","<img src=""img/test2-reward.PNG"">","null","","","","","","",""
"null","","html-keyboard-response","7","295942","0.0-2.0-2.1","","<div style=""font-size:60px;"">+</div>","null","","","","","","",""
"669.5200000031036","","image-keyboard-response","8","296614","0.0-2.0-0.2","","img/test1.PNG","32","practice","32","true","","","",""
"null","","html-keyboard-response","9","297615","0.0-2.0-1.2","","<img src=""img/test1-reward.PNG"" border=""10px; grey"">","null","","","","","","",""
"null","","html-keyboard-response","10","298628","0.0-2.0-2.2","","<div style=""font-size:60px;"">+</div>","null","","","","","","",""
"null","","image-keyboard-response","11","300145","0.0-2.0-0.3","","img/test3.PNG","null","practice","null","true","","","",""
"null","","html-keyboard-response","12","301156","0.0-2.0-1.3","","<img src=""img/test3-reward.PNG"">","null","","","","","","",""
"null","","html-keyboard-response","13","302172","0.0-2.0-2.3","","<div style=""font-size:60px;"">+</div>","null","","","","","","",""
"null","","image-keyboard-response","14","303679","0.0-2.0-0.4","","img/test2.PNG","null","practice","null","true","","","",""
"null","","html-keyboard-response","15","304686","0.0-2.0-1.4","","<img src=""img/test2-reward.PNG"">","null","","","","","","",""
"null","","html-keyboard-response","16","305697","0.0-2.0-2.4","","<div style=""font-size:60px;"">+</div>","null","","","","","","",""
"507.9699999987497","","image-keyboard-response","17","306207","0.0-2.0-0.5","","img/test1.PNG","32","practice","32","true","","","",""
"null","","html-keyboard-response","18","307212","0.0-2.0-1.5","","<img src=""img/test1-reward.PNG"" border=""10px; grey"">","null","","","","","","",""
"null","","html-keyboard-response","19","308222","0.0-2.0-2.5","","<div style=""font-size:60px;"">+</div>","null","","","","","","",""
"null","","image-keyboard-response","20","309724","0.0-2.0-0.6","","img/test2.PNG","null","practice","null","true","","","",""
"null","","html-keyboard-response","21","310727","0.0-2.0-1.6","","<img src=""img/test2-reward.PNG"">","null","","","","","","",""
"null","","html-keyboard-response","22","311736","0.0-2.0-2.6","","<div style=""font-size:60px;"">+</div>","null","","","","","","",""
"null","","image-keyboard-response","23","313245","0.0-2.0-0.7","","img/test3.PNG","null","practice","null","true","","","",""
"null","","html-keyboard-response","24","314256","0.0-2.0-1.7","","<img src=""img/test3-reward.PNG"">","null","","","","","","",""
"null","","html-keyboard-response","25","315269","0.0-2.0-2.7","","<div style=""font-size:60px;"">+</div>","null","","","","","","",""
"647.7950000044075","","image-keyboard-response","26","315918","0.0-2.0-0.8","","img/test1.PNG","32","practice","32","true","","","",""
"null","","html-keyboard-response","27","316930","0.0-2.0-1.8","","<img src=""img/test1-reward.PNG"" border=""10px; grey"">","null","","","","","","",""
"null","","html-keyboard-response","28","317942","0.0-2.0-2.8","","<div style=""font-size:60px;"">+</div>","null","","","","","","",""
"null","","image-keyboard-response","29","319448","0.0-2.0-0.9","","img/test2.PNG","null","practice","null","true","","","",""
"null","","html-keyboard-response","30","320459","0.0-2.0-1.9","","<img src=""img/test2-reward.PNG"">","null","","","","","","",""
"null","","html-keyboard-response","31","321472","0.0-2.0-2.9","","<div style=""font-size:60px;"">+</div>","null","","","","","","",""
"525.4449999993085","","image-keyboard-response","32","321999","0.0-2.0-0.10","","img/test1.PNG","32","practice","32","true","","","",""
"null","","html-keyboard-response","33","323008","0.0-2.0-1.10","","<img src=""img/test1-reward.PNG"" border=""10px; grey"">","null","","","","","","",""
"null","","html-keyboard-response","34","324019","0.0-2.0-2.10","","<div style=""font-size:60px;"">+</div>","null","","","","","","",""
"null","","image-keyboard-response","35","325533","0.0-2.0-0.11","","img/test3.PNG","null","practice","null","true","","","",""
"null","","html-keyboard-response","36","326543","0.0-2.0-1.11","","<img src=""img/test3-reward.PNG"">","null","","","","","","",""
"null","","html-keyboard-response","37","327553","0.0-2.0-2.11","","<div style=""font-size:60px;"">+</div>","null","","","","","","",""
"5450.749999996333","","instructions","38","333004","0.0-3.0","[{""page_index"":0,""viewing_time"":5450.519999998505}]","","","","","","","","",""
"1310.589999993681","","image-keyboard-response","39","334316","0.0-4.0-0.0","","img/blue.png","32","trial","null","false","0.2,0.8","2:nogo_b","",""
"null","","html-keyboard-response","40","335322","0.0-4.0-1.0","","<img src=""img/blue-n.png"" border=""10"">","null","trial","null","","0.2,0.8","2:nogo_b","0",""
"null","","html-keyboard-response","41","336330","0.0-4.0-2.0","","<div style=""font-size:60px;"">+</div>","null","","","","","","",""
"946.0799999942537","","image-keyboard-response","42","337277","0.0-4.0-0.1","","img/pink.png","32","trial","32","true","0.8,0.2","1:go_a","",""
"null","","html-keyboard-response","43","338292","0.0-4.0-1.1","","<img src=""img/pink-r.png"" border=""10"">","null","trial","32","","0.8,0.2","1:go_a","1",""
"null","","html-keyboard-response","44","339300","0.0-4.0-2.1","","<div style=""font-size:60px;"">+</div>","null","","","","","","",""
"936.7249999995693","","image-keyboard-response","45","340238","0.0-4.0-0.2","","img/blue.png","32","trial","null","false","0.2,0.8","2:nogo_b","",""
"null","","html-keyboard-response","46","341247","0.0-4.0-1.2","","<img src=""img/blue-n.png"" border=""10"">","null","trial","null","","0.2,0.8","2:nogo_b","0",""
"null","","html-keyboard-response","47","342262","0.0-4.0-2.2","","<div style=""font-size:60px;"">+</div>","null","","","","","","",""
"522.0100000005914","","image-keyboard-response","48","342785","0.0-4.0-0.3","","img/pink.png","32","trial","32","true","0.8,0.2","1:go_a","",""
"null","","html-keyboard-response","49","343798","0.0-4.0-1.3","","<img src=""img/pink-r.png"" border=""10"">","null","trial","32","","0.8,0.2","1:go_a","1",""
"null","","html-keyboard-response","50","344812","0.0-4.0-2.3","","<div style=""font-size:60px;"">+</div>","null","","","","","","",""
"null","","image-keyboard-response","51","346319","0.0-4.0-0.4","","img/blue.png","null","trial","null","true","0.2,0.8","2:nogo_b","",""
"null","","html-keyboard-response","52","347332","0.0-4.0-1.4","","<img src=""img/blue-n.png"">","null","trial","null","","0.2,0.8","2:nogo_b","0",""
"null","","html-keyboard-response","53","348345","0.0-4.0-2.4","","<div style=""font-size:60px;"">+</div>","null","","","","","","",""
"598.1899999969755","","image-keyboard-response","54","348944","0.0-4.0-0.5","","img/pink.png","32","trial","32","true","0.8,0.2","1:go_a","",""
"null","","html-keyboard-response","55","349954","0.0-4.0-1.5","","<img src=""img/pink-r.png"" border=""10"">","null","trial","32","","0.8,0.2","1:go_a","1",""
"null","","html-keyboard-response","56","350964","0.0-4.0-2.5","","<div style=""font-size:60px;"">+</div>","null","","","","","","",""
"null","","image-keyboard-response","57","352474","0.0-4.0-0.6","","img/blue.png","null","trial","null","true","0.2,0.8","2:nogo_b","",""
"null","","html-keyboard-response","58","353485","0.0-4.0-1.6","","<img src=""img/blue-r.png"">","null","trial","null","","0.2,0.8","2:nogo_b","1",""
"null","","html-keyboard-response","59","354494","0.0-4.0-2.6","","<div style=""font-size:60px;"">+</div>","null","","","","","","",""
"567.895000000135","","image-keyboard-response","60","355063","0.0-4.0-0.7","","img/pink.png","32","trial","32","true","0.8,0.2","1:go_a","",""
"null","","html-keyboard-response","61","356078","0.0-4.0-1.7","","<img src=""img/pink-n.png"" border=""10"">","null","trial","32","","0.8,0.2","1:go_a","0",""
"null","","html-keyboard-response","62","357090","0.0-4.0-2.7","","<div style=""font-size:60px;"">+</div>","null","","","","","","",""
"538.1099999940488","","image-keyboard-response","63","357630","0.0-4.0-0.8","","img/blue.png","32","trial","null","false","0.2,0.8","2:nogo_b","",""
"null","","html-keyboard-response","64","358641","0.0-4.0-1.8","","<img src=""img/blue-n.png"" border=""10"">","null","trial","null","","0.2,0.8","2:nogo_b","0",""
"null","","html-keyboard-response","65","359656","0.0-4.0-2.8","","<div style=""font-size:60px;"">+</div>","null","","","","","","",""
"618.7250000002678","","image-keyboard-response","66","360275","0.0-4.0-0.9","","img/pink.png","32","trial","32","true","0.8,0.2","1:go_a","",""
"null","","html-keyboard-response","67","361285","0.0-4.0-1.9","","<img src=""img/pink-r.png"" border=""10"">","null","trial","32","","0.8,0.2","1:go_a","1",""
"null","","html-keyboard-response","68","362299","0.0-4.0-2.9","","<div style=""font-size:60px;"">+</div>","null","","","","","","",""
"null","","image-keyboard-response","69","363811","0.0-4.0-0.10","","img/blue.png","null","trial","null","true","0.2,0.8","2:nogo_b","",""
"null","","html-keyboard-response","70","364826","0.0-4.0-1.10","","<img src=""img/blue-r.png"">","null","trial","null","","0.2,0.8","2:nogo_b","1",""
"null","","html-keyboard-response","71","365834","0.0-4.0-2.10","","<div style=""font-size:60px;"">+</div>","null","","","","","","",""
"519.6199999991222","","image-keyboard-response","72","366354","0.0-4.0-0.11","","img/pink.png","32","trial","32","true","0.8,0.2","1:go_a","",""
"null","","html-keyboard-response","73","367362","0.0-4.0-1.11","","<img src=""img/pink-n.png"" border=""10"">","null","trial","32","","0.8,0.2","1:go_a","0",""
"null","","html-keyboard-response","74","368372","0.0-4.0-2.11","","<div style=""font-size:60px;"">+</div>","null","","","","","","",""
"982.4700000026496","","image-keyboard-response","75","369355","0.0-4.0-0.12","","img/blue.png","32","trial","null","false","0.2,0.8","2:nogo_b","",""
"null","","html-keyboard-response","76","370362","0.0-4.0-1.12","","<img src=""img/blue-n.png"" border=""10"">","null","trial","null","","0.2,0.8","2:nogo_b","0",""
"null","","html-keyboard-response","77","371378","0.0-4.0-2.12","","<div style=""font-size:60px;"">+</div>","null","","","","","","",""
"463.85000000009313","","image-keyboard-response","78","371843","0.0-4.0-0.13","","img/pink.png","32","trial","32","true","0.8,0.2","1:go_a","",""
"null","","html-keyboard-response","79","372855","0.0-4.0-1.13","","<img src=""img/pink-r.png"" border=""10"">","null","trial","32","","0.8,0.2","1:go_a","1",""
"null","","html-keyboard-response","80","373869","0.0-4.0-2.13","","<div style=""font-size:60px;"">+</div>","null","","","","","","",""
"697.585000001709","","image-keyboard-response","81","374567","0.0-4.0-0.14","","img/pink.png","32","trial","32","true","0.8,0.2","1:go_a","",""
"null","","html-keyboard-response","82","375583","0.0-4.0-1.14","","<img src=""img/pink-r.png"" border=""10"">","null","trial","32","","0.8,0.2","1:go_a","1",""
"null","","html-keyboard-response","83","376597","0.0-4.0-2.14","","<div style=""font-size:60px;"">+</div>","null","","","","","","",""
"null","","image-keyboard-response","84","378103","0.0-4.0-0.15","","img/blue.png","null","trial","null","true","0.2,0.8","2:nogo_b","",""
"null","","html-keyboard-response","85","379111","0.0-4.0-1.15","","<img src=""img/blue-r.png"">","null","trial","null","","0.2,0.8","2:nogo_b","1",""
"null","","html-keyboard-response","86","380127","0.0-4.0-2.15","","<div style=""font-size:60px;"">+</div>","null","","","","","","",""
"null","","image-keyboard-response","87","381639","0.0-4.0-0.16","","img/blue.png","null","trial","null","true","0.2,0.8","2:nogo_b","",""
"null","","html-keyboard-response","88","382654","0.0-4.0-1.16","","<img src=""img/blue-r.png"">","null","trial","null","","0.2,0.8","2:nogo_b","1",""
"null","","html-keyboard-response","89","383663","0.0-4.0-2.16","","<div style=""font-size:60px;"">+</div>","null","","","","","","",""
"595.645000001241","","image-keyboard-response","90","384260","0.0-4.0-0.17","","img/pink.png","32","trial","32","true","0.8,0.2","1:go_a","",""
"null","","html-keyboard-response","91","385264","0.0-4.0-1.17","","<img src=""img/pink-r.png"" border=""10"">","null","trial","32","","0.8,0.2","1:go_a","1",""
"null","","html-keyboard-response","92","386280","0.0-4.0-2.17","","<div style=""font-size:60px;"">+</div>","null","","","","","","",""
"465.8049999998184","","image-keyboard-response","93","386747","0.0-4.0-0.18","","img/blue.png","32","trial","null","false","0.2,0.8","2:nogo_b","",""
"null","","html-keyboard-response","94","387752","0.0-4.0-1.18","","<img src=""img/blue-n.png"" border=""10"">","null","trial","null","","0.2,0.8","2:nogo_b","0",""
"null","","html-keyboard-response","95","388763","0.0-4.0-2.18","","<div style=""font-size:60px;"">+</div>","null","","","","","","",""
"588.6450000034529","","image-keyboard-response","96","389352","0.0-4.0-0.19","","img/pink.png","32","trial","32","true","0.8,0.2","1:go_a","",""
"null","","html-keyboard-response","97","390366","0.0-4.0-1.19","","<img src=""img/pink-r.png"" border=""10"">","null","trial","32","","0.8,0.2","1:go_a","1",""
"null","","html-keyboard-response","98","391376","0.0-4.0-2.19","","<div style=""font-size:60px;"">+</div>","null","","","","","","",""
"621.500000001106","","image-keyboard-response","99","391998","0.0-4.0-0.20","","img/pink.png","32","trial","32","true","0.8,0.2","1:go_a","",""
"null","","html-keyboard-response","100","393012","0.0-4.0-1.20","","<img src=""img/pink-r.png"" border=""10"">","null","trial","32","","0.8,0.2","1:go_a","1",""
"null","","html-keyboard-response","101","394021","0.0-4.0-2.20","","<div style=""font-size:60px;"">+</div>","null","","","","","","",""
"977.2799999991548","","image-keyboard-response","102","394999","0.0-4.0-0.21","","img/blue.png","32","trial","null","false","0.2,0.8","2:nogo_b","",""
"null","","html-keyboard-response","103","396003","0.0-4.0-1.21","","<img src=""img/blue-n.png"" border=""10"">","null","trial","null","","0.2,0.8","2:nogo_b","0",""
"null","","html-keyboard-response","104","397016","0.0-4.0-2.21","","<div style=""font-size:60px;"">+</div>","null","","","","","","",""
"784.9850000056904","","image-keyboard-response","105","397802","0.0-4.0-0.22","","img/blue.png","32","trial","null","false","0.2,0.8","2:nogo_b","",""
"null","","html-keyboard-response","106","398806","0.0-4.0-1.22","","<img src=""img/blue-n.png"" border=""10"">","null","trial","null","","0.2,0.8","2:nogo_b","0",""
"null","","html-keyboard-response","107","399821","0.0-4.0-2.22","","<div style=""font-size:60px;"">+</div>","null","","","","","","",""
"546.1050000012619","","image-keyboard-response","108","400369","0.0-4.0-0.23","","img/pink.png","32","trial","32","true","0.8,0.2","1:go_a","",""
"null","","html-keyboard-response","109","401375","0.0-4.0-1.23","","<img src=""img/pink-r.png"" border=""10"">","null","trial","32","","0.8,0.2","1:go_a","1",""
"null","","html-keyboard-response","110","402386","0.0-4.0-2.23","","<div style=""font-size:60px;"">+</div>","null","","","","","","",""
"468.5349999999744","","image-keyboard-response","111","402856","0.0-4.0-0.24","","img/pink.png","32","trial","32","true","0.8,0.2","1:go_a","",""
"null","","html-keyboard-response","112","403868","0.0-4.0-1.24","","<img src=""img/pink-r.png"" border=""10"">","null","trial","32","","0.8,0.2","1:go_a","1",""
"null","","html-keyboard-response","113","404881","0.0-4.0-2.24","","<div style=""font-size:60px;"">+</div>","null","","","","","","",""
"null","","image-keyboard-response","114","406395","0.0-4.0-0.25","","img/blue.png","null","trial","null","true","0.2,0.8","2:nogo_b","",""
"null","","html-keyboard-response","115","407411","0.0-4.0-1.25","","<img src=""img/blue-r.png"">","null","trial","null","","0.2,0.8","2:nogo_b","1",""
"null","","html-keyboard-response","116","408426","0.0-4.0-2.25","","<div style=""font-size:60px;"">+</div>","null","","","","","","",""
"943.5249999951338","","image-keyboard-response","117","409370","0.0-4.0-0.26","","img/blue.png","32","trial","null","false","0.2,0.8","2:nogo_b","",""
"null","","html-keyboard-response","118","410382","0.0-4.0-1.26","","<img src=""img/blue-r.png"" border=""10"">","null","trial","null","","0.2,0.8","2:nogo_b","1",""
"null","","html-keyboard-response","119","411393","0.0-4.0-2.26","","<div style=""font-size:60px;"">+</div>","null","","","","","","",""
"502.4850000045262","","image-keyboard-response","120","411896","0.0-4.0-0.27","","img/pink.png","32","trial","32","true","0.8,0.2","1:go_a","",""
"null","","html-keyboard-response","121","412908","0.0-4.0-1.27","","<img src=""img/pink-n.png"" border=""10"">","null","trial","32","","0.8,0.2","1:go_a","0",""
"null","","html-keyboard-response","122","413922","0.0-4.0-2.27","","<div style=""font-size:60px;"">+</div>","null","","","","","","",""
"816.9400000042515","","image-keyboard-response","123","414740","0.0-4.0-0.28","","img/blue.png","32","trial","null","false","0.2,0.8","2:nogo_b","",""
"null","","html-keyboard-response","124","415756","0.0-4.0-1.28","","<img src=""img/blue-n.png"" border=""10"">","null","trial","null","","0.2,0.8","2:nogo_b","0",""
"null","","html-keyboard-response","125","416766","0.0-4.0-2.28","","<div style=""font-size:60px;"">+</div>","null","","","","","","",""
"697.2549999991315","","image-keyboard-response","126","417464","0.0-4.0-0.29","","img/pink.png","32","trial","32","true","0.8,0.2","1:go_a","",""
"null","","html-keyboard-response","127","418475","0.0-4.0-1.29","","<img src=""img/pink-r.png"" border=""10"">","null","trial","32","","0.8,0.2","1:go_a","1",""
"null","","html-keyboard-response","128","419491","0.0-4.0-2.29","","<div style=""font-size:60px;"">+</div>","null","","","","","","",""
"null","","image-keyboard-response","129","421002","0.0-4.0-0.30","","img/blue.png","null","trial","null","true","0.2,0.8","2:nogo_b","",""
"null","","html-keyboard-response","130","422016","0.0-4.0-1.30","","<img src=""img/blue-r.png"">","null","trial","null","","0.2,0.8","2:nogo_b","1",""
"null","","html-keyboard-response","131","423018","0.0-4.0-2.30","","<div style=""font-size:60px;"">+</div>","null","","","","","","",""
"840.71500000573","","image-keyboard-response","132","423860","0.0-4.0-0.31","","img/pink.png","32","trial","32","true","0.8,0.2","1:go_a","",""
"null","","html-keyboard-response","133","424866","0.0-4.0-1.31","","<img src=""img/pink-r.png"" border=""10"">","null","trial","32","","0.8,0.2","1:go_a","1",""
"null","","html-keyboard-response","134","425877","0.0-4.0-2.31","","<div style=""font-size:60px;"">+</div>","null","","","","","","",""
"null","","image-keyboard-response","135","427392","0.0-4.0-0.32","","img/pink.png","null","trial","32","false","0.8,0.2","1:go_a","",""
"null","","html-keyboard-response","136","428405","0.0-4.0-1.32","","<img src=""img/pink-r.png"">","null","trial","32","","0.8,0.2","1:go_a","1",""
"null","","html-keyboard-response","137","429418","0.0-4.0-2.32","","<div style=""font-size:60px;"">+</div>","null","","","","","","",""
"null","","image-keyboard-response","138","430923","0.0-4.0-0.33","","img/blue.png","null","trial","null","true","0.2,0.8","2:nogo_b","",""
"null","","html-keyboard-response","139","431938","0.0-4.0-1.33","","<img src=""img/blue-r.png"">","null","trial","null","","0.2,0.8","2:nogo_b","1",""
"null","","html-keyboard-response","140","432945","0.0-4.0-2.33","","<div style=""font-size:60px;"">+</div>","null","","","","","","",""
"546.6400000004796","","image-keyboard-response","141","433493","0.0-4.0-0.34","","img/pink.png","32","trial","32","true","0.8,0.2","1:go_a","",""
"null","","html-keyboard-response","142","434499","0.0-4.0-1.34","","<img src=""img/pink-r.png"" border=""10"">","null","trial","32","","0.8,0.2","1:go_a","1",""
"null","","html-keyboard-response","143","435511","0.0-4.0-2.34","","<div style=""font-size:60px;"">+</div>","null","","","","","","",""
"448.7749999971129","","image-keyboard-response","144","435960","0.0-4.0-0.35","","img/blue.png","32","trial","null","false","0.2,0.8","2:nogo_b","",""
"null","","html-keyboard-response","145","436971","0.0-4.0-1.35","","<img src=""img/blue-n.png"" border=""10"">","null","trial","null","","0.2,0.8","2:nogo_b","0",""
"null","","html-keyboard-response","146","437978","0.0-4.0-2.35","","<div style=""font-size:60px;"">+</div>","null","","","","","","",""
"627.4849999972503","","image-keyboard-response","147","438606","0.0-4.0-0.36","","img/blue.png","32","trial","null","false","0.2,0.8","2:nogo_b","",""
"null","","html-keyboard-response","148","439616","0.0-4.0-1.36","","<img src=""img/blue-n.png"" border=""10"">","null","trial","null","","0.2,0.8","2:nogo_b","0",""
"null","","html-keyboard-response","149","440631","0.0-4.0-2.36","","<div style=""font-size:60px;"">+</div>","null","","","","","","",""
"461.1000000004424","","image-keyboard-response","150","441093","0.0-4.0-0.37","","img/pink.png","32","trial","32","true","0.8,0.2","1:go_a","",""
"null","","html-keyboard-response","151","442104","0.0-4.0-1.37","","<img src=""img/pink-r.png"" border=""10"">","null","trial","32","","0.8,0.2","1:go_a","1",""
"null","","html-keyboard-response","152","443117","0.0-4.0-2.37","","<div style=""font-size:60px;"">+</div>","null","","","","","","",""
"462.6250000001164","","image-keyboard-response","153","443581","0.0-4.0-0.38","","img/blue.png","32","trial","null","false","0.2,0.8","2:nogo_b","",""
"null","","html-keyboard-response","154","444585","0.0-4.0-1.38","","<img src=""img/blue-r.png"" border=""10"">","null","trial","null","","0.2,0.8","2:nogo_b","1",""
"null","","html-keyboard-response","155","445590","0.0-4.0-2.38","","<div style=""font-size:60px;"">+</div>","null","","","","","","",""
"635.470000001078","","image-keyboard-response","156","446226","0.0-4.0-0.39","","img/pink.png","32","trial","32","true","0.8,0.2","1:go_a","",""
"null","","html-keyboard-response","157","447241","0.0-4.0-1.39","","<img src=""img/pink-r.png"" border=""10"">","null","trial","32","","0.8,0.2","1:go_a","1",""
"null","","html-keyboard-response","158","448255","0.0-4.0-2.39","","<div style=""font-size:60px;"">+</div>","null","","","","","","",""
"null","","image-keyboard-response","159","449760","0.0-4.0-0.40","","img/blue.png","null","trial","null","true","0.2,0.8","2:nogo_b","",""
"null","","html-keyboard-response","160","450773","0.0-4.0-1.40","","<img src=""img/blue-n.png"">","null","trial","null","","0.2,0.8","2:nogo_b","0",""
"null","","html-keyboard-response","161","451784","0.0-4.0-2.40","","<div style=""font-size:60px;"">+</div>","null","","","","","","",""
"639.8650000046473","","image-keyboard-response","162","452425","0.0-4.0-0.41","","img/pink.png","32","trial","32","true","0.8,0.2","1:go_a","",""
"null","","html-keyboard-response","163","453431","0.0-4.0-1.41","","<img src=""img/pink-r.png"" border=""10"">","null","trial","32","","0.8,0.2","1:go_a","1",""
"null","","html-keyboard-response","164","454438","0.0-4.0-2.41","","<div style=""font-size:60px;"">+</div>","null","","","","","","",""
"571.2500000008731","","image-keyboard-response","165","455011","0.0-4.0-0.42","","img/blue.png","32","trial","null","false","0.2,0.8","2:nogo_b","",""
"null","","html-keyboard-response","166","456022","0.0-4.0-1.42","","<img src=""img/blue-n.png"" border=""10"">","null","trial","null","","0.2,0.8","2:nogo_b","0",""
"null","","html-keyboard-response","167","457039","0.0-4.0-2.42","","<div style=""font-size:60px;"">+</div>","null","","","","","","",""
"498.10500000603497","","image-keyboard-response","168","457538","0.0-4.0-0.43","","img/pink.png","32","trial","32","true","0.8,0.2","1:go_a","",""
"null","","html-keyboard-response","169","458543","0.0-4.0-1.43","","<img src=""img/pink-r.png"" border=""10"">","null","trial","32","","0.8,0.2","1:go_a","1",""
"null","","html-keyboard-response","170","459558","0.0-4.0-2.43","","<div style=""font-size:60px;"">+</div>","null","","","","","","",""
"820.1000000044587","","image-keyboard-response","171","460381","0.0-4.0-0.44","","img/pink.png","32","trial","32","true","0.8,0.2","1:go_a","",""
"null","","html-keyboard-response","172","461390","0.0-4.0-1.44","","<img src=""img/pink-r.png"" border=""10"">","null","trial","32","","0.8,0.2","1:go_a","1",""
"null","","html-keyboard-response","173","462403","0.0-4.0-2.44","","<div style=""font-size:60px;"">+</div>","null","","","","","","",""
"503.75999999960186","","image-keyboard-response","174","462907","0.0-4.0-0.45","","img/blue.png","32","trial","null","false","0.2,0.8","2:nogo_b","",""
"null","","html-keyboard-response","175","463922","0.0-4.0-1.45","","<img src=""img/blue-n.png"" border=""10"">","null","trial","null","","0.2,0.8","2:nogo_b","0",""
"null","","html-keyboard-response","176","464934","0.0-4.0-2.45","","<div style=""font-size:60px;"">+</div>","null","","","","","","",""
"696.9549999994342","","image-keyboard-response","177","465632","0.0-4.0-0.46","","img/blue.png","32","trial","null","false","0.2,0.8","2:nogo_b","",""
"null","","html-keyboard-response","178","466649","0.0-4.0-1.46","","<img src=""img/blue-n.png"" border=""10"">","null","trial","null","","0.2,0.8","2:nogo_b","0",""
"null","","html-keyboard-response","179","467664","0.0-4.0-2.46","","<div style=""font-size:60px;"">+</div>","null","","","","","","",""
"454.7600000005332","","image-keyboard-response","180","468119","0.0-4.0-0.47","","img/pink.png","32","trial","32","true","0.8,0.2","1:go_a","",""
"null","","html-keyboard-response","181","469132","0.0-4.0-1.47","","<img src=""img/pink-n.png"" border=""10"">","null","trial","32","","0.8,0.2","1:go_a","0",""
"null","","html-keyboard-response","182","470147","0.0-4.0-2.47","","<div style=""font-size:60px;"">+</div>","null","","","","","","",""
"773.8800000006449","","image-keyboard-response","183","470922","0.0-4.0-0.48","","img/blue.png","32","trial","null","false","0.2,0.8","2:nogo_b","",""
"null","","html-keyboard-response","184","471936","0.0-4.0-1.48","","<img src=""img/blue-n.png"" border=""10"">","null","trial","null","","0.2,0.8","2:nogo_b","0",""
"null","","html-keyboard-response","185","472946","0.0-4.0-2.48","","<div style=""font-size:60px;"">+</div>","null","","","","","","",""
"1015.5299999969429","","image-keyboard-response","186","473963","0.0-4.0-0.49","","img/pink.png","32","trial","32","true","0.8,0.2","1:go_a","",""
"null","","html-keyboard-response","187","474972","0.0-4.0-1.49","","<img src=""img/pink-n.png"" border=""10"">","null","trial","32","","0.8,0.2","1:go_a","0",""
"null","","html-keyboard-response","188","475987","0.0-4.0-2.49","","<div style=""font-size:60px;"">+</div>","null","","","","","","",""
"null","","image-keyboard-response","189","477492","0.0-4.0-0.50","","img/blue.png","null","trial","null","true","0.2,0.8","2:nogo_b","",""
"null","","html-keyboard-response","190","478501","0.0-4.0-1.50","","<img src=""img/blue-r.png"">","null","trial","null","","0.2,0.8","2:nogo_b","1",""
"null","","html-keyboard-response","191","479513","0.0-4.0-2.50","","<div style=""font-size:60px;"">+</div>","null","","","","","","",""
"607.2449999992386","","image-keyboard-response","192","480122","0.0-4.0-0.51","","img/pink.png","32","trial","32","true","0.8,0.2","1:go_a","",""
"null","","html-keyboard-response","193","481139","0.0-4.0-1.51","","<img src=""img/pink-r.png"" border=""10"">","null","trial","32","","0.8,0.2","1:go_a","1",""
"null","","html-keyboard-response","194","482143","0.0-4.0-2.51","","<div style=""font-size:60px;"">+</div>","null","","","","","","",""
"null","","image-keyboard-response","195","483650","0.0-4.0-0.52","","img/blue.png","null","trial","null","true","0.2,0.8","2:nogo_b","",""
"null","","html-keyboard-response","196","484667","0.0-4.0-1.52","","<img src=""img/blue-n.png"">","null","trial","null","","0.2,0.8","2:nogo_b","0",""
"null","","html-keyboard-response","197","485682","0.0-4.0-2.52","","<div style=""font-size:60px;"">+</div>","null","","","","","","",""
"478.9650000020629","","image-keyboard-response","198","486162","0.0-4.0-0.53","","img/pink.png","32","trial","32","true","0.8,0.2","1:go_a","",""
"null","","html-keyboard-response","199","487167","0.0-4.0-1.53","","<img src=""img/pink-r.png"" border=""10"">","null","trial","32","","0.8,0.2","1:go_a","1",""
"null","","html-keyboard-response","200","488182","0.0-4.0-2.53","","<div style=""font-size:60px;"">+</div>","null","","","","","","",""
"860.804999996617","","image-keyboard-response","201","489044","0.0-4.0-0.54","","img/pink.png","32","trial","32","true","0.8,0.2","1:go_a","",""
"null","","html-keyboard-response","202","490060","0.0-4.0-1.54","","<img src=""img/pink-r.png"" border=""10"">","null","trial","32","","0.8,0.2","1:go_a","1",""
"null","","html-keyboard-response","203","491069","0.0-4.0-2.54","","<div style=""font-size:60px;"">+</div>","null","","","","","","",""
"579.8999999969965","","image-keyboard-response","204","491650","0.0-4.0-0.55","","img/blue.png","32","trial","null","false","0.2,0.8","2:nogo_b","",""
"null","","html-keyboard-response","205","492662","0.0-4.0-1.55","","<img src=""img/blue-n.png"" border=""10"">","null","trial","null","","0.2,0.8","2:nogo_b","0",""
"null","","html-keyboard-response","206","493673","0.0-4.0-2.55","","<div style=""font-size:60px;"">+</div>","null","","","","","","",""
"937.0200000048499","","image-keyboard-response","207","494611","0.0-4.0-0.56","","img/blue.png","32","trial","null","false","0.2,0.8","2:nogo_b","",""
"null","","html-keyboard-response","208","495616","0.0-4.0-1.56","","<img src=""img/blue-r.png"" border=""10"">","null","trial","null","","0.2,0.8","2:nogo_b","1",""
"null","","html-keyboard-response","209","496628","0.0-4.0-2.56","","<div style=""font-size:60px;"">+</div>","null","","","","","","",""
"430.3499999950873","","image-keyboard-response","210","497059","0.0-4.0-0.57","","img/pink.png","32","trial","32","true","0.8,0.2","1:go_a","",""
"null","","html-keyboard-response","211","498065","0.0-4.0-1.57","","<img src=""img/pink-r.png"" border=""10"">","null","trial","32","","0.8,0.2","1:go_a","1",""
"null","","html-keyboard-response","212","499078","0.0-4.0-2.57","","<div style=""font-size:60px;"">+</div>","null","","","","","","",""
"625.5699999965145","","image-keyboard-response","213","499705","0.0-4.0-0.58","","img/pink.png","32","trial","32","true","0.8,0.2","1:go_a","",""
"null","","html-keyboard-response","214","500719","0.0-4.0-1.58","","<img src=""img/pink-r.png"" border=""10"">","null","trial","32","","0.8,0.2","1:go_a","1",""
"null","","html-keyboard-response","215","501734","0.0-4.0-2.58","","<div style=""font-size:60px;"">+</div>","null","","","","","","",""
"null","","image-keyboard-response","216","503238","0.0-4.0-0.59","","img/blue.png","null","trial","null","true","0.2,0.8","2:nogo_b","",""
"null","","html-keyboard-response","217","504251","0.0-4.0-1.59","","<img src=""img/blue-r.png"">","null","trial","null","","0.2,0.8","2:nogo_b","1",""
"null","","html-keyboard-response","218","505257","0.0-4.0-2.59","","<div style=""font-size:60px;"">+</div>","null","","","","","","",""
"7848.365000005288","","instructions","219","513106","0.0-5.0","[{""page_index"":0,""viewing_time"":7848.050000000512}]","","","","","","","","",""
"731.3450000001467","","image-keyboard-response","220","513839","0.0-6.0-0.0","","img/pink.png","32","trial","32","true","0.8,0.2","1:go_a","",""
"null","","html-keyboard-response","221","514845","0.0-6.0-1.0","","<img src=""img/pink-r.png"" border=""10"">","null","trial","32","","0.8,0.2","1:go_a","1",""
"null","","html-keyboard-response","222","515860","0.0-6.0-2.0","","<div style=""font-size:60px;"">+</div>","null","","","","","","",""
"662.5550000026124","","image-keyboard-response","223","516523","0.0-6.0-0.1","","img/blue.png","32","trial","null","false","0.2,0.8","4:nogo_d","",""
"null","","html-keyboard-response","224","517537","0.0-6.0-1.1","","<img src=""img/blue-r.png"" border=""10"">","null","trial","null","","0.2,0.8","4:nogo_d","1",""
"null","","html-keyboard-response","225","518551","0.0-6.0-2.1","","<div style=""font-size:60px;"">+</div>","null","","","","","","",""
"null","","image-keyboard-response","226","520059","0.0-6.0-0.2","","img/green.png","null","trial","null","true","0.2,0.8","2:nogo_b","",""
"null","","html-keyboard-response","227","521068","0.0-6.0-1.2","","<img src=""img/green-r.png"">","null","trial","null","","0.2,0.8","2:nogo_b","1",""
"null","","html-keyboard-response","228","522070","0.0-6.0-2.2","","<div style=""font-size:60px;"">+</div>","null","","","","","","",""
"null","","image-keyboard-response","229","523587","0.0-6.0-0.3","","img/grey.png","null","trial","32","false","0.8,0.2","3:go_c","",""
"null","","html-keyboard-response","230","524601","0.0-6.0-1.3","","<img src=""img/grey-r.png"">","null","trial","32","","0.8,0.2","3:go_c","1",""
"null","","html-keyboard-response","231","525615","0.0-6.0-2.3","","<div style=""font-size:60px;"">+</div>","null","","","","","","",""
"817.3749999988358","","image-keyboard-response","232","526433","0.0-6.0-0.4","","img/green.png","32","trial","null","false","0.2,0.8","2:nogo_b","",""
"null","","html-keyboard-response","233","527449","0.0-6.0-1.4","","<img src=""img/green-n.png"" border=""10"">","null","trial","null","","0.2,0.8","2:nogo_b","0",""
"null","","html-keyboard-response","234","528455","0.0-6.0-2.4","","<div style=""font-size:60px;"">+</div>","null","","","","","","",""
"543.649999999674","","image-keyboard-response","235","529000","0.0-6.0-0.5","","img/pink.png","32","trial","32","true","0.8,0.2","1:go_a","",""
"null","","html-keyboard-response","236","530005","0.0-6.0-1.5","","<img src=""img/pink-r.png"" border=""10"">","null","trial","32","","0.8,0.2","1:go_a","1",""
"null","","html-keyboard-response","237","531009","0.0-6.0-2.5","","<div style=""font-size:60px;"">+</div>","null","","","","","","",""
"null","","image-keyboard-response","238","532516","0.0-6.0-0.6","","img/grey.png","null","trial","32","false","0.8,0.2","3:go_c","",""
"null","","html-keyboard-response","239","533519","0.0-6.0-1.6","","<img src=""img/grey-n.png"">","null","trial","32","","0.8,0.2","3:go_c","0",""
"null","","html-keyboard-response","240","534526","0.0-6.0-2.6","","<div style=""font-size:60px;"">+</div>","null","","","","","","",""
"710.1200000033714","","image-keyboard-response","241","535237","0.0-6.0-0.7","","img/blue.png","32","trial","null","false","0.2,0.8","4:nogo_d","",""
"null","","html-keyboard-response","242","536251","0.0-6.0-1.7","","<img src=""img/blue-r.png"" border=""10"">","null","trial","null","","0.2,0.8","4:nogo_d","1",""
"null","","html-keyboard-response","243","537263","0.0-6.0-2.7","","<div style=""font-size:60px;"">+</div>","null","","","","","","",""
"579.8849999991944","","image-keyboard-response","244","537844","0.0-6.0-0.8","","img/pink.png","32","trial","32","true","0.8,0.2","1:go_a","",""
"null","","html-keyboard-response","245","538851","0.0-6.0-1.8","","<img src=""img/pink-r.png"" border=""10"">","null","trial","32","","0.8,0.2","1:go_a","1",""
"null","","html-keyboard-response","246","539863","0.0-6.0-2.8","","<div style=""font-size:60px;"">+</div>","null","","","","","","",""
"null","","image-keyboard-response","247","541367","0.0-6.0-0.9","","img/grey.png","null","trial","32","false","0.8,0.2","3:go_c","",""
"null","","html-keyboard-response","248","542381","0.0-6.0-1.9","","<img src=""img/grey-n.png"">","null","trial","32","","0.8,0.2","3:go_c","0",""
"null","","html-keyboard-response","249","543396","0.0-6.0-2.9","","<div style=""font-size:60px;"">+</div>","null","","","","","","",""
"882.2099999962375","","image-keyboard-response","250","544279","0.0-6.0-0.10","","img/blue.png","32","trial","null","false","0.2,0.8","4:nogo_d","",""
"null","","html-keyboard-response","251","545295","0.0-6.0-1.10","","<img src=""img/blue-n.png"" border=""10"">","null","trial","null","","0.2,0.8","4:nogo_d","0",""
"null","","html-keyboard-response","252","546296","0.0-6.0-2.10","","<div style=""font-size:60px;"">+</div>","null","","","","","","",""
"705.964999993681","","image-keyboard-response","253","547003","0.0-6.0-0.11","","img/green.png","32","trial","null","false","0.2,0.8","2:nogo_b","",""
"null","","html-keyboard-response","254","548008","0.0-6.0-1.11","","<img src=""img/green-n.png"" border=""10"">","null","trial","null","","0.2,0.8","2:nogo_b","0",""
"null","","html-keyboard-response","255","549016","0.0-6.0-2.11","","<div style=""font-size:60px;"">+</div>","null","","","","","","",""
"789.5700000007637","","image-keyboard-response","256","549807","0.0-6.0-0.12","","img/green.png","32","trial","null","false","0.2,0.8","2:nogo_b","",""
"null","","html-keyboard-response","257","550816","0.0-6.0-1.12","","<img src=""img/green-n.png"" border=""10"">","null","trial","null","","0.2,0.8","2:nogo_b","0",""
"null","","html-keyboard-response","258","551823","0.0-6.0-2.12","","<div style=""font-size:60px;"">+</div>","null","","","","","","",""
"548.6750000054017","","image-keyboard-response","259","552373","0.0-6.0-0.13","","img/pink.png","32","trial","32","true","0.8,0.2","1:go_a","",""
"null","","html-keyboard-response","260","553375","0.0-6.0-1.13","","<img src=""img/pink-r.png"" border=""10"">","null","trial","32","","0.8,0.2","1:go_a","1",""
"null","","html-keyboard-response","261","554388","0.0-6.0-2.13","","<div style=""font-size:60px;"">+</div>","null","","","","","","",""
"471.07499999389984","","image-keyboard-response","262","554860","0.0-6.0-0.14","","img/blue.png","32","trial","null","false","0.2,0.8","4:nogo_d","",""
"null","","html-keyboard-response","263","555862","0.0-6.0-1.14","","<img src=""img/blue-n.png"" border=""10"">","null","trial","null","","0.2,0.8","4:nogo_d","0",""
"null","","html-keyboard-response","264","556878","0.0-6.0-2.14","","<div style=""font-size:60px;"">+</div>","null","","","","","","",""
"null","","image-keyboard-response","265","558381","0.0-6.0-0.15","","img/grey.png","null","trial","32","false","0.8,0.2","3:go_c","",""
"null","","html-keyboard-response","266","559387","0.0-6.0-1.15","","<img src=""img/grey-n.png"">","null","trial","32","","0.8,0.2","3:go_c","0",""
"null","","html-keyboard-response","267","560402","0.0-6.0-2.15","","<div style=""font-size:60px;"">+</div>","null","","","","","","",""
"1009.9699999990407","","image-keyboard-response","268","561414","0.0-6.0-0.16","","img/grey.png","32","trial","32","true","0.8,0.2","3:go_c","",""
"null","","html-keyboard-response","269","562419","0.0-6.0-1.16","","<img src=""img/grey-r.png"" border=""10"">","null","trial","32","","0.8,0.2","3:go_c","1",""
"null","","html-keyboard-response","270","563434","0.0-6.0-2.16","","<div style=""font-size:60px;"">+</div>","null","","","","","","",""
"null","","image-keyboard-response","271","564951","0.0-6.0-0.17","","img/blue.png","null","trial","null","true","0.2,0.8","4:nogo_d","",""
"null","","html-keyboard-response","272","565962","0.0-6.0-1.17","","<img src=""img/blue-n.png"">","null","trial","null","","0.2,0.8","4:nogo_d","0",""
"null","","html-keyboard-response","273","566976","0.0-6.0-2.17","","<div style=""font-size:60px;"">+</div>","null","","","","","","",""
"556.4799999992829","","image-keyboard-response","274","567534","0.0-6.0-0.18","","img/pink.png","32","trial","32","true","0.8,0.2","1:go_a","",""
"null","","html-keyboard-response","275","568541","0.0-6.0-1.18","","<img src=""img/pink-n.png"" border=""10"">","null","trial","32","","0.8,0.2","1:go_a","0",""
"null","","html-keyboard-response","276","569556","0.0-6.0-2.18","","<div style=""font-size:60px;"">+</div>","null","","","","","","",""
"760.3500000041677","","image-keyboard-response","277","570317","0.0-6.0-0.19","","img/green.png","32","trial","null","false","0.2,0.8","2:nogo_b","",""
"null","","html-keyboard-response","278","571321","0.0-6.0-1.19","","<img src=""img/green-n.png"" border=""10"">","null","trial","null","","0.2,0.8","2:nogo_b","0",""
"null","","html-keyboard-response","279","572332","0.0-6.0-2.19","","<div style=""font-size:60px;"">+</div>","null","","","","","","",""
"null","","image-keyboard-response","280","573844","0.0-6.0-0.20","","img/grey.png","null","trial","32","false","0.8,0.2","3:go_c","",""
"null","","html-keyboard-response","281","574853","0.0-6.0-1.20","","<img src=""img/grey-n.png"">","null","trial","32","","0.8,0.2","3:go_c","0",""
"null","","html-keyboard-response","282","575863","0.0-6.0-2.20","","<div style=""font-size:60px;"">+</div>","null","","","","","","",""
"730.3350000001956","","image-keyboard-response","283","576595","0.0-6.0-0.21","","img/blue.png","32","trial","null","false","0.2,0.8","4:nogo_d","",""
"null","","html-keyboard-response","284","577607","0.0-6.0-1.21","","<img src=""img/blue-r.png"" border=""10"">","null","trial","null","","0.2,0.8","4:nogo_d","1",""
"null","","html-keyboard-response","285","578619","0.0-6.0-2.21","","<div style=""font-size:60px;"">+</div>","null","","","","","","",""
"501.589999999851","","image-keyboard-response","286","579122","0.0-6.0-0.22","","img/pink.png","32","trial","32","true","0.8,0.2","1:go_a","",""
"null","","html-keyboard-response","287","580127","0.0-6.0-1.22","","<img src=""img/pink-r.png"" border=""10"">","null","trial","32","","0.8,0.2","1:go_a","1",""
"null","","html-keyboard-response","288","581139","0.0-6.0-2.22","","<div style=""font-size:60px;"">+</div>","null","","","","","","",""
"null","","image-keyboard-response","289","582647","0.0-6.0-0.23","","img/green.png","null","trial","null","true","0.2,0.8","2:nogo_b","",""
"null","","html-keyboard-response","290","583656","0.0-6.0-1.23","","<img src=""img/green-r.png"">","null","trial","null","","0.2,0.8","2:nogo_b","1",""
"null","","html-keyboard-response","291","584669","0.0-6.0-2.23","","<div style=""font-size:60px;"">+</div>","null","","","","","","",""
"649.3849999969825","","image-keyboard-response","292","585320","0.0-6.0-0.24","","img/pink.png","32","trial","32","true","0.8,0.2","1:go_a","",""
"null","","html-keyboard-response","293","586323","0.0-6.0-1.24","","<img src=""img/pink-n.png"" border=""10"">","null","trial","32","","0.8,0.2","1:go_a","0",""
"null","","html-keyboard-response","294","587332","0.0-6.0-2.24","","<div style=""font-size:60px;"">+</div>","null","","","","","","",""
"null","","image-keyboard-response","295","588847","0.0-6.0-0.25","","img/grey.png","null","trial","32","false","0.8,0.2","3:go_c","",""
"null","","html-keyboard-response","296","589853","0.0-6.0-1.25","","<img src=""img/grey-n.png"">","null","trial","32","","0.8,0.2","3:go_c","0",""
"null","","html-keyboard-response","297","590860","0.0-6.0-2.25","","<div style=""font-size:60px;"">+</div>","null","","","","","","",""
"539.7799999990966","","image-keyboard-response","298","591400","0.0-6.0-0.26","","img/blue.png","32","trial","null","false","0.2,0.8","4:nogo_d","",""
"null","","html-keyboard-response","299","592418","0.0-6.0-1.26","","<img src=""img/blue-r.png"" border=""10"">","null","trial","null","","0.2,0.8","4:nogo_d","1",""
"null","","html-keyboard-response","300","593426","0.0-6.0-2.26","","<div style=""font-size:60px;"">+</div>","null","","","","","","",""
"1012.3499999972992","","image-keyboard-response","301","594440","0.0-6.0-0.27","","img/green.png","32","trial","null","false","0.2,0.8","2:nogo_b","",""
"null","","html-keyboard-response","302","595447","0.0-6.0-1.27","","<img src=""img/green-r.png"" border=""10"">","null","trial","null","","0.2,0.8","2:nogo_b","1",""
"null","","html-keyboard-response","303","596460","0.0-6.0-2.27","","<div style=""font-size:60px;"">+</div>","null","","","","","","",""
"624.5450000060955","","image-keyboard-response","304","597086","0.0-6.0-0.28","","img/pink.png","32","trial","32","true","0.8,0.2","1:go_a","",""
"null","","html-keyboard-response","305","598097","0.0-6.0-1.28","","<img src=""img/pink-r.png"" border=""10"">","null","trial","32","","0.8,0.2","1:go_a","1",""
"null","","html-keyboard-response","306","599107","0.0-6.0-2.28","","<div style=""font-size:60px;"">+</div>","null","","","","","","",""
"623.0199999990873","","image-keyboard-response","307","599731","0.0-6.0-0.29","","img/green.png","32","trial","null","false","0.2,0.8","2:nogo_b","",""
"null","","html-keyboard-response","308","600734","0.0-6.0-1.29","","<img src=""img/green-n.png"" border=""10"">","null","trial","null","","0.2,0.8","2:nogo_b","0",""
"null","","html-keyboard-response","309","601748","0.0-6.0-2.29","","<div style=""font-size:60px;"">+</div>","null","","","","","","",""
"null","","image-keyboard-response","310","603264","0.0-6.0-0.30","","img/grey.png","null","trial","32","false","0.8,0.2","3:go_c","",""
"null","","html-keyboard-response","311","604276","0.0-6.0-1.30","","<img src=""img/grey-r.png"">","null","trial","32","","0.8,0.2","3:go_c","1",""
"null","","html-keyboard-response","312","605288","0.0-6.0-2.30","","<div style=""font-size:60px;"">+</div>","null","","","","","","",""
"679.9549999996088","","image-keyboard-response","313","605970","0.0-6.0-0.31","","img/blue.png","32","trial","null","false","0.2,0.8","4:nogo_d","",""
"null","","html-keyboard-response","314","606976","0.0-6.0-1.31","","<img src=""img/blue-n.png"" border=""10"">","null","trial","null","","0.2,0.8","4:nogo_d","0",""
"null","","html-keyboard-response","315","607992","0.0-6.0-2.31","","<div style=""font-size:60px;"">+</div>","null","","","","","","",""
"740.065000005532","","image-keyboard-response","316","608733","0.0-6.0-0.32","","img/blue.png","32","trial","null","false","0.2,0.8","4:nogo_d","",""
"null","","html-keyboard-response","317","609745","0.0-6.0-1.32","","<img src=""img/blue-n.png"" border=""10"">","null","trial","null","","0.2,0.8","4:nogo_d","0",""
"null","","html-keyboard-response","318","610752","0.0-6.0-2.32","","<div style=""font-size:60px;"">+</div>","null","","","","","","",""
"507.0899999991525","","image-keyboard-response","319","611260","0.0-6.0-0.33","","img/pink.png","32","trial","32","true","0.8,0.2","1:go_a","",""
"null","","html-keyboard-response","320","612278","0.0-6.0-1.33","","<img src=""img/pink-r.png"" border=""10"">","null","trial","32","","0.8,0.2","1:go_a","1",""
"null","","html-keyboard-response","321","613290","0.0-6.0-2.33","","<div style=""font-size:60px;"">+</div>","null","","","","","","",""
"null","","image-keyboard-response","322","614803","0.0-6.0-0.34","","img/grey.png","null","trial","32","false","0.8,0.2","3:go_c","",""
"null","","html-keyboard-response","323","615816","0.0-6.0-1.34","","<img src=""img/grey-n.png"">","null","trial","32","","0.8,0.2","3:go_c","0",""
"null","","html-keyboard-response","324","616824","0.0-6.0-2.34","","<div style=""font-size:60px;"">+</div>","null","","","","","","",""
"null","","image-keyboard-response","325","618337","0.0-6.0-0.35","","img/green.png","null","trial","null","true","0.2,0.8","2:nogo_b","",""
"null","","html-keyboard-response","326","619345","0.0-6.0-1.35","","<img src=""img/green-r.png"">","null","trial","null","","0.2,0.8","2:nogo_b","1",""
"null","","html-keyboard-response","327","620360","0.0-6.0-2.35","","<div style=""font-size:60px;"">+</div>","null","","","","","","",""
"null","","image-keyboard-response","328","621873","0.0-6.0-0.36","","img/green.png","null","trial","null","true","0.2,0.8","2:nogo_b","",""
"null","","html-keyboard-response","329","622886","0.0-6.0-1.36","","<img src=""img/green-n.png"">","null","trial","null","","0.2,0.8","2:nogo_b","0",""
"null","","html-keyboard-response","330","623897","0.0-6.0-2.36","","<div style=""font-size:60px;"">+</div>","null","","","","","","",""
"627.6699999943376","","image-keyboard-response","331","624526","0.0-6.0-0.37","","img/blue.png","32","trial","null","false","0.2,0.8","4:nogo_d","",""
"null","","html-keyboard-response","332","625537","0.0-6.0-1.37","","<img src=""img/blue-n.png"" border=""10"">","null","trial","null","","0.2,0.8","4:nogo_d","0",""
"null","","html-keyboard-response","333","626552","0.0-6.0-2.37","","<div style=""font-size:60px;"">+</div>","null","","","","","","",""
"null","","image-keyboard-response","334","628067","0.0-6.0-0.38","","img/grey.png","null","trial","32","false","0.8,0.2","3:go_c","",""
"null","","html-keyboard-response","335","629077","0.0-6.0-1.38","","<img src=""img/grey-n.png"">","null","trial","32","","0.8,0.2","3:go_c","0",""
"null","","html-keyboard-response","336","630080","0.0-6.0-2.38","","<div style=""font-size:60px;"">+</div>","null","","","","","","",""
"524.1499999975786","","image-keyboard-response","337","630606","0.0-6.0-0.39","","img/pink.png","32","trial","32","true","0.8,0.2","1:go_a","",""
"null","","html-keyboard-response","338","631612","0.0-6.0-1.39","","<img src=""img/pink-r.png"" border=""10"">","null","trial","32","","0.8,0.2","1:go_a","1",""
"null","","html-keyboard-response","339","632622","0.0-6.0-2.39","","<div style=""font-size:60px;"">+</div>","null","","","","","","",""
"588.3449999964796","","image-keyboard-response","340","633212","0.0-6.0-0.40","","img/pink.png","32","trial","32","true","0.8,0.2","1:go_a","",""
"null","","html-keyboard-response","341","634219","0.0-6.0-1.40","","<img src=""img/pink-r.png"" border=""10"">","null","trial","32","","0.8,0.2","1:go_a","1",""
"null","","html-keyboard-response","342","635224","0.0-6.0-2.40","","<div style=""font-size:60px;"">+</div>","null","","","","","","",""
"552.7700000021141","","image-keyboard-response","343","635778","0.0-6.0-0.41","","img/blue.png","32","trial","null","false","0.2,0.8","4:nogo_d","",""
"null","","html-keyboard-response","344","636782","0.0-6.0-1.41","","<img src=""img/blue-n.png"" border=""10"">","null","trial","null","","0.2,0.8","4:nogo_d","0",""
"null","","html-keyboard-response","345","637795","0.0-6.0-2.41","","<div style=""font-size:60px;"">+</div>","null","","","","","","",""
"509.36499999812804","","image-keyboard-response","346","638305","0.0-6.0-0.42","","img/green.png","32","trial","null","false","0.2,0.8","2:nogo_b","",""
"null","","html-keyboard-response","347","639319","0.0-6.0-1.42","","<img src=""img/green-n.png"" border=""10"">","null","trial","null","","0.2,0.8","2:nogo_b","0",""
"null","","html-keyboard-response","348","640327","0.0-6.0-2.42","","<div style=""font-size:60px;"">+</div>","null","","","","","","",""
"null","","image-keyboard-response","349","641844","0.0-6.0-0.43","","img/grey.png","null","trial","32","false","0.8,0.2","3:go_c","",""
"null","","html-keyboard-response","350","642851","0.0-6.0-1.43","","<img src=""img/grey-n.png"">","null","trial","32","","0.8,0.2","3:go_c","0",""
"null","","html-keyboard-response","351","643864","0.0-6.0-2.43","","<div style=""font-size:60px;"">+</div>","null","","","","","","",""
"638.4749999997439","","image-keyboard-response","352","644504","0.0-6.0-0.44","","img/green.png","32","trial","null","false","0.2,0.8","2:nogo_b","",""
"null","","html-keyboard-response","353","645520","0.0-6.0-1.44","","<img src=""img/green-n.png"" border=""10"">","null","trial","null","","0.2,0.8","2:nogo_b","0",""
"null","","html-keyboard-response","354","646536","0.0-6.0-2.44","","<div style=""font-size:60px;"">+</div>","null","","","","","","",""
"612.634999997681","","image-keyboard-response","355","647149","0.0-6.0-0.45","","img/blue.png","32","trial","null","false","0.2,0.8","4:nogo_d","",""
"null","","html-keyboard-response","356","648166","0.0-6.0-1.45","","<img src=""img/blue-r.png"" border=""10"">","null","trial","null","","0.2,0.8","4:nogo_d","1",""
"null","","html-keyboard-response","357","649175","0.0-6.0-2.45","","<div style=""font-size:60px;"">+</div>","null","","","","","","",""
"null","","image-keyboard-response","358","650681","0.0-6.0-0.46","","img/grey.png","null","trial","32","false","0.8,0.2","3:go_c","",""
"null","","html-keyboard-response","359","651688","0.0-6.0-1.46","","<img src=""img/grey-n.png"">","null","trial","32","","0.8,0.2","3:go_c","0",""
"null","","html-keyboard-response","360","652696","0.0-6.0-2.46","","<div style=""font-size:60px;"">+</div>","null","","","","","","",""
"532.2799999994459","","image-keyboard-response","361","653229","0.0-6.0-0.47","","img/pink.png","32","trial","32","true","0.8,0.2","1:go_a","",""
"null","","html-keyboard-response","362","654231","0.0-6.0-1.47","","<img src=""img/pink-r.png"" border=""10"">","null","trial","32","","0.8,0.2","1:go_a","1",""
"null","","html-keyboard-response","363","655241","0.0-6.0-2.47","","<div style=""font-size:60px;"">+</div>","null","","","","","","",""
"593.1649999984074","","image-keyboard-response","364","655835","0.0-6.0-0.48","","img/blue.png","32","trial","null","false","0.2,0.8","4:nogo_d","",""
"null","","html-keyboard-response","365","656847","0.0-6.0-1.48","","<img src=""img/blue-n.png"" border=""10"">","null","trial","null","","0.2,0.8","4:nogo_d","0",""
"null","","html-keyboard-response","366","657861","0.0-6.0-2.48","","<div style=""font-size:60px;"">+</div>","null","","","","","","",""
"null","","image-keyboard-response","367","659373","0.0-6.0-0.49","","img/grey.png","null","trial","32","false","0.8,0.2","3:go_c","",""
"null","","html-keyboard-response","368","660384","0.0-6.0-1.49","","<img src=""img/grey-n.png"">","null","trial","32","","0.8,0.2","3:go_c","0",""
"null","","html-keyboard-response","369","661392","0.0-6.0-2.49","","<div style=""font-size:60px;"">+</div>","null","","","","","","",""
"798.320000001695","","image-keyboard-response","370","662192","0.0-6.0-0.50","","img/green.png","32","trial","null","false","0.2,0.8","2:nogo_b","",""
"null","","html-keyboard-response","371","663205","0.0-6.0-1.50","","<img src=""img/green-n.png"" border=""10"">","null","trial","null","","0.2,0.8","2:nogo_b","0",""
"null","","html-keyboard-response","372","664216","0.0-6.0-2.50","","<div style=""font-size:60px;"">+</div>","null","","","","","","",""
"481.6350000037346","","image-keyboard-response","373","664699","0.0-6.0-0.51","","img/pink.png","32","trial","32","true","0.8,0.2","1:go_a","",""
"null","","html-keyboard-response","374","665716","0.0-6.0-1.51","","<img src=""img/pink-n.png"" border=""10"">","null","trial","32","","0.8,0.2","1:go_a","0",""
"null","","html-keyboard-response","375","666727","0.0-6.0-2.51","","<div style=""font-size:60px;"">+</div>","null","","","","","","",""
"616.0400000008522","","image-keyboard-response","376","667344","0.0-6.0-0.52","","img/blue.png","32","trial","null","false","0.2,0.8","4:nogo_d","",""
"null","","html-keyboard-response","377","668348","0.0-6.0-1.52","","<img src=""img/blue-n.png"" border=""10"">","null","trial","null","","0.2,0.8","4:nogo_d","0",""
"null","","html-keyboard-response","378","669360","0.0-6.0-2.52","","<div style=""font-size:60px;"">+</div>","null","","","","","","",""
"826.3399999996182","","image-keyboard-response","379","670187","0.0-6.0-0.53","","img/green.png","32","trial","null","false","0.2,0.8","2:nogo_b","",""
"null","","html-keyboard-response","380","671192","0.0-6.0-1.53","","<img src=""img/green-r.png"" border=""10"">","null","trial","null","","0.2,0.8","2:nogo_b","1",""
"null","","html-keyboard-response","381","672204","0.0-6.0-2.53","","<div style=""font-size:60px;"">+</div>","null","","","","","","",""
"627.1399999968708","","image-keyboard-response","382","672832","0.0-6.0-0.54","","img/pink.png","32","trial","32","true","0.8,0.2","1:go_a","",""
"null","","html-keyboard-response","383","673848","0.0-6.0-1.54","","<img src=""img/pink-r.png"" border=""10"">","null","trial","32","","0.8,0.2","1:go_a","1",""
"null","","html-keyboard-response","384","674856","0.0-6.0-2.54","","<div style=""font-size:60px;"">+</div>","null","","","","","","",""
"null","","image-keyboard-response","385","676361","0.0-6.0-0.55","","img/grey.png","null","trial","32","false","0.8,0.2","3:go_c","",""
"null","","html-keyboard-response","386","677370","0.0-6.0-1.55","","<img src=""img/grey-n.png"">","null","trial","32","","0.8,0.2","3:go_c","0",""
"null","","html-keyboard-response","387","678375","0.0-6.0-2.55","","<div style=""font-size:60px;"">+</div>","null","","","","","","",""
"773.3500000031199","","image-keyboard-response","388","679150","0.0-6.0-0.56","","img/grey.png","32","trial","32","true","0.8,0.2","3:go_c","",""
"null","","html-keyboard-response","389","680157","0.0-6.0-1.56","","<img src=""img/grey-r.png"" border=""10"">","null","trial","32","","0.8,0.2","3:go_c","1",""
"null","","html-keyboard-response","390","681164","0.0-6.0-2.56","","<div style=""font-size:60px;"">+</div>","null","","","","","","",""
"511.4199999952689","","image-keyboard-response","391","681677","0.0-6.0-0.57","","img/green.png","32","trial","null","false","0.2,0.8","2:nogo_b","",""
"null","","html-keyboard-response","392","682681","0.0-6.0-1.57","","<img src=""img/green-n.png"" border=""10"">","null","trial","null","","0.2,0.8","2:nogo_b","0",""
"null","","html-keyboard-response","393","683690","0.0-6.0-2.57","","<div style=""font-size:60px;"">+</div>","null","","","","","","",""
"512.4799999976531","","image-keyboard-response","394","684205","0.0-6.0-0.58","","img/blue.png","32","trial","null","false","0.2,0.8","4:nogo_d","",""
"null","","html-keyboard-response","395","685214","0.0-6.0-1.58","","<img src=""img/blue-n.png"" border=""10"">","null","trial","null","","0.2,0.8","4:nogo_d","0",""
"null","","html-keyboard-response","396","686229","0.0-6.0-2.58","","<div style=""font-size:60px;"">+</div>","null","","","","","","",""
"460.98499999800697","","image-keyboard-response","397","686691","0.0-6.0-0.59","","img/pink.png","32","trial","32","true","0.8,0.2","1:go_a","",""
"null","","html-keyboard-response","398","687696","0.0-6.0-1.59","","<img src=""img/pink-r.png"" border=""10"">","null","trial","32","","0.8,0.2","1:go_a","1",""
"null","","html-keyboard-response","399","688698","0.0-6.0-2.59","","<div style=""font-size:60px;"">+</div>","null","","","","","","",""
"null","","image-keyboard-response","400","690208","0.0-6.0-0.60","","img/blue.png","null","trial","null","true","0.2,0.8","4:nogo_d","",""
"null","","html-keyboard-response","401","691218","0.0-6.0-1.60","","<img src=""img/blue-r.png"">","null","trial","null","","0.2,0.8","4:nogo_d","1",""
"null","","html-keyboard-response","402","692231","0.0-6.0-2.60","","<div style=""font-size:60px;"">+</div>","null","","","","","","",""
"558.3800000022165","","image-keyboard-response","403","692791","0.0-6.0-0.61","","img/pink.png","32","trial","32","true","0.8,0.2","1:go_a","",""
"null","","html-keyboard-response","404","693794","0.0-6.0-1.61","","<img src=""img/pink-r.png"" border=""10"">","null","trial","32","","0.8,0.2","1:go_a","1",""
"null","","html-keyboard-response","405","694800","0.0-6.0-2.61","","<div style=""font-size:60px;"">+</div>","null","","","","","","",""
"536.5400000009686","","image-keyboard-response","406","695338","0.0-6.0-0.62","","img/green.png","32","trial","null","false","0.2,0.8","2:nogo_b","",""
"null","","html-keyboard-response","407","696348","0.0-6.0-1.62","","<img src=""img/green-n.png"" border=""10"">","null","trial","null","","0.2,0.8","2:nogo_b","0",""
"null","","html-keyboard-response","408","697358","0.0-6.0-2.62","","<div style=""font-size:60px;"">+</div>","null","","","","","","",""
"null","","image-keyboard-response","409","698865","0.0-6.0-0.63","","img/grey.png","null","trial","32","false","0.8,0.2","3:go_c","",""
"null","","html-keyboard-response","410","699873","0.0-6.0-1.63","","<img src=""img/grey-n.png"">","null","trial","32","","0.8,0.2","3:go_c","0",""
"null","","html-keyboard-response","411","700883","0.0-6.0-2.63","","<div style=""font-size:60px;"">+</div>","null","","","","","","",""
"592.9899999974295","","image-keyboard-response","412","701477","0.0-6.0-0.64","","img/green.png","32","trial","null","false","0.2,0.8","2:nogo_b","",""
"null","","html-keyboard-response","413","702489","0.0-6.0-1.64","","<img src=""img/green-n.png"" border=""10"">","null","trial","null","","0.2,0.8","2:nogo_b","0",""
"null","","html-keyboard-response","414","703492","0.0-6.0-2.64","","<div style=""font-size:60px;"">+</div>","null","","","","","","",""
"550.6050000040559","","image-keyboard-response","415","704043","0.0-6.0-0.65","","img/pink.png","32","trial","32","true","0.8,0.2","1:go_a","",""
"null","","html-keyboard-response","416","705057","0.0-6.0-1.65","","<img src=""img/pink-r.png"" border=""10"">","null","trial","32","","0.8,0.2","1:go_a","1",""
"null","","html-keyboard-response","417","706070","0.0-6.0-2.65","","<div style=""font-size:60px;"">+</div>","null","","","","","","",""
"538.4050000066636","","image-keyboard-response","418","706610","0.0-6.0-0.66","","img/blue.png","32","trial","null","false","0.2,0.8","4:nogo_d","",""
"null","","html-keyboard-response","419","707618","0.0-6.0-1.66","","<img src=""img/blue-n.png"" border=""10"">","null","trial","null","","0.2,0.8","4:nogo_d","0",""
"null","","html-keyboard-response","420","708623","0.0-6.0-2.66","","<div style=""font-size:60px;"">+</div>","null","","","","","","",""
"null","","image-keyboard-response","421","710136","0.0-6.0-0.67","","img/grey.png","null","trial","32","false","0.8,0.2","3:go_c","",""
"null","","html-keyboard-response","422","711148","0.0-6.0-1.67","","<img src=""img/grey-n.png"">","null","trial","32","","0.8,0.2","3:go_c","0",""
"null","","html-keyboard-response","423","712163","0.0-6.0-2.67","","<div style=""font-size:60px;"">+</div>","null","","","","","","",""
"841.6649999999208","","image-keyboard-response","424","713006","0.0-6.0-0.68","","img/grey.png","32","trial","32","true","0.8,0.2","3:go_c","",""
"null","","html-keyboard-response","425","714010","0.0-6.0-1.68","","<img src=""img/grey-r.png"" border=""10"">","null","trial","32","","0.8,0.2","3:go_c","1",""
"null","","html-keyboard-response","426","715022","0.0-6.0-2.68","","<div style=""font-size:60px;"">+</div>","null","","","","","","",""
"627.5299999979325","","image-keyboard-response","427","715651","0.0-6.0-0.69","","img/green.png","32","trial","null","false","0.2,0.8","2:nogo_b","",""
"null","","html-keyboard-response","428","716656","0.0-6.0-1.69","","<img src=""img/green-n.png"" border=""10"">","null","trial","null","","0.2,0.8","2:nogo_b","0",""
"null","","html-keyboard-response","429","717671","0.0-6.0-2.69","","<div style=""font-size:60px;"">+</div>","null","","","","","","",""
"545.4549999994924","","image-keyboard-response","430","718218","0.0-6.0-0.70","","img/blue.png","32","trial","null","false","0.2,0.8","4:nogo_d","",""
"null","","html-keyboard-response","431","719232","0.0-6.0-1.70","","<img src=""img/blue-n.png"" border=""10"">","null","trial","null","","0.2,0.8","4:nogo_d","0",""
"null","","html-keyboard-response","432","720248","0.0-6.0-2.70","","<div style=""font-size:60px;"">+</div>","null","","","","","","",""
"475.4949999987148","","image-keyboard-response","433","720725","0.0-6.0-0.71","","img/pink.png","32","trial","32","true","0.8,0.2","1:go_a","",""
"null","","html-keyboard-response","434","721736","0.0-6.0-1.71","","<img src=""img/pink-n.png"" border=""10"">","null","trial","32","","0.8,0.2","1:go_a","0",""
"null","","html-keyboard-response","435","722751","0.0-6.0-2.71","","<div style=""font-size:60px;"">+</div>","null","","","","","","",""
"460.4350000008708","","image-keyboard-response","436","723212","0.0-6.0-0.72","","img/pink.png","32","trial","32","true","0.8,0.2","1:go_a","",""
"null","","html-keyboard-response","437","724221","0.0-6.0-1.72","","<img src=""img/pink-r.png"" border=""10"">","null","trial","32","","0.8,0.2","1:go_a","1",""
"null","","html-keyboard-response","438","725222","0.0-6.0-2.72","","<div style=""font-size:60px;"">+</div>","null","","","","","","",""
"713.3650000032503","","image-keyboard-response","439","725937","0.0-6.0-0.73","","img/blue.png","32","trial","null","false","0.2,0.8","4:nogo_d","",""
"null","","html-keyboard-response","440","726950","0.0-6.0-1.73","","<img src=""img/blue-n.png"" border=""10"">","null","trial","null","","0.2,0.8","4:nogo_d","0",""
"null","","html-keyboard-response","441","727962","0.0-6.0-2.73","","<div style=""font-size:60px;"">+</div>","null","","","","","","",""
"null","","image-keyboard-response","442","729472","0.0-6.0-0.74","","img/green.png","null","trial","null","true","0.2,0.8","2:nogo_b","",""
"null","","html-keyboard-response","443","730484","0.0-6.0-1.74","","<img src=""img/green-n.png"">","null","trial","null","","0.2,0.8","2:nogo_b","0",""
"null","","html-keyboard-response","444","731500","0.0-6.0-2.74","","<div style=""font-size:60px;"">+</div>","null","","","","","","",""
"594.4250000030734","","image-keyboard-response","445","732096","0.0-6.0-0.75","","img/grey.png","32","trial","32","true","0.8,0.2","3:go_c","",""
"null","","html-keyboard-response","446","733107","0.0-6.0-1.75","","<img src=""img/grey-r.png"" border=""10"">","null","trial","32","","0.8,0.2","3:go_c","1",""
"null","","html-keyboard-response","447","734111","0.0-6.0-2.75","","<div style=""font-size:60px;"">+</div>","null","","","","","","",""
"null","","image-keyboard-response","448","735624","0.0-6.0-0.76","","img/grey.png","null","trial","32","false","0.8,0.2","3:go_c","",""
"null","","html-keyboard-response","449","736640","0.0-6.0-1.76","","<img src=""img/grey-n.png"">","null","trial","32","","0.8,0.2","3:go_c","0",""
"null","","html-keyboard-response","450","737650","0.0-6.0-2.76","","<div style=""font-size:60px;"">+</div>","null","","","","","","",""
"761.8299999958836","","image-keyboard-response","451","738413","0.0-6.0-0.77","","img/blue.png","32","trial","null","false","0.2,0.8","4:nogo_d","",""
"null","","html-keyboard-response","452","739428","0.0-6.0-1.77","","<img src=""img/blue-n.png"" border=""10"">","null","trial","null","","0.2,0.8","4:nogo_d","0",""
"null","","html-keyboard-response","453","740440","0.0-6.0-2.77","","<div style=""font-size:60px;"">+</div>","null","","","","","","",""
"459.7400000055786","","image-keyboard-response","454","740901","0.0-6.0-0.78","","img/pink.png","32","trial","32","true","0.8,0.2","1:go_a","",""
"null","","html-keyboard-response","455","741911","0.0-6.0-1.78","","<img src=""img/pink-r.png"" border=""10"">","null","trial","32","","0.8,0.2","1:go_a","1",""
"null","","html-keyboard-response","456","742926","0.0-6.0-2.78","","<div style=""font-size:60px;"">+</div>","null","","","","","","",""
"559.7049999996088","","image-keyboard-response","457","743487","0.0-6.0-0.79","","img/green.png","32","trial","null","false","0.2,0.8","2:nogo_b","",""
"null","","html-keyboard-response","458","744490","0.0-6.0-1.79","","<img src=""img/green-n.png"" border=""10"">","null","trial","null","","0.2,0.8","2:nogo_b","0",""
"null","","html-keyboard-response","459","745502","0.0-6.0-2.79","","<div style=""font-size:60px;"">+</div>","null","","","","","","",""
"668.1650000028312","","image-keyboard-response","460","746172","0.0-6.0-0.80","","img/grey.png","32","trial","32","true","0.8,0.2","3:go_c","",""
"null","","html-keyboard-response","461","747189","0.0-6.0-1.80","","<img src=""img/grey-r.png"" border=""10"">","null","trial","32","","0.8,0.2","3:go_c","1",""
"null","","html-keyboard-response","462","748203","0.0-6.0-2.80","","<div style=""font-size:60px;"">+</div>","null","","","","","","",""
"494.2850000006147","","image-keyboard-response","463","748698","0.0-6.0-0.81","","img/pink.png","32","trial","32","true","0.8,0.2","1:go_a","",""
"null","","html-keyboard-response","464","749706","0.0-6.0-1.81","","<img src=""img/pink-r.png"" border=""10"">","null","trial","32","","0.8,0.2","1:go_a","1",""
"null","","html-keyboard-response","465","750708","0.0-6.0-2.81","","<div style=""font-size:60px;"">+</div>","null","","","","","","",""
"null","","image-keyboard-response","466","752210","0.0-6.0-0.82","","img/green.png","null","trial","null","true","0.2,0.8","2:nogo_b","",""
"null","","html-keyboard-response","467","753223","0.0-6.0-1.82","","<img src=""img/green-r.png"">","null","trial","null","","0.2,0.8","2:nogo_b","1",""
"null","","html-keyboard-response","468","754234","0.0-6.0-2.82","","<div style=""font-size:60px;"">+</div>","null","","","","","","",""
"780.4699999978766","","image-keyboard-response","469","755016","0.0-6.0-0.83","","img/blue.png","32","trial","null","false","0.2,0.8","4:nogo_d","",""
"null","","html-keyboard-response","470","756022","0.0-6.0-1.83","","<img src=""img/blue-n.png"" border=""10"">","null","trial","null","","0.2,0.8","4:nogo_d","0",""
"null","","html-keyboard-response","471","757039","0.0-6.0-2.83","","<div style=""font-size:60px;"">+</div>","null","","","","","","",""
"621.3849999986123","","image-keyboard-response","472","757661","0.0-6.0-0.84","","img/green.png","32","trial","null","false","0.2,0.8","2:nogo_b","",""
"null","","html-keyboard-response","473","758669","0.0-6.0-1.84","","<img src=""img/green-n.png"" border=""10"">","null","trial","null","","0.2,0.8","2:nogo_b","0",""
"null","","html-keyboard-response","474","759676","0.0-6.0-2.84","","<div style=""font-size:60px;"">+</div>","null","","","","","","",""
"511.02499999979045","","image-keyboard-response","475","760188","0.0-6.0-0.85","","img/pink.png","32","trial","32","true","0.8,0.2","1:go_a","",""
"null","","html-keyboard-response","476","761199","0.0-6.0-1.85","","<img src=""img/pink-r.png"" border=""10"">","null","trial","32","","0.8,0.2","1:go_a","1",""
"null","","html-keyboard-response","477","762203","0.0-6.0-2.85","","<div style=""font-size:60px;"">+</div>","null","","","","","","",""
"590.5600000042468","","image-keyboard-response","478","762793","0.0-6.0-0.86","","img/blue.png","32","trial","null","false","0.2,0.8","4:nogo_d","",""
"null","","html-keyboard-response","479","763799","0.0-6.0-1.86","","<img src=""img/blue-n.png"" border=""10"">","null","trial","null","","0.2,0.8","4:nogo_d","0",""
"null","","html-keyboard-response","480","764807","0.0-6.0-2.86","","<div style=""font-size:60px;"">+</div>","null","","","","","","",""
"null","","image-keyboard-response","481","766314","0.0-6.0-0.87","","img/grey.png","null","trial","32","false","0.8,0.2","3:go_c","",""
"null","","html-keyboard-response","482","767323","0.0-6.0-1.87","","<img src=""img/grey-n.png"">","null","trial","32","","0.8,0.2","3:go_c","0",""
"null","","html-keyboard-response","483","768332","0.0-6.0-2.87","","<div style=""font-size:60px;"">+</div>","null","","","","","","",""
"540.8449999958975","","image-keyboard-response","484","768874","0.0-6.0-0.88","","img/pink.png","32","trial","32","true","0.8,0.2","1:go_a","",""
"null","","html-keyboard-response","485","769881","0.0-6.0-1.88","","<img src=""img/pink-r.png"" border=""10"">","null","trial","32","","0.8,0.2","1:go_a","1",""
"null","","html-keyboard-response","486","770893","0.0-6.0-2.88","","<div style=""font-size:60px;"">+</div>","null","","","","","","",""
"null","","image-keyboard-response","487","772398","0.0-6.0-0.89","","img/grey.png","null","trial","32","false","0.8,0.2","3:go_c","",""
"null","","html-keyboard-response","488","773408","0.0-6.0-1.89","","<img src=""img/grey-r.png"">","null","trial","32","","0.8,0.2","3:go_c","1",""
"null","","html-keyboard-response","489","774422","0.0-6.0-2.89","","<div style=""font-size:60px;"">+</div>","null","","","","","","",""
"886.0349999958416","","image-keyboard-response","490","775309","0.0-6.0-0.90","","img/green.png","32","trial","null","false","0.2,0.8","2:nogo_b","",""
"null","","html-keyboard-response","491","776324","0.0-6.0-1.90","","<img src=""img/green-r.png"" border=""10"">","null","trial","null","","0.2,0.8","2:nogo_b","1",""
"null","","html-keyboard-response","492","777330","0.0-6.0-2.90","","<div style=""font-size:60px;"">+</div>","null","","","","","","",""
"623.2600000003586","","image-keyboard-response","493","777955","0.0-6.0-0.91","","img/blue.png","32","trial","null","false","0.2,0.8","4:nogo_d","",""
"null","","html-keyboard-response","494","778989","0.0-6.0-1.91","","<img src=""img/blue-n.png"" border=""10"">","null","trial","null","","0.2,0.8","4:nogo_d","0",""
"null","","html-keyboard-response","495","779994","0.0-6.0-2.91","","<div style=""font-size:60px;"">+</div>","null","","","","","","",""
"447.5300000049174","","image-keyboard-response","496","780442","0.0-6.0-0.92","","img/pink.png","32","trial","32","true","0.8,0.2","1:go_a","",""
"null","","html-keyboard-response","497","781451","0.0-6.0-1.92","","<img src=""img/pink-r.png"" border=""10"">","null","trial","32","","0.8,0.2","1:go_a","1",""
"null","","html-keyboard-response","498","782458","0.0-6.0-2.92","","<div style=""font-size:60px;"">+</div>","null","","","","","","",""
"null","","image-keyboard-response","499","783963","0.0-6.0-0.93","","img/grey.png","null","trial","32","false","0.8,0.2","3:go_c","",""
"null","","html-keyboard-response","500","784976","0.0-6.0-1.93","","<img src=""img/grey-n.png"">","null","trial","32","","0.8,0.2","3:go_c","0",""
"null","","html-keyboard-response","501","785985","0.0-6.0-2.93","","<div style=""font-size:60px;"">+</div>","null","","","","","","",""
"614.670000002603","","image-keyboard-response","502","786601","0.0-6.0-0.94","","img/blue.png","32","trial","null","false","0.2,0.8","4:nogo_d","",""
"null","","html-keyboard-response","503","787613","0.0-6.0-1.94","","<img src=""img/blue-n.png"" border=""10"">","null","trial","null","","0.2,0.8","4:nogo_d","0",""
"null","","html-keyboard-response","504","788626","0.0-6.0-2.94","","<div style=""font-size:60px;"">+</div>","null","","","","","","",""
"579.8750000030268","","image-keyboard-response","505","789207","0.0-6.0-0.95","","img/green.png","32","trial","null","false","0.2,0.8","2:nogo_b","",""
"null","","html-keyboard-response","506","790210","0.0-6.0-1.95","","<img src=""img/green-n.png"" border=""10"">","null","trial","null","","0.2,0.8","2:nogo_b","0",""
"null","","html-keyboard-response","507","791227","0.0-6.0-2.95","","<div style=""font-size:60px;"">+</div>","null","","","","","","",""
"null","","image-keyboard-response","508","792731","0.0-6.0-0.96","","img/grey.png","null","trial","32","false","0.8,0.2","3:go_c","",""
"null","","html-keyboard-response","509","793743","0.0-6.0-1.96","","<img src=""img/grey-n.png"">","null","trial","32","","0.8,0.2","3:go_c","0",""
"null","","html-keyboard-response","510","794755","0.0-6.0-2.96","","<div style=""font-size:60px;"">+</div>","null","","","","","","",""
"413.35000000253785","","image-keyboard-response","511","795169","0.0-6.0-0.97","","img/pink.png","32","trial","32","true","0.8,0.2","1:go_a","",""
"null","","html-keyboard-response","512","796183","0.0-6.0-1.97","","<img src=""img/pink-r.png"" border=""10"">","null","trial","32","","0.8,0.2","1:go_a","1",""
"null","","html-keyboard-response","513","797195","0.0-6.0-2.97","","<div style=""font-size:60px;"">+</div>","null","","","","","","",""
"538.9599999979837","","image-keyboard-response","514","797736","0.0-6.0-0.98","","img/green.png","32","trial","null","false","0.2,0.8","2:nogo_b","",""
"null","","html-keyboard-response","515","798740","0.0-6.0-1.98","","<img src=""img/green-n.png"" border=""10"">","null","trial","null","","0.2,0.8","2:nogo_b","0",""
"null","","html-keyboard-response","516","799744","0.0-6.0-2.98","","<div style=""font-size:60px;"">+</div>","null","","","","","","",""
"517.7750000003725","","image-keyboard-response","517","800262","0.0-6.0-0.99","","img/blue.png","32","trial","null","false","0.2,0.8","4:nogo_d","",""
"null","","html-keyboard-response","518","801269","0.0-6.0-1.99","","<img src=""img/blue-n.png"" border=""10"">","null","trial","null","","0.2,0.8","4:nogo_d","0",""
"null","","html-keyboard-response","519","802282","0.0-6.0-2.99","","<div style=""font-size:60px;"">+</div>","null","","","","","","",""
"585.3700000008103","","image-keyboard-response","520","802869","0.0-6.0-0.100","","img/pink.png","32","trial","32","true","0.8,0.2","1:go_a","",""
"null","","html-keyboard-response","521","803879","0.0-6.0-1.100","","<img src=""img/pink-n.png"" border=""10"">","null","trial","32","","0.8,0.2","1:go_a","0",""
"null","","html-keyboard-response","522","804892","0.0-6.0-2.100","","<div style=""font-size:60px;"">+</div>","null","","","","","","",""
"818.3549999957904","","image-keyboard-response","523","805712","0.0-6.0-0.101","","img/green.png","32","trial","null","false","0.2,0.8","2:nogo_b","",""
"null","","html-keyboard-response","524","806714","0.0-6.0-1.101","","<img src=""img/green-n.png"" border=""10"">","null","trial","null","","0.2,0.8","2:nogo_b","0",""
"null","","html-keyboard-response","525","807728","0.0-6.0-2.101","","<div style=""font-size:60px;"">+</div>","null","","","","","","",""
"null","","image-keyboard-response","526","809235","0.0-6.0-0.102","","img/grey.png","null","trial","32","false","0.8,0.2","3:go_c","",""
"null","","html-keyboard-response","527","810250","0.0-6.0-1.102","","<img src=""img/grey-r.png"">","null","trial","32","","0.8,0.2","3:go_c","1",""
"null","","html-keyboard-response","528","811266","0.0-6.0-2.102","","<div style=""font-size:60px;"">+</div>","null","","","","","","",""
"741.8499999985797","","image-keyboard-response","529","812009","0.0-6.0-0.103","","img/blue.png","32","trial","null","false","0.2,0.8","4:nogo_d","",""
"null","","html-keyboard-response","530","813025","0.0-6.0-1.103","","<img src=""img/blue-n.png"" border=""10"">","null","trial","null","","0.2,0.8","4:nogo_d","0",""
"null","","html-keyboard-response","531","814034","0.0-6.0-2.103","","<div style=""font-size:60px;"">+</div>","null","","","","","","",""
"null","","image-keyboard-response","532","815549","0.0-6.0-0.104","","img/grey.png","null","trial","32","false","0.8,0.2","3:go_c","",""
"null","","html-keyboard-response","533","816558","0.0-6.0-1.104","","<img src=""img/grey-r.png"">","null","trial","32","","0.8,0.2","3:go_c","1",""
"null","","html-keyboard-response","534","817566","0.0-6.0-2.104","","<div style=""font-size:60px;"">+</div>","null","","","","","","",""
"720.0400000001537","","image-keyboard-response","535","818287","0.0-6.0-0.105","","img/blue.png","32","trial","null","false","0.2,0.8","4:nogo_d","",""
"null","","html-keyboard-response","536","819303","0.0-6.0-1.105","","<img src=""img/blue-n.png"" border=""10"">","null","trial","null","","0.2,0.8","4:nogo_d","0",""
"null","","html-keyboard-response","537","820315","0.0-6.0-2.105","","<div style=""font-size:60px;"">+</div>","null","","","","","","",""
"537.1799999993527","","image-keyboard-response","538","820853","0.0-6.0-0.106","","img/green.png","32","trial","null","false","0.2,0.8","2:nogo_b","",""
"null","","html-keyboard-response","539","821865","0.0-6.0-1.106","","<img src=""img/green-n.png"" border=""10"">","null","trial","null","","0.2,0.8","2:nogo_b","0",""
"null","","html-keyboard-response","540","822879","0.0-6.0-2.106","","<div style=""font-size:60px;"">+</div>","null","","","","","","",""
"540.2999999932945","","image-keyboard-response","541","823420","0.0-6.0-0.107","","img/pink.png","32","trial","32","true","0.8,0.2","1:go_a","",""
"null","","html-keyboard-response","542","824425","0.0-6.0-1.107","","<img src=""img/pink-r.png"" border=""10"">","null","trial","32","","0.8,0.2","1:go_a","1",""
"null","","html-keyboard-response","543","825429","0.0-6.0-2.107","","<div style=""font-size:60px;"">+</div>","null","","","","","","",""
"null","","image-keyboard-response","544","826938","0.0-6.0-0.108","","img/blue.png","null","trial","null","true","0.2,0.8","4:nogo_d","",""
"null","","html-keyboard-response","545","827948","0.0-6.0-1.108","","<img src=""img/blue-n.png"">","null","trial","null","","0.2,0.8","4:nogo_d","0",""
"null","","html-keyboard-response","546","828951","0.0-6.0-2.108","","<div style=""font-size:60px;"">+</div>","null","","","","","","",""
"469.07500000088476","","image-keyboard-response","547","829422","0.0-6.0-0.109","","img/pink.png","32","trial","32","true","0.8,0.2","1:go_a","",""
"null","","html-keyboard-response","548","830438","0.0-6.0-1.109","","<img src=""img/pink-r.png"" border=""10"">","null","trial","32","","0.8,0.2","1:go_a","1",""
"null","","html-keyboard-response","549","831451","0.0-6.0-2.109","","<div style=""font-size:60px;"">+</div>","null","","","","","","",""
"516.3499999979977","","image-keyboard-response","550","831968","0.0-6.0-0.110","","img/green.png","32","trial","null","false","0.2,0.8","2:nogo_b","",""
"null","","html-keyboard-response","551","832975","0.0-6.0-1.110","","<img src=""img/green-n.png"" border=""10"">","null","trial","null","","0.2,0.8","2:nogo_b","0",""
"null","","html-keyboard-response","552","833987","0.0-6.0-2.110","","<div style=""font-size:60px;"">+</div>","null","","","","","","",""
"743.0800000001909","","image-keyboard-response","553","834732","0.0-6.0-0.111","","img/grey.png","32","trial","32","true","0.8,0.2","3:go_c","",""
"null","","html-keyboard-response","554","835746","0.0-6.0-1.111","","<img src=""img/grey-r.png"" border=""10"">","null","trial","32","","0.8,0.2","3:go_c","1",""
"null","","html-keyboard-response","555","836755","0.0-6.0-2.111","","<div style=""font-size:60px;"">+</div>","null","","","","","","",""
"null","","image-keyboard-response","556","838268","0.0-6.0-0.112","","img/grey.png","null","trial","32","false","0.8,0.2","3:go_c","",""
"null","","html-keyboard-response","557","839278","0.0-6.0-1.112","","<img src=""img/grey-n.png"">","null","trial","32","","0.8,0.2","3:go_c","0",""
"null","","html-keyboard-response","558","840292","0.0-6.0-2.112","","<div style=""font-size:60px;"">+</div>","null","","","","","","",""
"519.1100000011502","","image-keyboard-response","559","840812","0.0-6.0-0.113","","img/blue.png","32","trial","null","false","0.2,0.8","4:nogo_d","",""
"null","","html-keyboard-response","560","841829","0.0-6.0-1.113","","<img src=""img/blue-n.png"" border=""10"">","null","trial","null","","0.2,0.8","4:nogo_d","0",""
"null","","html-keyboard-response","561","842842","0.0-6.0-2.113","","<div style=""font-size:60px;"">+</div>","null","","","","","","",""
"495.58000000263564","","image-keyboard-response","562","843339","0.0-6.0-0.114","","img/pink.png","32","trial","32","true","0.8,0.2","1:go_a","",""
"null","","html-keyboard-response","563","844345","0.0-6.0-1.114","","<img src=""img/pink-r.png"" border=""10"">","null","trial","32","","0.8,0.2","1:go_a","1",""
"null","","html-keyboard-response","564","845356","0.0-6.0-2.114","","<div style=""font-size:60px;"">+</div>","null","","","","","","",""
"627.6199999992969","","image-keyboard-response","565","845985","0.0-6.0-0.115","","img/green.png","32","trial","null","false","0.2,0.8","2:nogo_b","",""
"null","","html-keyboard-response","566","846991","0.0-6.0-1.115","","<img src=""img/green-r.png"" border=""10"">","null","trial","null","","0.2,0.8","2:nogo_b","1",""
"null","","html-keyboard-response","567","848006","0.0-6.0-2.115","","<div style=""font-size:60px;"">+</div>","null","","","","","","",""
"null","","image-keyboard-response","568","849520","0.0-6.0-0.116","","img/green.png","null","trial","null","true","0.2,0.8","2:nogo_b","",""
"null","","html-keyboard-response","569","850522","0.0-6.0-1.116","","<img src=""img/green-r.png"">","null","trial","null","","0.2,0.8","2:nogo_b","1",""
"null","","html-keyboard-response","570","851538","0.0-6.0-2.116","","<div style=""font-size:60px;"">+</div>","null","","","","","","",""
"604.690000000177","","image-keyboard-response","571","852144","0.0-6.0-0.117","","img/pink.png","32","trial","32","true","0.8,0.2","1:go_a","",""
"null","","html-keyboard-response","572","853160","0.0-6.0-1.117","","<img src=""img/pink-r.png"" border=""10"">","null","trial","32","","0.8,0.2","1:go_a","1",""
"null","","html-keyboard-response","573","854166","0.0-6.0-2.117","","<div style=""font-size:60px;"">+</div>","null","","","","","","",""
"818.6399999976857","","image-keyboard-response","574","854987","0.0-6.0-0.118","","img/blue.png","32","trial","null","false","0.2,0.8","4:nogo_d","",""
"null","","html-keyboard-response","575","856003","0.0-6.0-1.118","","<img src=""img/blue-n.png"" border=""10"">","null","trial","null","","0.2,0.8","4:nogo_d","0",""
"null","","html-keyboard-response","576","857013","0.0-6.0-2.118","","<div style=""font-size:60px;"">+</div>","null","","","","","","",""
"null","","image-keyboard-response","577","858518","0.0-6.0-0.119","","img/grey.png","null","trial","32","false","0.8,0.2","3:go_c","",""
"null","","html-keyboard-response","578","859528","0.0-6.0-1.119","","<img src=""img/grey-n.png"">","null","trial","32","","0.8,0.2","3:go_c","0",""
"null","","html-keyboard-response","579","860531","0.0-6.0-2.119","","<div style=""font-size:60px;"">+</div>","null","","","","","","",""
"20761.959999996237","","instructions","580","881293","0.0-7.0","[{""page_index"":0,""viewing_time"":20761.759999993956}]","","","","","","","","",""
"1091.9749999956694","","image-keyboard-response","581","882387","0.0-8.0-0.0","","img/orange.png","32","trial","32","true","0.8,0.2","1:go_a","",""
"null","","html-keyboard-response","582","883404","0.0-8.0-1.0","","<img src=""img/orange-n.png"" border=""10"">","null","trial","32","","0.8,0.2","1:go_a","0",""
"null","","html-keyboard-response","583","884415","0.0-8.0-2.0","","<div style=""font-size:60px;"">+</div>","null","","","","","","",""
"655.3700000003446","","image-keyboard-response","584","885072","0.0-8.0-0.1","","img/yellow.png","32","trial","null","false","0.4,0.6","4:nogo_d","",""
"null","","html-keyboard-response","585","886081","0.0-8.0-1.1","","<img src=""img/yellow-n.png"" border=""10"">","null","trial","null","","0.4,0.6","4:nogo_d","0",""
"null","","html-keyboard-response","586","887092","0.0-8.0-2.1","","<div style=""font-size:60px;"">+</div>","null","","","","","","",""
"466.33999999891967","","image-keyboard-response","587","887559","0.0-8.0-0.2","","img/blue.png","32","trial","32","true","0.6,0.4","3:go_c","",""
"null","","html-keyboard-response","588","888562","0.0-8.0-1.2","","<img src=""img/blue-r.png"" border=""10"">","null","trial","32","","0.6,0.4","3:go_c","1",""
"null","","html-keyboard-response","589","889575","0.0-8.0-2.2","","<div style=""font-size:60px;"">+</div>","null","","","","","","",""
"509.74999999743886","","image-keyboard-response","590","890086","0.0-8.0-0.3","","img/pink.png","32","trial","null","false","0.2,0.8","2:nogo_b","",""
"null","","html-keyboard-response","591","891092","0.0-8.0-1.3","","<img src=""img/pink-n.png"" border=""10"">","null","trial","null","","0.2,0.8","2:nogo_b","0",""
"null","","html-keyboard-response","592","892102","0.0-8.0-2.3","","<div style=""font-size:60px;"">+</div>","null","","","","","","",""
"510.54999999911524","","image-keyboard-response","593","892614","0.0-8.0-0.4","","img/pink.png","32","trial","null","false","0.2,0.8","2:nogo_b","",""
"null","","html-keyboard-response","594","893617","0.0-8.0-1.4","","<img src=""img/pink-r.png"" border=""10"">","null","trial","null","","0.2,0.8","2:nogo_b","1",""
"null","","html-keyboard-response","595","894623","0.0-8.0-2.4","","<div style=""font-size:60px;"">+</div>","null","","","","","","",""
"556.0750000004191","","image-keyboard-response","596","895180","0.0-8.0-0.5","","img/yellow.png","32","trial","null","false","0.4,0.6","4:nogo_d","",""
"null","","html-keyboard-response","597","896192","0.0-8.0-1.5","","<img src=""img/yellow-r.png"" border=""10"">","null","trial","null","","0.4,0.6","4:nogo_d","1",""
"null","","html-keyboard-response","598","897206","0.0-8.0-2.5","","<div style=""font-size:60px;"">+</div>","null","","","","","","",""
"538.9799999976531","","image-keyboard-response","599","897746","0.0-8.0-0.6","","img/blue.png","32","trial","32","true","0.6,0.4","3:go_c","",""
"null","","html-keyboard-response","600","898753","0.0-8.0-1.6","","<img src=""img/blue-n.png"" border=""10"">","null","trial","32","","0.6,0.4","3:go_c","0",""
"null","","html-keyboard-response","601","899764","0.0-8.0-2.6","","<div style=""font-size:60px;"">+</div>","null","","","","","","",""
"508.61499999882653","","image-keyboard-response","602","900273","0.0-8.0-0.7","","img/orange.png","32","trial","32","true","0.8,0.2","1:go_a","",""
"null","","html-keyboard-response","603","901283","0.0-8.0-1.7","","<img src=""img/orange-r.png"" border=""10"">","null","trial","32","","0.8,0.2","1:go_a","1",""
"null","","html-keyboard-response","604","902293","0.0-8.0-2.7","","<div style=""font-size:60px;"">+</div>","null","","","","","","",""
"null","","image-keyboard-response","605","903804","0.0-8.0-0.8","","img/orange.png","null","trial","32","false","0.8,0.2","1:go_a","",""
"null","","html-keyboard-response","606","904820","0.0-8.0-1.8","","<img src=""img/orange-r.png"">","null","trial","32","","0.8,0.2","1:go_a","1",""
"null","","html-keyboard-response","607","905828","0.0-8.0-2.8","","<div style=""font-size:60px;"">+</div>","null","","","","","","",""
"603.610000005574","","image-keyboard-response","608","906433","0.0-8.0-0.9","","img/blue.png","32","trial","32","true","0.6,0.4","3:go_c","",""
"null","","html-keyboard-response","609","907444","0.0-8.0-1.9","","<img src=""img/blue-n.png"" border=""10"">","null","trial","32","","0.6,0.4","3:go_c","0",""
"null","","html-keyboard-response","610","908454","0.0-8.0-2.9","","<div style=""font-size:60px;"">+</div>","null","","","","","","",""
"504.82000000192784","","image-keyboard-response","611","908960","0.0-8.0-0.10","","img/pink.png","32","trial","null","false","0.2,0.8","2:nogo_b","",""
"null","","html-keyboard-response","612","909976","0.0-8.0-1.10","","<img src=""img/pink-n.png"" border=""10"">","null","trial","null","","0.2,0.8","2:nogo_b","0",""
"null","","html-keyboard-response","613","910985","0.0-8.0-2.10","","<div style=""font-size:60px;"">+</div>","null","","","","","","",""
"500.46000000298955","","image-keyboard-response","614","911487","0.0-8.0-0.11","","img/yellow.png","32","trial","null","false","0.4,0.6","4:nogo_d","",""
"null","","html-keyboard-response","615","912501","0.0-8.0-1.11","","<img src=""img/yellow-r.png"" border=""10"">","null","trial","null","","0.4,0.6","4:nogo_d","1",""
"null","","html-keyboard-response","616","913504","0.0-8.0-2.11","","<div style=""font-size:60px;"">+</div>","null","","","","","","",""
"null","","image-keyboard-response","617","915007","0.0-8.0-0.12","","img/blue.png","null","trial","32","false","0.6,0.4","3:go_c","",""
"null","","html-keyboard-response","618","916018","0.0-8.0-1.12","","<img src=""img/blue-n.png"">","null","trial","32","","0.6,0.4","3:go_c","0",""
"null","","html-keyboard-response","619","917028","0.0-8.0-2.12","","<div style=""font-size:60px;"">+</div>","null","","","","","","",""
"932.8699999968521","","image-keyboard-response","620","917962","0.0-8.0-0.13","","img/pink.png","32","trial","null","false","0.2,0.8","2:nogo_b","",""
"null","","html-keyboard-response","621","918976","0.0-8.0-1.13","","<img src=""img/pink-n.png"" border=""10"">","null","trial","null","","0.2,0.8","2:nogo_b","0",""
"null","","html-keyboard-response","622","919986","0.0-8.0-2.13","","<div style=""font-size:60px;"">+</div>","null","","","","","","",""
"540.7899999991059","","image-keyboard-response","623","920528","0.0-8.0-0.14","","img/orange.png","32","trial","32","true","0.8,0.2","1:go_a","",""
"null","","html-keyboard-response","624","921539","0.0-8.0-1.14","","<img src=""img/orange-r.png"" border=""10"">","null","trial","32","","0.8,0.2","1:go_a","1",""
"null","","html-keyboard-response","625","922540","0.0-8.0-2.14","","<div style=""font-size:60px;"">+</div>","null","","","","","","",""
"474.72500000009313","","image-keyboard-response","626","923016","0.0-8.0-0.15","","img/yellow.png","32","trial","null","false","0.4,0.6","4:nogo_d","",""
"null","","html-keyboard-response","627","924022","0.0-8.0-1.15","","<img src=""img/yellow-r.png"" border=""10"">","null","trial","null","","0.4,0.6","4:nogo_d","1",""
"null","","html-keyboard-response","628","925031","0.0-8.0-2.15","","<div style=""font-size:60px;"">+</div>","null","","","","","","",""
"590.1749999974854","","image-keyboard-response","629","925622","0.0-8.0-0.16","","img/yellow.png","32","trial","null","false","0.4,0.6","4:nogo_d","",""
"null","","html-keyboard-response","630","926635","0.0-8.0-1.16","","<img src=""img/yellow-n.png"" border=""10"">","null","trial","null","","0.4,0.6","4:nogo_d","0",""
"null","","html-keyboard-response","631","927648","0.0-8.0-2.16","","<div style=""font-size:60px;"">+</div>","null","","","","","","",""
"null","","image-keyboard-response","632","929151","0.0-8.0-0.17","","img/blue.png","null","trial","32","false","0.6,0.4","3:go_c","",""
"null","","html-keyboard-response","633","930162","0.0-8.0-1.17","","<img src=""img/blue-n.png"">","null","trial","32","","0.6,0.4","3:go_c","0",""
"null","","html-keyboard-response","634","931175","0.0-8.0-2.17","","<div style=""font-size:60px;"">+</div>","null","","","","","","",""
"447.4049999989802","","image-keyboard-response","635","931623","0.0-8.0-0.18","","img/orange.png","32","trial","32","true","0.8,0.2","1:go_a","",""
"null","","html-keyboard-response","636","932635","0.0-8.0-1.18","","<img src=""img/orange-r.png"" border=""10"">","null","trial","32","","0.8,0.2","1:go_a","1",""
"null","","html-keyboard-response","637","933645","0.0-8.0-2.18","","<div style=""font-size:60px;"">+</div>","null","","","","","","",""
"null","","image-keyboard-response","638","935155","0.0-8.0-0.19","","img/pink.png","null","trial","null","true","0.2,0.8","2:nogo_b","",""
"null","","html-keyboard-response","639","936161","0.0-8.0-1.19","","<img src=""img/pink-r.png"">","null","trial","null","","0.2,0.8","2:nogo_b","1",""
"null","","html-keyboard-response","640","937163","0.0-8.0-2.19","","<div style=""font-size:60px;"">+</div>","null","","","","","","",""
"657.6249999998836","","image-keyboard-response","641","937822","0.0-8.0-0.20","","img/yellow.png","32","trial","null","false","0.4,0.6","4:nogo_d","",""
"null","","html-keyboard-response","642","938839","0.0-8.0-1.20","","<img src=""img/yellow-n.png"" border=""10"">","null","trial","null","","0.4,0.6","4:nogo_d","0",""
"null","","html-keyboard-response","643","939852","0.0-8.0-2.20","","<div style=""font-size:60px;"">+</div>","null","","","","","","",""
"496.4299999992363","","image-keyboard-response","644","940349","0.0-8.0-0.21","","img/orange.png","32","trial","32","true","0.8,0.2","1:go_a","",""
"null","","html-keyboard-response","645","941363","0.0-8.0-1.21","","<img src=""img/orange-r.png"" border=""10"">","null","trial","32","","0.8,0.2","1:go_a","1",""
"null","","html-keyboard-response","646","942372","0.0-8.0-2.21","","<div style=""font-size:60px;"">+</div>","null","","","","","","",""
"null","","image-keyboard-response","647","943887","0.0-8.0-0.22","","img/blue.png","null","trial","32","false","0.6,0.4","3:go_c","",""
"null","","html-keyboard-response","648","944893","0.0-8.0-1.22","","<img src=""img/blue-n.png"">","null","trial","32","","0.6,0.4","3:go_c","0",""
"null","","html-keyboard-response","649","945906","0.0-8.0-2.22","","<div style=""font-size:60px;"">+</div>","null","","","","","","",""
"522.6000000038184","","image-keyboard-response","650","946430","0.0-8.0-0.23","","img/pink.png","32","trial","null","false","0.2,0.8","2:nogo_b","",""
"null","","html-keyboard-response","651","947446","0.0-8.0-1.23","","<img src=""img/pink-n.png"" border=""10"">","null","trial","null","","0.2,0.8","2:nogo_b","0",""
"null","","html-keyboard-response","652","948453","0.0-8.0-2.23","","<div style=""font-size:60px;"">+</div>","null","","","","","","",""
"660.6300000058254","","image-keyboard-response","653","949114","0.0-8.0-0.24","","img/pink.png","32","trial","null","false","0.2,0.8","2:nogo_b","",""
"null","","html-keyboard-response","654","950126","0.0-8.0-1.24","","<img src=""img/pink-r.png"" border=""10"">","null","trial","null","","0.2,0.8","2:nogo_b","1",""
"null","","html-keyboard-response","655","951136","0.0-8.0-2.24","","<div style=""font-size:60px;"">+</div>","null","","","","","","",""
"504.3599999989383","","image-keyboard-response","656","951642","0.0-8.0-0.25","","img/orange.png","32","trial","32","true","0.8,0.2","1:go_a","",""
"null","","html-keyboard-response","657","952656","0.0-8.0-1.25","","<img src=""img/orange-r.png"" border=""10"">","null","trial","32","","0.8,0.2","1:go_a","1",""
"null","","html-keyboard-response","658","953664","0.0-8.0-2.25","","<div style=""font-size:60px;"">+</div>","null","","","","","","",""
"null","","image-keyboard-response","659","955167","0.0-8.0-0.26","","img/blue.png","null","trial","32","false","0.6,0.4","3:go_c","",""
"null","","html-keyboard-response","660","956182","0.0-8.0-1.26","","<img src=""img/blue-r.png"">","null","trial","32","","0.6,0.4","3:go_c","1",""
"null","","html-keyboard-response","661","957187","0.0-8.0-2.26","","<div style=""font-size:60px;"">+</div>","null","","","","","","",""
"573.0000000039581","","image-keyboard-response","662","957762","0.0-8.0-0.27","","img/yellow.png","32","trial","null","false","0.4,0.6","4:nogo_d","",""
"null","","html-keyboard-response","663","958776","0.0-8.0-1.27","","<img src=""img/yellow-n.png"" border=""10"">","null","trial","null","","0.4,0.6","4:nogo_d","0",""
"null","","html-keyboard-response","664","959788","0.0-8.0-2.27","","<div style=""font-size:60px;"">+</div>","null","","","","","","",""
"459.66000000049826","","image-keyboard-response","665","960249","0.0-8.0-0.28","","img/orange.png","32","trial","32","true","0.8,0.2","1:go_a","",""
"null","","html-keyboard-response","666","961263","0.0-8.0-1.28","","<img src=""img/orange-n.png"" border=""10"">","null","trial","32","","0.8,0.2","1:go_a","0",""
"null","","html-keyboard-response","667","962278","0.0-8.0-2.28","","<div style=""font-size:60px;"">+</div>","null","","","","","","",""
"495.9799999996321","","image-keyboard-response","668","962776","0.0-8.0-0.29","","img/pink.png","32","trial","null","false","0.2,0.8","2:nogo_b","",""
"null","","html-keyboard-response","669","963782","0.0-8.0-1.29","","<img src=""img/pink-r.png"" border=""10"">","null","trial","null","","0.2,0.8","2:nogo_b","1",""
"null","","html-keyboard-response","670","964794","0.0-8.0-2.29","","<div style=""font-size:60px;"">+</div>","null","","","","","","",""
"547.019999998156","","image-keyboard-response","671","965342","0.0-8.0-0.30","","img/yellow.png","32","trial","null","false","0.4,0.6","4:nogo_d","",""
"null","","html-keyboard-response","672","966356","0.0-8.0-1.30","","<img src=""img/yellow-n.png"" border=""10"">","null","trial","null","","0.4,0.6","4:nogo_d","0",""
"null","","html-keyboard-response","673","967365","0.0-8.0-2.30","","<div style=""font-size:60px;"">+</div>","null","","","","","","",""
"740.2500000025611","","image-keyboard-response","674","968107","0.0-8.0-0.31","","img/blue.png","32","trial","32","true","0.6,0.4","3:go_c","",""
