"rt","url","trial_type","trial_index","time_elapsed","internal_node_id","view_history","stimulus","key_press","test_part","correct_response","correct","use_rew","which_stim","reward","responses"
"24715.45000001788","consent.html","external-html","0","24892","0.0-0.0","","","","","","","","","",""
"5978960.955000017","","instructions","1","6003854","0.0-1.0","[{""page_index"":0,""viewing_time"":2692.8300000727177},{""page_index"":1,""viewing_time"":10552.840000018477},{""page_index"":2,""viewing_time"":4136.045000050217},{""page_index"":3,""viewing_time"":14876.105000032112},{""page_index"":4,""viewing_time"":10310.97500002943},{""page_index"":5,""viewing_time"":5930017.009999836},{""page_index"":6,""viewing_time"":6374.560000142083}]","","","","","","","","",""
"null","","image-keyboard-response","2","6005359","0.0-2.0-0.0","","img/test3.PNG","null","practice","null","true","","","",""
"null","","html-keyboard-response","3","6006376","0.0-2.0-1.0","","<img src=""img/test3-reward.PNG"">","null","","","","","","",""
"null","","html-keyboard-response","4","6007389","0.0-2.0-2.0","","<div style=""font-size:60px;"">+</div>","null","","","","","","",""
"372.83500004559755","","image-keyboard-response","5","6007763","0.0-2.0-0.1","","img/test1.PNG","32","practice","32","true","","","",""
"null","","html-keyboard-response","6","6008768","0.0-2.0-1.1","","<img src=""img/test1-reward.PNG"" border=""10px; grey"">","null","","","","","","",""
"null","","html-keyboard-response","7","6009778","0.0-2.0-2.1","","<div style=""font-size:60px;"">+</div>","null","","","","","","",""
"null","","image-keyboard-response","8","6011288","0.0-2.0-0.2","","img/test2.PNG","null","practice","null","true","","","",""
"null","","html-keyboard-response","9","6012299","0.0-2.0-1.2","","<img src=""img/test2-reward.PNG"">","null","","","","","","",""
"null","","html-keyboard-response","10","6013311","0.0-2.0-2.2","","<div style=""font-size:60px;"">+</div>","null","","","","","","",""
"424.05500006861985","","image-keyboard-response","11","6013736","0.0-2.0-0.3","","img/test1.PNG","32","practice","32","true","","","",""
"null","","html-keyboard-response","12","6014738","0.0-2.0-1.3","","<img src=""img/test1-reward.PNG"" border=""10px; grey"">","null","","","","","","",""
"null","","html-keyboard-response","13","6015743","0.0-2.0-2.3","","<div style=""font-size:60px;"">+</div>","null","","","","","","",""
"null","","image-keyboard-response","14","6017255","0.0-2.0-0.4","","img/test3.PNG","null","practice","null","true","","","",""
"null","","html-keyboard-response","15","6018263","0.0-2.0-1.4","","<img src=""img/test3-reward.PNG"">","null","","","","","","",""
"null","","html-keyboard-response","16","6019267","0.0-2.0-2.4","","<div style=""font-size:60px;"">+</div>","null","","","","","","",""
"null","","image-keyboard-response","17","6020772","0.0-2.0-0.5","","img/test2.PNG","null","practice","null","true","","","",""
"null","","html-keyboard-response","18","6021774","0.0-2.0-1.5","","<img src=""img/test2-reward.PNG"">","null","","","","","","",""
"null","","html-keyboard-response","19","6022778","0.0-2.0-2.5","","<div style=""font-size:60px;"">+</div>","null","","","","","","",""
"null","","image-keyboard-response","20","6024283","0.0-2.0-0.6","","img/test3.PNG","null","practice","null","true","","","",""
"null","","html-keyboard-response","21","6025288","0.0-2.0-1.6","","<img src=""img/test3-reward.PNG"">","null","","","","","","",""
"null","","html-keyboard-response","22","6026302","0.0-2.0-2.6","","<div style=""font-size:60px;"">+</div>","null","","","","","","",""
"369.15000015869737","","image-keyboard-response","23","6026673","0.0-2.0-0.7","","img/test1.PNG","32","practice","32","true","","","",""
"null","","html-keyboard-response","24","6027679","0.0-2.0-1.7","","<img src=""img/test1-reward.PNG"" border=""10px; grey"">","null","","","","","","",""
"null","","html-keyboard-response","25","6028690","0.0-2.0-2.7","","<div style=""font-size:60px;"">+</div>","null","","","","","","",""
"null","","image-keyboard-response","26","6030196","0.0-2.0-0.8","","img/test2.PNG","null","practice","null","true","","","",""
"null","","html-keyboard-response","27","6031201","0.0-2.0-1.8","","<img src=""img/test2-reward.PNG"">","null","","","","","","",""
"null","","html-keyboard-response","28","6032216","0.0-2.0-2.8","","<div style=""font-size:60px;"">+</div>","null","","","","","","",""
"null","","image-keyboard-response","29","6033717","0.0-2.0-0.9","","img/test2.PNG","null","practice","null","true","","","",""
"null","","html-keyboard-response","30","6034730","0.0-2.0-1.9","","<img src=""img/test2-reward.PNG"">","null","","","","","","",""
"null","","html-keyboard-response","31","6035737","0.0-2.0-2.9","","<div style=""font-size:60px;"">+</div>","null","","","","","","",""
"null","","image-keyboard-response","32","6037251","0.0-2.0-0.10","","img/test3.PNG","null","practice","null","true","","","",""
"null","","html-keyboard-response","33","6038262","0.0-2.0-1.10","","<img src=""img/test3-reward.PNG"">","null","","","","","","",""
"null","","html-keyboard-response","34","6039267","0.0-2.0-2.10","","<div style=""font-size:60px;"">+</div>","null","","","","","","",""
"547.4249999970198","","image-keyboard-response","35","6039816","0.0-2.0-0.11","","img/test1.PNG","32","practice","32","true","","","",""
"null","","html-keyboard-response","36","6040829","0.0-2.0-1.11","","<img src=""img/test1-reward.PNG"" border=""10px; grey"">","null","","","","","","",""
"null","","html-keyboard-response","37","6041840","0.0-2.0-2.11","","<div style=""font-size:60px;"">+</div>","null","","","","","","",""
"2299.1649999748915","","instructions","38","6044140","0.0-3.0","[{""page_index"":0,""viewing_time"":2299.054999835789}]","","","","","","","","",""
"737.2699999250472","","image-keyboard-response","39","6044878","0.0-4.0-0.0","","img/green.png","32","trial","32","true","0.8,0.2","1:go_a","",""
"null","","html-keyboard-response","40","6045886","0.0-4.0-1.0","","<img src=""img/green-r.png"" border=""10"">","null","trial","32","","0.8,0.2","1:go_a","1",""
"null","","html-keyboard-response","41","6046890","0.0-4.0-2.0","","<div style=""font-size:60px;"">+</div>","null","","","","","","",""
"null","","image-keyboard-response","42","6048404","0.0-4.0-0.1","","img/grey.png","null","trial","null","true","0.2,0.8","2:nogo_b","",""
"null","","html-keyboard-response","43","6049405","0.0-4.0-1.1","","<img src=""img/grey-r.png"">","null","trial","null","","0.2,0.8","2:nogo_b","1",""
"null","","html-keyboard-response","44","6050420","0.0-4.0-2.1","","<div style=""font-size:60px;"">+</div>","null","","","","","","",""
"null","","image-keyboard-response","45","6051934","0.0-4.0-0.2","","img/grey.png","null","trial","null","true","0.2,0.8","2:nogo_b","",""
"null","","html-keyboard-response","46","6052940","0.0-4.0-1.2","","<img src=""img/grey-r.png"">","null","trial","null","","0.2,0.8","2:nogo_b","1",""
"null","","html-keyboard-response","47","6053947","0.0-4.0-2.2","","<div style=""font-size:60px;"">+</div>","null","","","","","","",""
"516.0749999340624","","image-keyboard-response","48","6054464","0.0-4.0-0.3","","img/green.png","32","trial","32","true","0.8,0.2","1:go_a","",""
"null","","html-keyboard-response","49","6055466","0.0-4.0-1.3","","<img src=""img/green-r.png"" border=""10"">","null","trial","32","","0.8,0.2","1:go_a","1",""
"null","","html-keyboard-response","50","6056474","0.0-4.0-2.3","","<div style=""font-size:60px;"">+</div>","null","","","","","","",""
"454.51999991200864","","image-keyboard-response","51","6056929","0.0-4.0-0.4","","img/green.png","32","trial","32","true","0.8,0.2","1:go_a","",""
"null","","html-keyboard-response","52","6057941","0.0-4.0-1.4","","<img src=""img/green-r.png"" border=""10"">","null","trial","32","","0.8,0.2","1:go_a","1",""
"null","","html-keyboard-response","53","6058954","0.0-4.0-2.4","","<div style=""font-size:60px;"">+</div>","null","","","","","","",""
"null","","image-keyboard-response","54","6060460","0.0-4.0-0.5","","img/grey.png","null","trial","null","true","0.2,0.8","2:nogo_b","",""
"null","","html-keyboard-response","55","6061476","0.0-4.0-1.5","","<img src=""img/grey-r.png"">","null","trial","null","","0.2,0.8","2:nogo_b","1",""
"null","","html-keyboard-response","56","6062480","0.0-4.0-2.5","","<div style=""font-size:60px;"">+</div>","null","","","","","","",""
"null","","image-keyboard-response","57","6063982","0.0-4.0-0.6","","img/grey.png","null","trial","null","true","0.2,0.8","2:nogo_b","",""
"null","","html-keyboard-response","58","6064986","0.0-4.0-1.6","","<img src=""img/grey-r.png"">","null","trial","null","","0.2,0.8","2:nogo_b","1",""
"null","","html-keyboard-response","59","6065994","0.0-4.0-2.6","","<div style=""font-size:60px;"">+</div>","null","","","","","","",""
"414.3399999011308","","image-keyboard-response","60","6066410","0.0-4.0-0.7","","img/green.png","32","trial","32","true","0.8,0.2","1:go_a","",""
"null","","html-keyboard-response","61","6067420","0.0-4.0-1.7","","<img src=""img/green-r.png"" border=""10"">","null","trial","32","","0.8,0.2","1:go_a","1",""
"null","","html-keyboard-response","62","6068435","0.0-4.0-2.7","","<div style=""font-size:60px;"">+</div>","null","","","","","","",""
"null","","image-keyboard-response","63","6069935","0.0-4.0-0.8","","img/grey.png","null","trial","null","true","0.2,0.8","2:nogo_b","",""
"null","","html-keyboard-response","64","6070943","0.0-4.0-1.8","","<img src=""img/grey-n.png"">","null","trial","null","","0.2,0.8","2:nogo_b","0",""
"null","","html-keyboard-response","65","6071945","0.0-4.0-2.8","","<div style=""font-size:60px;"">+</div>","null","","","","","","",""
"510.85500000044703","","image-keyboard-response","66","6072457","0.0-4.0-0.9","","img/green.png","32","trial","32","true","0.8,0.2","1:go_a","",""
"null","","html-keyboard-response","67","6073459","0.0-4.0-1.9","","<img src=""img/green-r.png"" border=""10"">","null","trial","32","","0.8,0.2","1:go_a","1",""
"null","","html-keyboard-response","68","6074468","0.0-4.0-2.9","","<div style=""font-size:60px;"">+</div>","null","","","","","","",""
"498.64500015974045","","image-keyboard-response","69","6074968","0.0-4.0-0.10","","img/green.png","32","trial","32","true","0.8,0.2","1:go_a","",""
"null","","html-keyboard-response","70","6075979","0.0-4.0-1.10","","<img src=""img/green-r.png"" border=""10"">","null","trial","32","","0.8,0.2","1:go_a","1",""
"null","","html-keyboard-response","71","6076985","0.0-4.0-2.10","","<div style=""font-size:60px;"">+</div>","null","","","","","","",""
"null","","image-keyboard-response","72","6078502","0.0-4.0-0.11","","img/grey.png","null","trial","null","true","0.2,0.8","2:nogo_b","",""
"null","","html-keyboard-response","73","6079509","0.0-4.0-1.11","","<img src=""img/grey-r.png"">","null","trial","null","","0.2,0.8","2:nogo_b","1",""
"null","","html-keyboard-response","74","6080517","0.0-4.0-2.11","","<div style=""font-size:60px;"">+</div>","null","","","","","","",""
"461.9100000709295","","image-keyboard-response","75","6080979","0.0-4.0-0.12","","img/green.png","32","trial","32","true","0.8,0.2","1:go_a","",""
"null","","html-keyboard-response","76","6081990","0.0-4.0-1.12","","<img src=""img/green-r.png"" border=""10"">","null","trial","32","","0.8,0.2","1:go_a","1",""
"null","","html-keyboard-response","77","6082998","0.0-4.0-2.12","","<div style=""font-size:60px;"">+</div>","null","","","","","","",""
"null","","image-keyboard-response","78","6084501","0.0-4.0-0.13","","img/grey.png","null","trial","null","true","0.2,0.8","2:nogo_b","",""
"null","","html-keyboard-response","79","6085506","0.0-4.0-1.13","","<img src=""img/grey-r.png"">","null","trial","null","","0.2,0.8","2:nogo_b","1",""
"null","","html-keyboard-response","80","6086509","0.0-4.0-2.13","","<div style=""font-size:60px;"">+</div>","null","","","","","","",""
"370.5250001512468","","image-keyboard-response","81","6086880","0.0-4.0-0.14","","img/green.png","32","trial","32","true","0.8,0.2","1:go_a","",""
"null","","html-keyboard-response","82","6087894","0.0-4.0-1.14","","<img src=""img/green-r.png"" border=""10"">","null","trial","32","","0.8,0.2","1:go_a","1",""
"null","","html-keyboard-response","83","6088901","0.0-4.0-2.14","","<div style=""font-size:60px;"">+</div>","null","","","","","","",""
"null","","image-keyboard-response","84","6090412","0.0-4.0-0.15","","img/grey.png","null","trial","null","true","0.2,0.8","2:nogo_b","",""
"null","","html-keyboard-response","85","6091417","0.0-4.0-1.15","","<img src=""img/grey-r.png"">","null","trial","null","","0.2,0.8","2:nogo_b","1",""
"null","","html-keyboard-response","86","6092428","0.0-4.0-2.15","","<div style=""font-size:60px;"">+</div>","null","","","","","","",""
"507.90000008419156","","image-keyboard-response","87","6092938","0.0-4.0-0.16","","img/green.png","32","trial","32","true","0.8,0.2","1:go_a","",""
"null","","html-keyboard-response","88","6093944","0.0-4.0-1.16","","<img src=""img/green-r.png"" border=""10"">","null","trial","32","","0.8,0.2","1:go_a","1",""
"null","","html-keyboard-response","89","6094951","0.0-4.0-2.16","","<div style=""font-size:60px;"">+</div>","null","","","","","","",""
"null","","image-keyboard-response","90","6096460","0.0-4.0-0.17","","img/grey.png","null","trial","null","true","0.2,0.8","2:nogo_b","",""
"null","","html-keyboard-response","91","6097465","0.0-4.0-1.17","","<img src=""img/grey-r.png"">","null","trial","null","","0.2,0.8","2:nogo_b","1",""
"null","","html-keyboard-response","92","6098469","0.0-4.0-2.17","","<div style=""font-size:60px;"">+</div>","null","","","","","","",""
"419.02499995194376","","image-keyboard-response","93","6098888","0.0-4.0-0.18","","img/green.png","32","trial","32","true","0.8,0.2","1:go_a","",""
"null","","html-keyboard-response","94","6099903","0.0-4.0-1.18","","<img src=""img/green-r.png"" border=""10"">","null","trial","32","","0.8,0.2","1:go_a","1",""
"null","","html-keyboard-response","95","6100918","0.0-4.0-2.18","","<div style=""font-size:60px;"">+</div>","null","","","","","","",""
"null","","image-keyboard-response","96","6102432","0.0-4.0-0.19","","img/grey.png","null","trial","null","true","0.2,0.8","2:nogo_b","",""
"null","","html-keyboard-response","97","6103444","0.0-4.0-1.19","","<img src=""img/grey-r.png"">","null","trial","null","","0.2,0.8","2:nogo_b","1",""
"null","","html-keyboard-response","98","6104451","0.0-4.0-2.19","","<div style=""font-size:60px;"">+</div>","null","","","","","","",""
"381.1399999540299","","image-keyboard-response","99","6104832","0.0-4.0-0.20","","img/green.png","32","trial","32","true","0.8,0.2","1:go_a","",""
"null","","html-keyboard-response","100","6105848","0.0-4.0-1.20","","<img src=""img/green-r.png"" border=""10"">","null","trial","32","","0.8,0.2","1:go_a","1",""
"null","","html-keyboard-response","101","6106855","0.0-4.0-2.20","","<div style=""font-size:60px;"">+</div>","null","","","","","","",""
"null","","image-keyboard-response","102","6108366","0.0-4.0-0.21","","img/grey.png","null","trial","null","true","0.2,0.8","2:nogo_b","",""
"null","","html-keyboard-response","103","6109370","0.0-4.0-1.21","","<img src=""img/grey-r.png"">","null","trial","null","","0.2,0.8","2:nogo_b","1",""
"null","","html-keyboard-response","104","6110383","0.0-4.0-2.21","","<div style=""font-size:60px;"">+</div>","null","","","","","","",""
"368.43999987468123","","image-keyboard-response","105","6110752","0.0-4.0-0.22","","img/green.png","32","trial","32","true","0.8,0.2","1:go_a","",""
"null","","html-keyboard-response","106","6111766","0.0-4.0-1.22","","<img src=""img/green-r.png"" border=""10"">","null","trial","32","","0.8,0.2","1:go_a","1",""
"null","","html-keyboard-response","107","6112775","0.0-4.0-2.22","","<div style=""font-size:60px;"">+</div>","null","","","","","","",""
"null","","image-keyboard-response","108","6114281","0.0-4.0-0.23","","img/grey.png","null","trial","null","true","0.2,0.8","2:nogo_b","",""
"null","","html-keyboard-response","109","6115289","0.0-4.0-1.23","","<img src=""img/grey-n.png"">","null","trial","null","","0.2,0.8","2:nogo_b","0",""
"null","","html-keyboard-response","110","6116300","0.0-4.0-2.23","","<div style=""font-size:60px;"">+</div>","null","","","","","","",""
"420.1900002080947","","image-keyboard-response","111","6116721","0.0-4.0-0.24","","img/green.png","32","trial","32","true","0.8,0.2","1:go_a","",""
"null","","html-keyboard-response","112","6117732","0.0-4.0-1.24","","<img src=""img/green-n.png"" border=""10"">","null","trial","32","","0.8,0.2","1:go_a","0",""
"null","","html-keyboard-response","113","6118741","0.0-4.0-2.24","","<div style=""font-size:60px;"">+</div>","null","","","","","","",""
"null","","image-keyboard-response","114","6120256","0.0-4.0-0.25","","img/grey.png","null","trial","null","true","0.2,0.8","2:nogo_b","",""
"null","","html-keyboard-response","115","6121271","0.0-4.0-1.25","","<img src=""img/grey-r.png"">","null","trial","null","","0.2,0.8","2:nogo_b","1",""
"null","","html-keyboard-response","116","6122284","0.0-4.0-2.25","","<div style=""font-size:60px;"">+</div>","null","","","","","","",""
"null","","image-keyboard-response","117","6123797","0.0-4.0-0.26","","img/grey.png","null","trial","null","true","0.2,0.8","2:nogo_b","",""
"null","","html-keyboard-response","118","6124805","0.0-4.0-1.26","","<img src=""img/grey-r.png"">","null","trial","null","","0.2,0.8","2:nogo_b","1",""
"null","","html-keyboard-response","119","6125815","0.0-4.0-2.26","","<div style=""font-size:60px;"">+</div>","null","","","","","","",""
"544.7649999987334","","image-keyboard-response","120","6126360","0.0-4.0-0.27","","img/green.png","32","trial","32","true","0.8,0.2","1:go_a","",""
"null","","html-keyboard-response","121","6127375","0.0-4.0-1.27","","<img src=""img/green-r.png"" border=""10"">","null","trial","32","","0.8,0.2","1:go_a","1",""
"null","","html-keyboard-response","122","6128384","0.0-4.0-2.27","","<div style=""font-size:60px;"">+</div>","null","","","","","","",""
"327.4799999780953","","image-keyboard-response","123","6128712","0.0-4.0-0.28","","img/green.png","32","trial","32","true","0.8,0.2","1:go_a","",""
"null","","html-keyboard-response","124","6129724","0.0-4.0-1.28","","<img src=""img/green-r.png"" border=""10"">","null","trial","32","","0.8,0.2","1:go_a","1",""
"null","","html-keyboard-response","125","6130731","0.0-4.0-2.28","","<div style=""font-size:60px;"">+</div>","null","","","","","","",""
"null","","image-keyboard-response","126","6132242","0.0-4.0-0.29","","img/grey.png","null","trial","null","true","0.2,0.8","2:nogo_b","",""
"null","","html-keyboard-response","127","6133243","0.0-4.0-1.29","","<img src=""img/grey-r.png"">","null","trial","null","","0.2,0.8","2:nogo_b","1",""
"null","","html-keyboard-response","128","6134250","0.0-4.0-2.29","","<div style=""font-size:60px;"">+</div>","null","","","","","","",""
"null","","image-keyboard-response","129","6135758","0.0-4.0-0.30","","img/grey.png","null","trial","null","true","0.2,0.8","2:nogo_b","",""
"null","","html-keyboard-response","130","6136768","0.0-4.0-1.30","","<img src=""img/grey-r.png"">","null","trial","null","","0.2,0.8","2:nogo_b","1",""
"null","","html-keyboard-response","131","6137780","0.0-4.0-2.30","","<div style=""font-size:60px;"">+</div>","null","","","","","","",""
"428.67000005207956","","image-keyboard-response","132","6138209","0.0-4.0-0.31","","img/green.png","32","trial","32","true","0.8,0.2","1:go_a","",""
"null","","html-keyboard-response","133","6139213","0.0-4.0-1.31","","<img src=""img/green-r.png"" border=""10"">","null","trial","32","","0.8,0.2","1:go_a","1",""
"null","","html-keyboard-response","134","6140218","0.0-4.0-2.31","","<div style=""font-size:60px;"">+</div>","null","","","","","","",""
"653.2550000119954","","image-keyboard-response","135","6140872","0.0-4.0-0.32","","img/green.png","32","trial","32","true","0.8,0.2","1:go_a","",""
"null","","html-keyboard-response","136","6141888","0.0-4.0-1.32","","<img src=""img/green-r.png"" border=""10"">","null","trial","32","","0.8,0.2","1:go_a","1",""
"null","","html-keyboard-response","137","6142899","0.0-4.0-2.32","","<div style=""font-size:60px;"">+</div>","null","","","","","","",""
"null","","image-keyboard-response","138","6144407","0.0-4.0-0.33","","img/grey.png","null","trial","null","true","0.2,0.8","2:nogo_b","",""
"null","","html-keyboard-response","139","6145408","0.0-4.0-1.33","","<img src=""img/grey-n.png"">","null","trial","null","","0.2,0.8","2:nogo_b","0",""
"null","","html-keyboard-response","140","6146413","0.0-4.0-2.33","","<div style=""font-size:60px;"">+</div>","null","","","","","","",""
"null","","image-keyboard-response","141","6147925","0.0-4.0-0.34","","img/grey.png","null","trial","null","true","0.2,0.8","2:nogo_b","",""
"null","","html-keyboard-response","142","6148931","0.0-4.0-1.34","","<img src=""img/grey-r.png"">","null","trial","null","","0.2,0.8","2:nogo_b","1",""
"null","","html-keyboard-response","143","6149932","0.0-4.0-2.34","","<div style=""font-size:60px;"">+</div>","null","","","","","","",""
"443.58500000089407","","image-keyboard-response","144","6150376","0.0-4.0-0.35","","img/green.png","32","trial","32","true","0.8,0.2","1:go_a","",""
"null","","html-keyboard-response","145","6151385","0.0-4.0-1.35","","<img src=""img/green-r.png"" border=""10"">","null","trial","32","","0.8,0.2","1:go_a","1",""
"null","","html-keyboard-response","146","6152392","0.0-4.0-2.35","","<div style=""font-size:60px;"">+</div>","null","","","","","","",""
"null","","image-keyboard-response","147","6153894","0.0-4.0-0.36","","img/grey.png","null","trial","null","true","0.2,0.8","2:nogo_b","",""
"null","","html-keyboard-response","148","6154906","0.0-4.0-1.36","","<img src=""img/grey-r.png"">","null","trial","null","","0.2,0.8","2:nogo_b","1",""
"null","","html-keyboard-response","149","6155913","0.0-4.0-2.36","","<div style=""font-size:60px;"">+</div>","null","","","","","","",""
"407.5849999208003","","image-keyboard-response","150","6156321","0.0-4.0-0.37","","img/green.png","32","trial","32","true","0.8,0.2","1:go_a","",""
"null","","html-keyboard-response","151","6157324","0.0-4.0-1.37","","<img src=""img/green-r.png"" border=""10"">","null","trial","32","","0.8,0.2","1:go_a","1",""
"null","","html-keyboard-response","152","6158333","0.0-4.0-2.37","","<div style=""font-size:60px;"">+</div>","null","","","","","","",""
"null","","image-keyboard-response","153","6159835","0.0-4.0-0.38","","img/grey.png","null","trial","null","true","0.2,0.8","2:nogo_b","",""
"null","","html-keyboard-response","154","6160846","0.0-4.0-1.38","","<img src=""img/grey-r.png"">","null","trial","null","","0.2,0.8","2:nogo_b","1",""
"null","","html-keyboard-response","155","6161854","0.0-4.0-2.38","","<div style=""font-size:60px;"">+</div>","null","","","","","","",""
"369.755000108853","","image-keyboard-response","156","6162224","0.0-4.0-0.39","","img/green.png","32","trial","32","true","0.8,0.2","1:go_a","",""
"null","","html-keyboard-response","157","6163227","0.0-4.0-1.39","","<img src=""img/green-r.png"" border=""10"">","null","trial","32","","0.8,0.2","1:go_a","1",""
"null","","html-keyboard-response","158","6164231","0.0-4.0-2.39","","<div style=""font-size:60px;"">+</div>","null","","","","","","",""
"368.97999979555607","","image-keyboard-response","159","6164601","0.0-4.0-0.40","","img/green.png","32","trial","32","true","0.8,0.2","1:go_a","",""
"null","","html-keyboard-response","160","6165605","0.0-4.0-1.40","","<img src=""img/green-r.png"" border=""10"">","null","trial","32","","0.8,0.2","1:go_a","1",""
"null","","html-keyboard-response","161","6166612","0.0-4.0-2.40","","<div style=""font-size:60px;"">+</div>","null","","","","","","",""
"null","","image-keyboard-response","162","6168128","0.0-4.0-0.41","","img/grey.png","null","trial","null","true","0.2,0.8","2:nogo_b","",""
"null","","html-keyboard-response","163","6169142","0.0-4.0-1.41","","<img src=""img/grey-r.png"">","null","trial","null","","0.2,0.8","2:nogo_b","1",""
"null","","html-keyboard-response","164","6170146","0.0-4.0-2.41","","<div style=""font-size:60px;"">+</div>","null","","","","","","",""
"381.9349999539554","","image-keyboard-response","165","6170528","0.0-4.0-0.42","","img/green.png","32","trial","32","true","0.8,0.2","1:go_a","",""
"null","","html-keyboard-response","166","6171536","0.0-4.0-1.42","","<img src=""img/green-n.png"" border=""10"">","null","trial","32","","0.8,0.2","1:go_a","0",""
"null","","html-keyboard-response","167","6172538","0.0-4.0-2.42","","<div style=""font-size:60px;"">+</div>","null","","","","","","",""
"null","","image-keyboard-response","168","6174052","0.0-4.0-0.43","","img/grey.png","null","trial","null","true","0.2,0.8","2:nogo_b","",""
"null","","html-keyboard-response","169","6175058","0.0-4.0-1.43","","<img src=""img/grey-r.png"">","null","trial","null","","0.2,0.8","2:nogo_b","1",""
"null","","html-keyboard-response","170","6176063","0.0-4.0-2.43","","<div style=""font-size:60px;"">+</div>","null","","","","","","",""
"408.2349999807775","","image-keyboard-response","171","6176469","0.0-4.0-0.44","","img/green.png","32","trial","32","true","0.8,0.2","1:go_a","",""
"null","","html-keyboard-response","172","6177477","0.0-4.0-1.44","","<img src=""img/green-r.png"" border=""10"">","null","trial","32","","0.8,0.2","1:go_a","1",""
"null","","html-keyboard-response","173","6178482","0.0-4.0-2.44","","<div style=""font-size:60px;"">+</div>","null","","","","","","",""
"null","","image-keyboard-response","174","6179993","0.0-4.0-0.45","","img/grey.png","null","trial","null","true","0.2,0.8","2:nogo_b","",""
"null","","html-keyboard-response","175","6181005","0.0-4.0-1.45","","<img src=""img/grey-n.png"">","null","trial","null","","0.2,0.8","2:nogo_b","0",""
"null","","html-keyboard-response","176","6182016","0.0-4.0-2.45","","<div style=""font-size:60px;"">+</div>","null","","","","","","",""
"348.4349998179823","","image-keyboard-response","177","6182366","0.0-4.0-0.46","","img/green.png","32","trial","32","true","0.8,0.2","1:go_a","",""
"null","","html-keyboard-response","178","6183391","0.0-4.0-1.46","","<img src=""img/green-r.png"" border=""10"">","null","trial","32","","0.8,0.2","1:go_a","1",""
"null","","html-keyboard-response","179","6184405","0.0-4.0-2.46","","<div style=""font-size:60px;"">+</div>","null","","","","","","",""
"null","","image-keyboard-response","180","6185909","0.0-4.0-0.47","","img/grey.png","null","trial","null","true","0.2,0.8","2:nogo_b","",""
"null","","html-keyboard-response","181","6186919","0.0-4.0-1.47","","<img src=""img/grey-r.png"">","null","trial","null","","0.2,0.8","2:nogo_b","1",""
"null","","html-keyboard-response","182","6187923","0.0-4.0-2.47","","<div style=""font-size:60px;"">+</div>","null","","","","","","",""
"null","","image-keyboard-response","183","6189438","0.0-4.0-0.48","","img/grey.png","null","trial","null","true","0.2,0.8","2:nogo_b","",""
"null","","html-keyboard-response","184","6190447","0.0-4.0-1.48","","<img src=""img/grey-r.png"">","null","trial","null","","0.2,0.8","2:nogo_b","1",""
"null","","html-keyboard-response","185","6191456","0.0-4.0-2.48","","<div style=""font-size:60px;"">+</div>","null","","","","","","",""
"436.4950000308454","","image-keyboard-response","186","6191893","0.0-4.0-0.49","","img/green.png","32","trial","32","true","0.8,0.2","1:go_a","",""
"null","","html-keyboard-response","187","6192902","0.0-4.0-1.49","","<img src=""img/green-r.png"" border=""10"">","null","trial","32","","0.8,0.2","1:go_a","1",""
"null","","html-keyboard-response","188","6193913","0.0-4.0-2.49","","<div style=""font-size:60px;"">+</div>","null","","","","","","",""
"651.5699999872595","","image-keyboard-response","189","6194565","0.0-4.0-0.50","","img/green.png","32","trial","32","true","0.8,0.2","1:go_a","",""
"null","","html-keyboard-response","190","6195568","0.0-4.0-1.50","","<img src=""img/green-r.png"" border=""10"">","null","trial","32","","0.8,0.2","1:go_a","1",""
"null","","html-keyboard-response","191","6196579","0.0-4.0-2.50","","<div style=""font-size:60px;"">+</div>","null","","","","","","",""
"null","","image-keyboard-response","192","6198083","0.0-4.0-0.51","","img/grey.png","null","trial","null","true","0.2,0.8","2:nogo_b","",""
"null","","html-keyboard-response","193","6199087","0.0-4.0-1.51","","<img src=""img/grey-r.png"">","null","trial","null","","0.2,0.8","2:nogo_b","1",""
"null","","html-keyboard-response","194","6200096","0.0-4.0-2.51","","<div style=""font-size:60px;"">+</div>","null","","","","","","",""
"null","","image-keyboard-response","195","6201604","0.0-4.0-0.52","","img/grey.png","null","trial","null","true","0.2,0.8","2:nogo_b","",""
"null","","html-keyboard-response","196","6202608","0.0-4.0-1.52","","<img src=""img/grey-r.png"">","null","trial","null","","0.2,0.8","2:nogo_b","1",""
"null","","html-keyboard-response","197","6203613","0.0-4.0-2.52","","<div style=""font-size:60px;"">+</div>","null","","","","","","",""
"430.7850000914186","","image-keyboard-response","198","6204045","0.0-4.0-0.53","","img/green.png","32","trial","32","true","0.8,0.2","1:go_a","",""
"null","","html-keyboard-response","199","6205049","0.0-4.0-1.53","","<img src=""img/green-n.png"" border=""10"">","null","trial","32","","0.8,0.2","1:go_a","0",""
"null","","html-keyboard-response","200","6206061","0.0-4.0-2.53","","<div style=""font-size:60px;"">+</div>","null","","","","","","",""
"null","","image-keyboard-response","201","6207567","0.0-4.0-0.54","","img/grey.png","null","trial","null","true","0.2,0.8","2:nogo_b","",""
"null","","html-keyboard-response","202","6208579","0.0-4.0-1.54","","<img src=""img/grey-r.png"">","null","trial","null","","0.2,0.8","2:nogo_b","1",""
"null","","html-keyboard-response","203","6209590","0.0-4.0-2.54","","<div style=""font-size:60px;"">+</div>","null","","","","","","",""
"398.2799998484552","","image-keyboard-response","204","6209989","0.0-4.0-0.55","","img/green.png","32","trial","32","true","0.8,0.2","1:go_a","",""
"null","","html-keyboard-response","205","6210999","0.0-4.0-1.55","","<img src=""img/green-n.png"" border=""10"">","null","trial","32","","0.8,0.2","1:go_a","0",""
"null","","html-keyboard-response","206","6212003","0.0-4.0-2.55","","<div style=""font-size:60px;"">+</div>","null","","","","","","",""
"401.744999922812","","image-keyboard-response","207","6212405","0.0-4.0-0.56","","img/green.png","32","trial","32","true","0.8,0.2","1:go_a","",""
"null","","html-keyboard-response","208","6213417","0.0-4.0-1.56","","<img src=""img/green-r.png"" border=""10"">","null","trial","32","","0.8,0.2","1:go_a","1",""
"null","","html-keyboard-response","209","6214426","0.0-4.0-2.56","","<div style=""font-size:60px;"">+</div>","null","","","","","","",""
"null","","image-keyboard-response","210","6215931","0.0-4.0-0.57","","img/grey.png","null","trial","null","true","0.2,0.8","2:nogo_b","",""
"null","","html-keyboard-response","211","6216945","0.0-4.0-1.57","","<img src=""img/grey-n.png"">","null","trial","null","","0.2,0.8","2:nogo_b","0",""
"null","","html-keyboard-response","212","6217950","0.0-4.0-2.57","","<div style=""font-size:60px;"">+</div>","null","","","","","","",""
"null","","image-keyboard-response","213","6219461","0.0-4.0-0.58","","img/grey.png","null","trial","null","true","0.2,0.8","2:nogo_b","",""
"null","","html-keyboard-response","214","6220469","0.0-4.0-1.58","","<img src=""img/grey-r.png"">","null","trial","null","","0.2,0.8","2:nogo_b","1",""
"null","","html-keyboard-response","215","6221482","0.0-4.0-2.58","","<div style=""font-size:60px;"">+</div>","null","","","","","","",""
"403.58499996364117","","image-keyboard-response","216","6221886","0.0-4.0-0.59","","img/green.png","32","trial","32","true","0.8,0.2","1:go_a","",""
"null","","html-keyboard-response","217","6222887","0.0-4.0-1.59","","<img src=""img/green-r.png"" border=""10"">","null","trial","32","","0.8,0.2","1:go_a","1",""
"null","","html-keyboard-response","218","6223888","0.0-4.0-2.59","","<div style=""font-size:60px;"">+</div>","null","","","","","","",""
"160512.01000018045","","instructions","219","6384402","0.0-5.0","[{""page_index"":0,""viewing_time"":160511.90000004135}]","","","","","","","","",""
"1236.0549999866635","","image-keyboard-response","220","6385639","0.0-6.0-0.0","","img/green.png","32","trial","null","false","0.4,0.6","2:nogo_b","",""
"null","","html-keyboard-response","221","6386640","0.0-6.0-1.0","","<img src=""img/green-r.png"" border=""10"">","null","trial","null","","0.4,0.6","2:nogo_b","1",""
"null","","html-keyboard-response","222","6387656","0.0-6.0-2.0","","<div style=""font-size:60px;"">+</div>","null","","","","","","",""
"485.76000006869435","","image-keyboard-response","223","6388143","0.0-6.0-0.1","","img/red.png","32","trial","32","true","0.6,0.4","3:go_c","",""
"null","","html-keyboard-response","224","6389155","0.0-6.0-1.1","","<img src=""img/red-r.png"" border=""10"">","null","trial","32","","0.6,0.4","3:go_c","1",""
"null","","html-keyboard-response","225","6390170","0.0-6.0-2.1","","<div style=""font-size:60px;"">+</div>","null","","","","","","",""
"491.9600000139326","","image-keyboard-response","226","6390663","0.0-6.0-0.2","","img/purple.png","32","trial","32","true","0.6,0.4","1:go_a","",""
"null","","html-keyboard-response","227","6391673","0.0-6.0-1.2","","<img src=""img/purple-r.png"" border=""10"">","null","trial","32","","0.6,0.4","1:go_a","1",""
"null","","html-keyboard-response","228","6392683","0.0-6.0-2.2","","<div style=""font-size:60px;"">+</div>","null","","","","","","",""
"499.3999998550862","","image-keyboard-response","229","6393183","0.0-6.0-0.3","","img/blue.png","32","trial","null","false","0.4,0.6","4:nogo_d","",""
"null","","html-keyboard-response","230","6394185","0.0-6.0-1.3","","<img src=""img/blue-r.png"" border=""10"">","null","trial","null","","0.4,0.6","4:nogo_d","1",""
"null","","html-keyboard-response","231","6395192","0.0-6.0-2.3","","<div style=""font-size:60px;"">+</div>","null","","","","","","",""
"446.5199999976903","","image-keyboard-response","232","6395639","0.0-6.0-0.4","","img/red.png","32","trial","32","true","0.6,0.4","3:go_c","",""
"null","","html-keyboard-response","233","6396656","0.0-6.0-1.4","","<img src=""img/red-n.png"" border=""10"">","null","trial","32","","0.6,0.4","3:go_c","0",""
"null","","html-keyboard-response","234","6397665","0.0-6.0-2.4","","<div style=""font-size:60px;"">+</div>","null","","","","","","",""
"477.8150001075119","","image-keyboard-response","235","6398143","0.0-6.0-0.5","","img/green.png","32","trial","null","false","0.4,0.6","2:nogo_b","",""
"null","","html-keyboard-response","236","6399145","0.0-6.0-1.5","","<img src=""img/green-n.png"" border=""10"">","null","trial","null","","0.4,0.6","2:nogo_b","0",""
"null","","html-keyboard-response","237","6400151","0.0-6.0-2.5","","<div style=""font-size:60px;"">+</div>","null","","","","","","",""
"888.7650000397116","","image-keyboard-response","238","6401040","0.0-6.0-0.6","","img/blue.png","32","trial","null","false","0.4,0.6","4:nogo_d","",""
"null","","html-keyboard-response","239","6402048","0.0-6.0-1.6","","<img src=""img/blue-n.png"" border=""10"">","null","trial","null","","0.4,0.6","4:nogo_d","0",""
"null","","html-keyboard-response","240","6403059","0.0-6.0-2.6","","<div style=""font-size:60px;"">+</div>","null","","","","","","",""
"null","","image-keyboard-response","241","6404574","0.0-6.0-0.7","","img/purple.png","null","trial","32","false","0.6,0.4","1:go_a","",""
"null","","html-keyboard-response","242","6405589","0.0-6.0-1.7","","<img src=""img/purple-n.png"">","null","trial","32","","0.6,0.4","1:go_a","0",""
"null","","html-keyboard-response","243","6406590","0.0-6.0-2.7","","<div style=""font-size:60px;"">+</div>","null","","","","","","",""
"null","","image-keyboard-response","244","6408092","0.0-6.0-0.8","","img/red.png","null","trial","32","false","0.6,0.4","3:go_c","",""
"null","","html-keyboard-response","245","6409095","0.0-6.0-1.8","","<img src=""img/red-n.png"">","null","trial","32","","0.6,0.4","3:go_c","0",""
"null","","html-keyboard-response","246","6410100","0.0-6.0-2.8","","<div style=""font-size:60px;"">+</div>","null","","","","","","",""
"963.2949999067932","","image-keyboard-response","247","6411064","0.0-6.0-0.9","","img/blue.png","32","trial","null","false","0.4,0.6","4:nogo_d","",""
"null","","html-keyboard-response","248","6412069","0.0-6.0-1.9","","<img src=""img/blue-n.png"" border=""10"">","null","trial","null","","0.4,0.6","4:nogo_d","0",""
"null","","html-keyboard-response","249","6413084","0.0-6.0-2.9","","<div style=""font-size:60px;"">+</div>","null","","","","","","",""
"469.5200000423938","","image-keyboard-response","250","6413554","0.0-6.0-0.10","","img/green.png","32","trial","null","false","0.4,0.6","2:nogo_b","",""
"null","","html-keyboard-response","251","6414570","0.0-6.0-1.10","","<img src=""img/green-r.png"" border=""10"">","null","trial","null","","0.4,0.6","2:nogo_b","1",""
"null","","html-keyboard-response","252","6415585","0.0-6.0-2.10","","<div style=""font-size:60px;"">+</div>","null","","","","","","",""
"670.3149999957532","","image-keyboard-response","253","6416255","0.0-6.0-0.11","","img/purple.png","32","trial","32","true","0.6,0.4","1:go_a","",""
"null","","html-keyboard-response","254","6417271","0.0-6.0-1.11","","<img src=""img/purple-n.png"" border=""10"">","null","trial","32","","0.6,0.4","1:go_a","0",""
"null","","html-keyboard-response","255","6418283","0.0-6.0-2.11","","<div style=""font-size:60px;"">+</div>","null","","","","","","",""
"null","","image-keyboard-response","256","6419799","0.0-6.0-0.12","","img/purple.png","null","trial","32","false","0.6,0.4","1:go_a","",""
"null","","html-keyboard-response","257","6420804","0.0-6.0-1.12","","<img src=""img/purple-n.png"">","null","trial","32","","0.6,0.4","1:go_a","0",""
"null","","html-keyboard-response","258","6421810","0.0-6.0-2.12","","<div style=""font-size:60px;"">+</div>","null","","","","","","",""
"869.3649999331683","","image-keyboard-response","259","6422680","0.0-6.0-0.13","","img/red.png","32","trial","32","true","0.6,0.4","3:go_c","",""
"null","","html-keyboard-response","260","6423689","0.0-6.0-1.13","","<img src=""img/red-r.png"" border=""10"">","null","trial","32","","0.6,0.4","3:go_c","1",""
"null","","html-keyboard-response","261","6424702","0.0-6.0-2.13","","<div style=""font-size:60px;"">+</div>","null","","","","","","",""
"681.9800001103431","","image-keyboard-response","262","6425384","0.0-6.0-0.14","","img/blue.png","32","trial","null","false","0.4,0.6","4:nogo_d","",""
"null","","html-keyboard-response","263","6426402","0.0-6.0-1.14","","<img src=""img/blue-n.png"" border=""10"">","null","trial","null","","0.4,0.6","4:nogo_d","0",""
"null","","html-keyboard-response","264","6427415","0.0-6.0-2.14","","<div style=""font-size:60px;"">+</div>","null","","","","","","",""
"695.9600001573563","","image-keyboard-response","265","6428111","0.0-6.0-0.15","","img/green.png","32","trial","null","false","0.4,0.6","2:nogo_b","",""
"null","","html-keyboard-response","266","6429117","0.0-6.0-1.15","","<img src=""img/green-n.png"" border=""10"">","null","trial","null","","0.4,0.6","2:nogo_b","0",""
"null","","html-keyboard-response","267","6430119","0.0-6.0-2.15","","<div style=""font-size:60px;"">+</div>","null","","","","","","",""
"695.7300000358373","","image-keyboard-response","268","6430815","0.0-6.0-0.16","","img/purple.png","32","trial","32","true","0.6,0.4","1:go_a","",""
"null","","html-keyboard-response","269","6431825","0.0-6.0-1.16","","<img src=""img/purple-n.png"" border=""10"">","null","trial","32","","0.6,0.4","1:go_a","0",""
"null","","html-keyboard-response","270","6432836","0.0-6.0-2.16","","<div style=""font-size:60px;"">+</div>","null","","","","","","",""
"1129.9400001298636","","image-keyboard-response","271","6433967","0.0-6.0-0.17","","img/blue.png","32","trial","null","false","0.4,0.6","4:nogo_d","",""
"null","","html-keyboard-response","272","6434981","0.0-6.0-1.17","","<img src=""img/blue-r.png"" border=""10"">","null","trial","null","","0.4,0.6","4:nogo_d","1",""
"null","","html-keyboard-response","273","6435988","0.0-6.0-2.17","","<div style=""font-size:60px;"">+</div>","null","","","","","","",""
"611.3100000657141","","image-keyboard-response","274","6436599","0.0-6.0-0.18","","img/green.png","32","trial","null","false","0.4,0.6","2:nogo_b","",""
"null","","html-keyboard-response","275","6437603","0.0-6.0-1.18","","<img src=""img/green-n.png"" border=""10"">","null","trial","null","","0.4,0.6","2:nogo_b","0",""
"null","","html-keyboard-response","276","6438608","0.0-6.0-2.18","","<div style=""font-size:60px;"">+</div>","null","","","","","","",""
"792.2399998642504","","image-keyboard-response","277","6439400","0.0-6.0-0.19","","img/red.png","32","trial","32","true","0.6,0.4","3:go_c","",""
"null","","html-keyboard-response","278","6440418","0.0-6.0-1.19","","<img src=""img/red-r.png"" border=""10"">","null","trial","32","","0.6,0.4","3:go_c","1",""
"null","","html-keyboard-response","279","6441426","0.0-6.0-2.19","","<div style=""font-size:60px;"">+</div>","null","","","","","","",""
"548.2949998695403","","image-keyboard-response","280","6441975","0.0-6.0-0.20","","img/green.png","32","trial","null","false","0.4,0.6","2:nogo_b","",""
"null","","html-keyboard-response","281","6442986","0.0-6.0-1.20","","<img src=""img/green-r.png"" border=""10"">","null","trial","null","","0.4,0.6","2:nogo_b","1",""
"null","","html-keyboard-response","282","6444001","0.0-6.0-2.20","","<div style=""font-size:60px;"">+</div>","null","","","","","","",""
"664.1150000505149","","image-keyboard-response","283","6444666","0.0-6.0-0.21","","img/blue.png","32","trial","null","false","0.4,0.6","4:nogo_d","",""
"null","","html-keyboard-response","284","6445674","0.0-6.0-1.21","","<img src=""img/blue-n.png"" border=""10"">","null","trial","null","","0.4,0.6","4:nogo_d","0",""
"null","","html-keyboard-response","285","6446685","0.0-6.0-2.21","","<div style=""font-size:60px;"">+</div>","null","","","","","","",""
"658.6699998006225","","image-keyboard-response","286","6447344","0.0-6.0-0.22","","img/purple.png","32","trial","32","true","0.6,0.4","1:go_a","",""
"null","","html-keyboard-response","287","6448346","0.0-6.0-1.22","","<img src=""img/purple-r.png"" border=""10"">","null","trial","32","","0.6,0.4","1:go_a","1",""
"null","","html-keyboard-response","288","6449352","0.0-6.0-2.22","","<div style=""font-size:60px;"">+</div>","null","","","","","","",""
"535.3300001006573","","image-keyboard-response","289","6449888","0.0-6.0-0.23","","img/red.png","32","trial","32","true","0.6,0.4","3:go_c","",""
"null","","html-keyboard-response","290","6450905","0.0-6.0-1.23","","<img src=""img/red-r.png"" border=""10"">","null","trial","32","","0.6,0.4","3:go_c","1",""
"null","","html-keyboard-response","291","6451917","0.0-6.0-2.23","","<div style=""font-size:60px;"">+</div>","null","","","","","","",""
"null","","image-keyboard-response","292","6453424","0.0-6.0-0.24","","img/purple.png","null","trial","32","false","0.6,0.4","1:go_a","",""
"null","","html-keyboard-response","293","6454426","0.0-6.0-1.24","","<img src=""img/purple-n.png"">","null","trial","32","","0.6,0.4","1:go_a","0",""
"null","","html-keyboard-response","294","6455429","0.0-6.0-2.24","","<div style=""font-size:60px;"">+</div>","null","","","","","","",""
"499.30499983020127","","image-keyboard-response","295","6455928","0.0-6.0-0.25","","img/red.png","32","trial","32","true","0.6,0.4","3:go_c","",""
"null","","html-keyboard-response","296","6456939","0.0-6.0-1.25","","<img src=""img/red-r.png"" border=""10"">","null","trial","32","","0.6,0.4","3:go_c","1",""
"null","","html-keyboard-response","297","6457945","0.0-6.0-2.25","","<div style=""font-size:60px;"">+</div>","null","","","","","","",""
"null","","image-keyboard-response","298","6459453","0.0-6.0-0.26","","img/blue.png","null","trial","null","true","0.4,0.6","4:nogo_d","",""
"null","","html-keyboard-response","299","6460464","0.0-6.0-1.26","","<img src=""img/blue-r.png"">","null","trial","null","","0.4,0.6","4:nogo_d","1",""
"null","","html-keyboard-response","300","6461471","0.0-6.0-2.26","","<div style=""font-size:60px;"">+</div>","null","","","","","","",""
"511.9400001130998","","image-keyboard-response","301","6461984","0.0-6.0-0.27","","img/green.png","32","trial","null","false","0.4,0.6","2:nogo_b","",""
"null","","html-keyboard-response","302","6462992","0.0-6.0-1.27","","<img src=""img/green-n.png"" border=""10"">","null","trial","null","","0.4,0.6","2:nogo_b","0",""
"null","","html-keyboard-response","303","6464002","0.0-6.0-2.27","","<div style=""font-size:60px;"">+</div>","null","","","","","","",""
"750.3549999091774","","image-keyboard-response","304","6464754","0.0-6.0-0.28","","img/red.png","32","trial","32","true","0.6,0.4","3:go_c","",""
"null","","html-keyboard-response","305","6465757","0.0-6.0-1.28","","<img src=""img/red-n.png"" border=""10"">","null","trial","32","","0.6,0.4","3:go_c","0",""
"null","","html-keyboard-response","306","6466772","0.0-6.0-2.28","","<div style=""font-size:60px;"">+</div>","null","","","","","","",""
"null","","image-keyboard-response","307","6468278","0.0-6.0-0.29","","img/purple.png","null","trial","32","false","0.6,0.4","1:go_a","",""
"null","","html-keyboard-response","308","6469283","0.0-6.0-1.29","","<img src=""img/purple-n.png"">","null","trial","32","","0.6,0.4","1:go_a","0",""
"null","","html-keyboard-response","309","6470288","0.0-6.0-2.29","","<div style=""font-size:60px;"">+</div>","null","","","","","","",""
"null","","image-keyboard-response","310","6471804","0.0-6.0-0.30","","img/blue.png","null","trial","null","true","0.4,0.6","4:nogo_d","",""
"null","","html-keyboard-response","311","6472815","0.0-6.0-1.30","","<img src=""img/blue-n.png"">","null","trial","null","","0.4,0.6","4:nogo_d","0",""
"null","","html-keyboard-response","312","6473831","0.0-6.0-2.30","","<div style=""font-size:60px;"">+</div>","null","","","","","","",""
"568.5600000433624","","image-keyboard-response","313","6474401","0.0-6.0-0.31","","img/green.png","32","trial","null","false","0.4,0.6","2:nogo_b","",""
"null","","html-keyboard-response","314","6475411","0.0-6.0-1.31","","<img src=""img/green-r.png"" border=""10"">","null","trial","null","","0.4,0.6","2:nogo_b","1",""
"null","","html-keyboard-response","315","6476415","0.0-6.0-2.31","","<div style=""font-size:60px;"">+</div>","null","","","","","","",""
"null","","image-keyboard-response","316","6477919","0.0-6.0-0.32","","img/blue.png","null","trial","null","true","0.4,0.6","4:nogo_d","",""
"null","","html-keyboard-response","317","6478929","0.0-6.0-1.32","","<img src=""img/blue-r.png"">","null","trial","null","","0.4,0.6","4:nogo_d","1",""
"null","","html-keyboard-response","318","6479930","0.0-6.0-2.32","","<div style=""font-size:60px;"">+</div>","null","","","","","","",""
"565.6399999279529","","image-keyboard-response","319","6480496","0.0-6.0-0.33","","img/green.png","32","trial","null","false","0.4,0.6","2:nogo_b","",""
"null","","html-keyboard-response","320","6481502","0.0-6.0-1.33","","<img src=""img/green-n.png"" border=""10"">","null","trial","null","","0.4,0.6","2:nogo_b","0",""
"null","","html-keyboard-response","321","6482509","0.0-6.0-2.33","","<div style=""font-size:60px;"">+</div>","null","","","","","","",""
"577.5549998506904","","image-keyboard-response","322","6483088","0.0-6.0-0.34","","img/red.png","32","trial","32","true","0.6,0.4","3:go_c","",""
"null","","html-keyboard-response","323","6484103","0.0-6.0-1.34","","<img src=""img/red-n.png"" border=""10"">","null","trial","32","","0.6,0.4","3:go_c","0",""
"null","","html-keyboard-response","324","6485110","0.0-6.0-2.34","","<div style=""font-size:60px;"">+</div>","null","","","","","","",""
"1425.4399999044836","","image-keyboard-response","325","6486536","0.0-6.0-0.35","","img/purple.png","32","trial","32","true","0.6,0.4","1:go_a","",""
"null","","html-keyboard-response","326","6487544","0.0-6.0-1.35","","<img src=""img/purple-r.png"" border=""10"">","null","trial","32","","0.6,0.4","1:go_a","1",""
"null","","html-keyboard-response","327","6488552","0.0-6.0-2.35","","<div style=""font-size:60px;"">+</div>","null","","","","","","",""
"null","","image-keyboard-response","328","6490061","0.0-6.0-0.36","","img/blue.png","null","trial","null","true","0.4,0.6","4:nogo_d","",""
"null","","html-keyboard-response","329","6491076","0.0-6.0-1.36","","<img src=""img/blue-n.png"">","null","trial","null","","0.4,0.6","4:nogo_d","0",""
"null","","html-keyboard-response","330","6492077","0.0-6.0-2.36","","<div style=""font-size:60px;"">+</div>","null","","","","","","",""
"434.584999922663","","image-keyboard-response","331","6492512","0.0-6.0-0.37","","img/green.png","32","trial","null","false","0.4,0.6","2:nogo_b","",""
"null","","html-keyboard-response","332","6493523","0.0-6.0-1.37","","<img src=""img/green-n.png"" border=""10"">","null","trial","null","","0.4,0.6","2:nogo_b","0",""
"null","","html-keyboard-response","333","6494533","0.0-6.0-2.37","","<div style=""font-size:60px;"">+</div>","null","","","","","","",""
"849.4349999818951","","image-keyboard-response","334","6495384","0.0-6.0-0.38","","img/purple.png","32","trial","32","true","0.6,0.4","1:go_a","",""
"null","","html-keyboard-response","335","6496389","0.0-6.0-1.38","","<img src=""img/purple-r.png"" border=""10"">","null","trial","32","","0.6,0.4","1:go_a","1",""
"null","","html-keyboard-response","336","6497398","0.0-6.0-2.38","","<div style=""font-size:60px;"">+</div>","null","","","","","","",""
"505.0349999219179","","image-keyboard-response","337","6497904","0.0-6.0-0.39","","img/red.png","32","trial","32","true","0.6,0.4","3:go_c","",""
"null","","html-keyboard-response","338","6498917","0.0-6.0-1.39","","<img src=""img/red-n.png"" border=""10"">","null","trial","32","","0.6,0.4","3:go_c","0",""
"null","","html-keyboard-response","339","6499923","0.0-6.0-2.39","","<div style=""font-size:60px;"">+</div>","null","","","","","","",""
"null","","image-keyboard-response","340","6501430","0.0-6.0-0.40","","img/blue.png","null","trial","null","true","0.4,0.6","4:nogo_d","",""
"null","","html-keyboard-response","341","6502435","0.0-6.0-1.40","","<img src=""img/blue-n.png"">","null","trial","null","","0.4,0.6","4:nogo_d","0",""
"null","","html-keyboard-response","342","6503441","0.0-6.0-2.40","","<div style=""font-size:60px;"">+</div>","null","","","","","","",""
"550.980000058189","","image-keyboard-response","343","6503994","0.0-6.0-0.41","","img/green.png","32","trial","null","false","0.4,0.6","2:nogo_b","",""
"null","","html-keyboard-response","344","6505006","0.0-6.0-1.41","","<img src=""img/green-n.png"" border=""10"">","null","trial","null","","0.4,0.6","2:nogo_b","0",""
"null","","html-keyboard-response","345","6506013","0.0-6.0-2.41","","<div style=""font-size:60px;"">+</div>","null","","","","","","",""
"572.0349999610335","","image-keyboard-response","346","6506585","0.0-6.0-0.42","","img/red.png","32","trial","32","true","0.6,0.4","3:go_c","",""
"null","","html-keyboard-response","347","6507592","0.0-6.0-1.42","","<img src=""img/red-r.png"" border=""10"">","null","trial","32","","0.6,0.4","3:go_c","1",""
"null","","html-keyboard-response","348","6508608","0.0-6.0-2.42","","<div style=""font-size:60px;"">+</div>","null","","","","","","",""
"695.3849999699742","","image-keyboard-response","349","6509304","0.0-6.0-0.43","","img/purple.png","32","trial","32","true","0.6,0.4","1:go_a","",""
"null","","html-keyboard-response","350","6510315","0.0-6.0-1.43","","<img src=""img/purple-n.png"" border=""10"">","null","trial","32","","0.6,0.4","1:go_a","0",""
"null","","html-keyboard-response","351","6511324","0.0-6.0-2.43","","<div style=""font-size:60px;"">+</div>","null","","","","","","",""
"500.13000005856156","","image-keyboard-response","352","6511824","0.0-6.0-0.44","","img/green.png","32","trial","null","false","0.4,0.6","2:nogo_b","",""
"null","","html-keyboard-response","353","6512829","0.0-6.0-1.44","","<img src=""img/green-n.png"" border=""10"">","null","trial","null","","0.4,0.6","2:nogo_b","0",""
"null","","html-keyboard-response","354","6513840","0.0-6.0-2.44","","<div style=""font-size:60px;"">+</div>","null","","","","","","",""
"1063.4850000496954","","image-keyboard-response","355","6514904","0.0-6.0-0.45","","img/purple.png","32","trial","32","true","0.6,0.4","1:go_a","",""
"null","","html-keyboard-response","356","6515919","0.0-6.0-1.45","","<img src=""img/purple-n.png"" border=""10"">","null","trial","32","","0.6,0.4","1:go_a","0",""
"null","","html-keyboard-response","357","6516928","0.0-6.0-2.45","","<div style=""font-size:60px;"">+</div>","null","","","","","","",""
"null","","image-keyboard-response","358","6518433","0.0-6.0-0.46","","img/blue.png","null","trial","null","true","0.4,0.6","4:nogo_d","",""
"null","","html-keyboard-response","359","6519438","0.0-6.0-1.46","","<img src=""img/blue-r.png"">","null","trial","null","","0.4,0.6","4:nogo_d","1",""
"null","","html-keyboard-response","360","6520452","0.0-6.0-2.46","","<div style=""font-size:60px;"">+</div>","null","","","","","","",""
"539.4749999977648","","image-keyboard-response","361","6520993","0.0-6.0-0.47","","img/red.png","32","trial","32","true","0.6,0.4","3:go_c","",""
"null","","html-keyboard-response","362","6522003","0.0-6.0-1.47","","<img src=""img/red-n.png"" border=""10"">","null","trial","32","","0.6,0.4","3:go_c","0",""
"null","","html-keyboard-response","363","6523013","0.0-6.0-2.47","","<div style=""font-size:60px;"">+</div>","null","","","","","","",""
"null","","image-keyboard-response","364","6524524","0.0-6.0-0.48","","img/blue.png","null","trial","null","true","0.4,0.6","4:nogo_d","",""
"null","","html-keyboard-response","365","6525542","0.0-6.0-1.48","","<img src=""img/blue-n.png"">","null","trial","null","","0.4,0.6","4:nogo_d","0",""
"null","","html-keyboard-response","366","6526544","0.0-6.0-2.48","","<div style=""font-size:60px;"">+</div>","null","","","","","","",""
"424.5649999938905","","image-keyboard-response","367","6526970","0.0-6.0-0.49","","img/red.png","32","trial","32","true","0.6,0.4","3:go_c","",""
"null","","html-keyboard-response","368","6527974","0.0-6.0-1.49","","<img src=""img/red-r.png"" border=""10"">","null","trial","32","","0.6,0.4","3:go_c","1",""
"null","","html-keyboard-response","369","6528975","0.0-6.0-2.49","","<div style=""font-size:60px;"">+</div>","null","","","","","","",""
"481.10500001348555","","image-keyboard-response","370","6529457","0.0-6.0-0.50","","img/green.png","32","trial","null","false","0.4,0.6","2:nogo_b","",""
"null","","html-keyboard-response","371","6530474","0.0-6.0-1.50","","<img src=""img/green-n.png"" border=""10"">","null","trial","null","","0.4,0.6","2:nogo_b","0",""
"null","","html-keyboard-response","372","6531486","0.0-6.0-2.50","","<div style=""font-size:60px;"">+</div>","null","","","","","","",""
"929.4600000139326","","image-keyboard-response","373","6532417","0.0-6.0-0.51","","img/purple.png","32","trial","32","true","0.6,0.4","1:go_a","",""
"null","","html-keyboard-response","374","6533421","0.0-6.0-1.51","","<img src=""img/purple-n.png"" border=""10"">","null","trial","32","","0.6,0.4","1:go_a","0",""
"null","","html-keyboard-response","375","6534426","0.0-6.0-2.51","","<div style=""font-size:60px;"">+</div>","null","","","","","","",""
"607.0899998303503","","image-keyboard-response","376","6535033","0.0-6.0-0.52","","img/red.png","32","trial","32","true","0.6,0.4","3:go_c","",""
"null","","html-keyboard-response","377","6536042","0.0-6.0-1.52","","<img src=""img/red-r.png"" border=""10"">","null","trial","32","","0.6,0.4","3:go_c","1",""
"null","","html-keyboard-response","378","6537060","0.0-6.0-2.52","","<div style=""font-size:60px;"">+</div>","null","","","","","","",""
"null","","image-keyboard-response","379","6538564","0.0-6.0-0.53","","img/purple.png","null","trial","32","false","0.6,0.4","1:go_a","",""
"null","","html-keyboard-response","380","6539573","0.0-6.0-1.53","","<img src=""img/purple-r.png"">","null","trial","32","","0.6,0.4","1:go_a","1",""
"null","","html-keyboard-response","381","6540587","0.0-6.0-2.53","","<div style=""font-size:60px;"">+</div>","null","","","","","","",""
"null","","image-keyboard-response","382","6542094","0.0-6.0-0.54","","img/blue.png","null","trial","null","true","0.4,0.6","4:nogo_d","",""
"null","","html-keyboard-response","383","6543103","0.0-6.0-1.54","","<img src=""img/blue-r.png"">","null","trial","null","","0.4,0.6","4:nogo_d","1",""
"null","","html-keyboard-response","384","6544110","0.0-6.0-2.54","","<div style=""font-size:60px;"">+</div>","null","","","","","","",""
"null","","image-keyboard-response","385","6545621","0.0-6.0-0.55","","img/green.png","null","trial","null","true","0.4,0.6","2:nogo_b","",""
"null","","html-keyboard-response","386","6546626","0.0-6.0-1.55","","<img src=""img/green-r.png"">","null","trial","null","","0.4,0.6","2:nogo_b","1",""
"null","","html-keyboard-response","387","6547636","0.0-6.0-2.55","","<div style=""font-size:60px;"">+</div>","null","","","","","","",""
"null","","image-keyboard-response","388","6549150","0.0-6.0-0.56","","img/blue.png","null","trial","null","true","0.4,0.6","4:nogo_d","",""
"null","","html-keyboard-response","389","6550158","0.0-6.0-1.56","","<img src=""img/blue-r.png"">","null","trial","null","","0.4,0.6","4:nogo_d","1",""
"null","","html-keyboard-response","390","6551168","0.0-6.0-2.56","","<div style=""font-size:60px;"">+</div>","null","","","","","","",""
"null","","image-keyboard-response","391","6552677","0.0-6.0-0.57","","img/green.png","null","trial","null","true","0.4,0.6","2:nogo_b","",""
"null","","html-keyboard-response","392","6553684","0.0-6.0-1.57","","<img src=""img/green-r.png"">","null","trial","null","","0.4,0.6","2:nogo_b","1",""
"null","","html-keyboard-response","393","6554692","0.0-6.0-2.57","","<div style=""font-size:60px;"">+</div>","null","","","","","","",""
"346.1250001564622","","image-keyboard-response","394","6555040","0.0-6.0-0.58","","img/red.png","32","trial","32","true","0.6,0.4","3:go_c","",""
"null","","html-keyboard-response","395","6556047","0.0-6.0-1.58","","<img src=""img/red-n.png"" border=""10"">","null","trial","32","","0.6,0.4","3:go_c","0",""
"null","","html-keyboard-response","396","6557060","0.0-6.0-2.58","","<div style=""font-size:60px;"">+</div>","null","","","","","","",""
"null","","image-keyboard-response","397","6558566","0.0-6.0-0.59","","img/purple.png","null","trial","32","false","0.6,0.4","1:go_a","",""
"null","","html-keyboard-response","398","6559580","0.0-6.0-1.59","","<img src=""img/purple-n.png"">","null","trial","32","","0.6,0.4","1:go_a","0",""
"null","","html-keyboard-response","399","6560583","0.0-6.0-2.59","","<div style=""font-size:60px;"">+</div>","null","","","","","","",""
"null","","image-keyboard-response","400","6562094","0.0-6.0-0.60","","img/green.png","null","trial","null","true","0.4,0.6","2:nogo_b","",""
"null","","html-keyboard-response","401","6563106","0.0-6.0-1.60","","<img src=""img/green-r.png"">","null","trial","null","","0.4,0.6","2:nogo_b","1",""
"null","","html-keyboard-response","402","6564116","0.0-6.0-2.60","","<div style=""font-size:60px;"">+</div>","null","","","","","","",""
"1268.3850000612438","","image-keyboard-response","403","6565383","0.0-6.0-0.61","","img/purple.png","32","trial","32","true","0.6,0.4","1:go_a","",""
"null","","html-keyboard-response","404","6566387","0.0-6.0-1.61","","<img src=""img/purple-n.png"" border=""10"">","null","trial","32","","0.6,0.4","1:go_a","0",""
"null","","html-keyboard-response","405","6567399","0.0-6.0-2.61","","<div style=""font-size:60px;"">+</div>","null","","","","","","",""
"519.2300002090633","","image-keyboard-response","406","6567918","0.0-6.0-0.62","","img/red.png","32","trial","32","true","0.6,0.4","3:go_c","",""
"null","","html-keyboard-response","407","6568921","0.0-6.0-1.62","","<img src=""img/red-r.png"" border=""10"">","null","trial","32","","0.6,0.4","3:go_c","1",""
"null","","html-keyboard-response","408","6569930","0.0-6.0-2.62","","<div style=""font-size:60px;"">+</div>","null","","","","","","",""
"null","","image-keyboard-response","409","6571441","0.0-6.0-0.63","","img/blue.png","null","trial","null","true","0.4,0.6","4:nogo_d","",""
"null","","html-keyboard-response","410","6572456","0.0-6.0-1.63","","<img src=""img/blue-r.png"">","null","trial","null","","0.4,0.6","4:nogo_d","1",""
"null","","html-keyboard-response","411","6573468","0.0-6.0-2.63","","<div style=""font-size:60px;"">+</div>","null","","","","","","",""
"858.4350000601262","","image-keyboard-response","412","6574327","0.0-6.0-0.64","","img/red.png","32","trial","32","true","0.6,0.4","3:go_c","",""
"null","","html-keyboard-response","413","6575344","0.0-6.0-1.64","","<img src=""img/red-r.png"" border=""10"">","null","trial","32","","0.6,0.4","3:go_c","1",""
"null","","html-keyboard-response","414","6576355","0.0-6.0-2.64","","<div style=""font-size:60px;"">+</div>","null","","","","","","",""
"null","","image-keyboard-response","415","6577868","0.0-6.0-0.65","","img/green.png","null","trial","null","true","0.4,0.6","2:nogo_b","",""
"null","","html-keyboard-response","416","6578876","0.0-6.0-1.65","","<img src=""img/green-r.png"">","null","trial","null","","0.4,0.6","2:nogo_b","1",""
"null","","html-keyboard-response","417","6579888","0.0-6.0-2.65","","<div style=""font-size:60px;"">+</div>","null","","","","","","",""
"null","","image-keyboard-response","418","6581403","0.0-6.0-0.66","","img/blue.png","null","trial","null","true","0.4,0.6","4:nogo_d","",""
"null","","html-keyboard-response","419","6582414","0.0-6.0-1.66","","<img src=""img/blue-n.png"">","null","trial","null","","0.4,0.6","4:nogo_d","0",""
"null","","html-keyboard-response","420","6583423","0.0-6.0-2.66","","<div style=""font-size:60px;"">+</div>","null","","","","","","",""
"null","","image-keyboard-response","421","6584935","0.0-6.0-0.67","","img/purple.png","null","trial","32","false","0.6,0.4","1:go_a","",""
"null","","html-keyboard-response","422","6585939","0.0-6.0-1.67","","<img src=""img/purple-n.png"">","null","trial","32","","0.6,0.4","1:go_a","0",""
"null","","html-keyboard-response","423","6586940","0.0-6.0-2.67","","<div style=""font-size:60px;"">+</div>","null","","","","","","",""
"298.0700000189245","","image-keyboard-response","424","6587239","0.0-6.0-0.68","","img/red.png","32","trial","32","true","0.6,0.4","3:go_c","",""
"null","","html-keyboard-response","425","6588246","0.0-6.0-1.68","","<img src=""img/red-r.png"" border=""10"">","null","trial","32","","0.6,0.4","3:go_c","1",""
"null","","html-keyboard-response","426","6589256","0.0-6.0-2.68","","<div style=""font-size:60px;"">+</div>","null","","","","","","",""
"null","","image-keyboard-response","427","6590758","0.0-6.0-0.69","","img/blue.png","null","trial","null","true","0.4,0.6","4:nogo_d","",""
"null","","html-keyboard-response","428","6591767","0.0-6.0-1.69","","<img src=""img/blue-n.png"">","null","trial","null","","0.4,0.6","4:nogo_d","0",""
"null","","html-keyboard-response","429","6592776","0.0-6.0-2.69","","<div style=""font-size:60px;"">+</div>","null","","","","","","",""
"null","","image-keyboard-response","430","6594282","0.0-6.0-0.70","","img/green.png","null","trial","null","true","0.4,0.6","2:nogo_b","",""
"null","","html-keyboard-response","431","6595288","0.0-6.0-1.70","","<img src=""img/green-r.png"">","null","trial","null","","0.4,0.6","2:nogo_b","1",""
"null","","html-keyboard-response","432","6596289","0.0-6.0-2.70","","<div style=""font-size:60px;"">+</div>","null","","","","","","",""
"733.4800001699477","","image-keyboard-response","433","6597023","0.0-6.0-0.71","","img/purple.png","32","trial","32","true","0.6,0.4","1:go_a","",""
"null","","html-keyboard-response","434","6598035","0.0-6.0-1.71","","<img src=""img/purple-n.png"" border=""10"">","null","trial","32","","0.6,0.4","1:go_a","0",""
"null","","html-keyboard-response","435","6599048","0.0-6.0-2.71","","<div style=""font-size:60px;"">+</div>","null","","","","","","",""
"461.57500008121133","","image-keyboard-response","436","6599511","0.0-6.0-0.72","","img/purple.png","32","trial","32","true","0.6,0.4","1:go_a","",""
"null","","html-keyboard-response","437","6600526","0.0-6.0-1.72","","<img src=""img/purple-r.png"" border=""10"">","null","trial","32","","0.6,0.4","1:go_a","1",""
"null","","html-keyboard-response","438","6601531","0.0-6.0-2.72","","<div style=""font-size:60px;"">+</div>","null","","","","","","",""
"null","","image-keyboard-response","439","6603047","0.0-6.0-0.73","","img/blue.png","null","trial","null","true","0.4,0.6","4:nogo_d","",""
"null","","html-keyboard-response","440","6604055","0.0-6.0-1.73","","<img src=""img/blue-r.png"">","null","trial","null","","0.4,0.6","4:nogo_d","1",""
"null","","html-keyboard-response","441","6605064","0.0-6.0-2.73","","<div style=""font-size:60px;"">+</div>","null","","","","","","",""
"null","","image-keyboard-response","442","6606566","0.0-6.0-0.74","","img/green.png","null","trial","null","true","0.4,0.6","2:nogo_b","",""
"null","","html-keyboard-response","443","6607575","0.0-6.0-1.74","","<img src=""img/green-n.png"">","null","trial","null","","0.4,0.6","2:nogo_b","0",""
"null","","html-keyboard-response","444","6608581","0.0-6.0-2.74","","<div style=""font-size:60px;"">+</div>","null","","","","","","",""
"563.8449999969453","","image-keyboard-response","445","6609147","0.0-6.0-0.75","","img/red.png","32","trial","32","true","0.6,0.4","3:go_c","",""
"null","","html-keyboard-response","446","6610156","0.0-6.0-1.75","","<img src=""img/red-n.png"" border=""10"">","null","trial","32","","0.6,0.4","3:go_c","0",""
"null","","html-keyboard-response","447","6611162","0.0-6.0-2.75","","<div style=""font-size:60px;"">+</div>","null","","","","","","",""
"null","","image-keyboard-response","448","6612672","0.0-6.0-0.76","","img/green.png","null","trial","null","true","0.4,0.6","2:nogo_b","",""
"null","","html-keyboard-response","449","6613691","0.0-6.0-1.76","","<img src=""img/green-n.png"">","null","trial","null","","0.4,0.6","2:nogo_b","0",""
"null","","html-keyboard-response","450","6614694","0.0-6.0-2.76","","<div style=""font-size:60px;"">+</div>","null","","","","","","",""
"null","","image-keyboard-response","451","6616200","0.0-6.0-0.77","","img/blue.png","null","trial","null","true","0.4,0.6","4:nogo_d","",""
"null","","html-keyboard-response","452","6617212","0.0-6.0-1.77","","<img src=""img/blue-r.png"">","null","trial","null","","0.4,0.6","4:nogo_d","1",""
"null","","html-keyboard-response","453","6618225","0.0-6.0-2.77","","<div style=""font-size:60px;"">+</div>","null","","","","","","",""
"846.3349998928607","","image-keyboard-response","454","6619072","0.0-6.0-0.78","","img/red.png","32","trial","32","true","0.6,0.4","3:go_c","",""
"null","","html-keyboard-response","455","6620080","0.0-6.0-1.78","","<img src=""img/red-n.png"" border=""10"">","null","trial","32","","0.6,0.4","3:go_c","0",""
"null","","html-keyboard-response","456","6621090","0.0-6.0-2.78","","<div style=""font-size:60px;"">+</div>","null","","","","","","",""
"null","","image-keyboard-response","457","6622605","0.0-6.0-0.79","","img/purple.png","null","trial","32","false","0.6,0.4","1:go_a","",""
"null","","html-keyboard-response","458","6623619","0.0-6.0-1.79","","<img src=""img/purple-n.png"">","null","trial","32","","0.6,0.4","1:go_a","0",""
"null","","html-keyboard-response","459","6624626","0.0-6.0-2.79","","<div style=""font-size:60px;"">+</div>","null","","","","","","",""
"null","","image-keyboard-response","460","6626134","0.0-6.0-0.80","","img/green.png","null","trial","null","true","0.4,0.6","2:nogo_b","",""
"null","","html-keyboard-response","461","6627142","0.0-6.0-1.80","","<img src=""img/green-n.png"">","null","trial","null","","0.4,0.6","2:nogo_b","0",""
"null","","html-keyboard-response","462","6628145","0.0-6.0-2.80","","<div style=""font-size:60px;"">+</div>","null","","","","","","",""
"null","","image-keyboard-response","463","6629651","0.0-6.0-0.81","","img/blue.png","null","trial","null","true","0.4,0.6","4:nogo_d","",""
"null","","html-keyboard-response","464","6630662","0.0-6.0-1.81","","<img src=""img/blue-r.png"">","null","trial","null","","0.4,0.6","4:nogo_d","1",""
"null","","html-keyboard-response","465","6631679","0.0-6.0-2.81","","<div style=""font-size:60px;"">+</div>","null","","","","","","",""
"null","","image-keyboard-response","466","6633189","0.0-6.0-0.82","","img/red.png","null","trial","32","false","0.6,0.4","3:go_c","",""
"null","","html-keyboard-response","467","6634197","0.0-6.0-1.82","","<img src=""img/red-n.png"">","null","trial","32","","0.6,0.4","3:go_c","0",""
"null","","html-keyboard-response","468","6635208","0.0-6.0-2.82","","<div style=""font-size:60px;"">+</div>","null","","","","","","",""
"null","","image-keyboard-response","469","6636712","0.0-6.0-0.83","","img/purple.png","null","trial","32","false","0.6,0.4","1:go_a","",""
"null","","html-keyboard-response","470","6637721","0.0-6.0-1.83","","<img src=""img/purple-n.png"">","null","trial","32","","0.6,0.4","1:go_a","0",""
"null","","html-keyboard-response","471","6638726","0.0-6.0-2.83","","<div style=""font-size:60px;"">+</div>","null","","","","","","",""
"473.14999997615814","","image-keyboard-response","472","6639200","0.0-6.0-0.84","","img/purple.png","32","trial","32","true","0.6,0.4","1:go_a","",""
"null","","html-keyboard-response","473","6640210","0.0-6.0-1.84","","<img src=""img/purple-r.png"" border=""10"">","null","trial","32","","0.6,0.4","1:go_a","1",""
"null","","html-keyboard-response","474","6641223","0.0-6.0-2.84","","<div style=""font-size:60px;"">+</div>","null","","","","","","",""
"null","","image-keyboard-response","475","6642738","0.0-6.0-0.85","","img/blue.png","null","trial","null","true","0.4,0.6","4:nogo_d","",""
"null","","html-keyboard-response","476","6643750","0.0-6.0-1.85","","<img src=""img/blue-r.png"">","null","trial","null","","0.4,0.6","4:nogo_d","1",""
"null","","html-keyboard-response","477","6644755","0.0-6.0-2.85","","<div style=""font-size:60px;"">+</div>","null","","","","","","",""
"826.9950000103563","","image-keyboard-response","478","6645583","0.0-6.0-0.86","","img/green.png","32","trial","null","false","0.4,0.6","2:nogo_b","",""
"null","","html-keyboard-response","479","6646595","0.0-6.0-1.86","","<img src=""img/green-r.png"" border=""10"">","null","trial","null","","0.4,0.6","2:nogo_b","1",""
"null","","html-keyboard-response","480","6647606","0.0-6.0-2.86","","<div style=""font-size:60px;"">+</div>","null","","","","","","",""
"280.8799999766052","","image-keyboard-response","481","6647888","0.0-6.0-0.87","","img/red.png","32","trial","32","true","0.6,0.4","3:go_c","",""
"null","","html-keyboard-response","482","6648896","0.0-6.0-1.87","","<img src=""img/red-n.png"" border=""10"">","null","trial","32","","0.6,0.4","3:go_c","0",""
"null","","html-keyboard-response","483","6649903","0.0-6.0-2.87","","<div style=""font-size:60px;"">+</div>","null","","","","","","",""
"880.4999999701977","","image-keyboard-response","484","6650784","0.0-6.0-0.88","","img/green.png","32","trial","null","false","0.4,0.6","2:nogo_b","",""
"null","","html-keyboard-response","485","6651788","0.0-6.0-1.88","","<img src=""img/green-n.png"" border=""10"">","null","trial","null","","0.4,0.6","2:nogo_b","0",""
"null","","html-keyboard-response","486","6652799","0.0-6.0-2.88","","<div style=""font-size:60px;"">+</div>","null","","","","","","",""
"null","","image-keyboard-response","487","6654313","0.0-6.0-0.89","","img/blue.png","null","trial","null","true","0.4,0.6","4:nogo_d","",""
"null","","html-keyboard-response","488","6655322","0.0-6.0-1.89","","<img src=""img/blue-r.png"">","null","trial","null","","0.4,0.6","4:nogo_d","1",""
"null","","html-keyboard-response","489","6656325","0.0-6.0-2.89","","<div style=""font-size:60px;"">+</div>","null","","","","","","",""
"962.2150000650436","","image-keyboard-response","490","6657288","0.0-6.0-0.90","","img/purple.png","32","trial","32","true","0.6,0.4","1:go_a","",""
"null","","html-keyboard-response","491","6658300","0.0-6.0-1.90","","<img src=""img/purple-r.png"" border=""10"">","null","trial","32","","0.6,0.4","1:go_a","1",""
"null","","html-keyboard-response","492","6659306","0.0-6.0-2.90","","<div style=""font-size:60px;"">+</div>","null","","","","","","",""
"652.5399999227375","","image-keyboard-response","493","6659960","0.0-6.0-0.91","","img/red.png","32","trial","32","true","0.6,0.4","3:go_c","",""
"null","","html-keyboard-response","494","6660964","0.0-6.0-1.91","","<img src=""img/red-n.png"" border=""10"">","null","trial","32","","0.6,0.4","3:go_c","0",""
"null","","html-keyboard-response","495","6661971","0.0-6.0-2.91","","<div style=""font-size:60px;"">+</div>","null","","","","","","",""
"null","","image-keyboard-response","496","6663486","0.0-6.0-0.92","","img/red.png","null","trial","32","false","0.6,0.4","3:go_c","",""
"null","","html-keyboard-response","497","6664495","0.0-6.0-1.92","","<img src=""img/red-n.png"">","null","trial","32","","0.6,0.4","3:go_c","0",""
"null","","html-keyboard-response","498","6665497","0.0-6.0-2.92","","<div style=""font-size:60px;"">+</div>","null","","","","","","",""
"null","","image-keyboard-response","499","6667002","0.0-6.0-0.93","","img/green.png","null","trial","null","true","0.4,0.6","2:nogo_b","",""
"null","","html-keyboard-response","500","6668012","0.0-6.0-1.93","","<img src=""img/green-r.png"">","null","trial","null","","0.4,0.6","2:nogo_b","1",""
"null","","html-keyboard-response","501","6669015","0.0-6.0-2.93","","<div style=""font-size:60px;"">+</div>","null","","","","","","",""
"1120.7950001116842","","image-keyboard-response","502","6670137","0.0-6.0-0.94","","img/purple.png","32","trial","32","true","0.6,0.4","1:go_a","",""
"null","","html-keyboard-response","503","6671153","0.0-6.0-1.94","","<img src=""img/purple-r.png"" border=""10"">","null","trial","32","","0.6,0.4","1:go_a","1",""
"null","","html-keyboard-response","504","6672168","0.0-6.0-2.94","","<div style=""font-size:60px;"">+</div>","null","","","","","","",""
"null","","image-keyboard-response","505","6673674","0.0-6.0-0.95","","img/blue.png","null","trial","null","true","0.4,0.6","4:nogo_d","",""
"null","","html-keyboard-response","506","6674677","0.0-6.0-1.95","","<img src=""img/blue-n.png"">","null","trial","null","","0.4,0.6","4:nogo_d","0",""
"null","","html-keyboard-response","507","6675681","0.0-6.0-2.95","","<div style=""font-size:60px;"">+</div>","null","","","","","","",""
"null","","image-keyboard-response","508","6677184","0.0-6.0-0.96","","img/green.png","null","trial","null","true","0.4,0.6","2:nogo_b","",""
"null","","html-keyboard-response","509","6678193","0.0-6.0-1.96","","<img src=""img/green-r.png"">","null","trial","null","","0.4,0.6","2:nogo_b","1",""
"null","","html-keyboard-response","510","6679194","0.0-6.0-2.96","","<div style=""font-size:60px;"">+</div>","null","","","","","","",""
"null","","image-keyboard-response","511","6680697","0.0-6.0-0.97","","img/blue.png","null","trial","null","true","0.4,0.6","4:nogo_d","",""
"null","","html-keyboard-response","512","6681708","0.0-6.0-1.97","","<img src=""img/blue-r.png"">","null","trial","null","","0.4,0.6","4:nogo_d","1",""
"null","","html-keyboard-response","513","6682715","0.0-6.0-2.97","","<div style=""font-size:60px;"">+</div>","null","","","","","","",""
"716.2699999753386","","image-keyboard-response","514","6683432","0.0-6.0-0.98","","img/purple.png","32","trial","32","true","0.6,0.4","1:go_a","",""
"null","","html-keyboard-response","515","6684445","0.0-6.0-1.98","","<img src=""img/purple-r.png"" border=""10"">","null","trial","32","","0.6,0.4","1:go_a","1",""
"null","","html-keyboard-response","516","6685456","0.0-6.0-2.98","","<div style=""font-size:60px;"">+</div>","null","","","","","","",""
"null","","image-keyboard-response","517","6686969","0.0-6.0-0.99","","img/red.png","null","trial","32","false","0.6,0.4","3:go_c","",""
"null","","html-keyboard-response","518","6687978","0.0-6.0-1.99","","<img src=""img/red-n.png"">","null","trial","32","","0.6,0.4","3:go_c","0",""
"null","","html-keyboard-response","519","6688990","0.0-6.0-2.99","","<div style=""font-size:60px;"">+</div>","null","","","","","","",""
"null","","image-keyboard-response","520","6690492","0.0-6.0-0.100","","img/green.png","null","trial","null","true","0.4,0.6","2:nogo_b","",""
"null","","html-keyboard-response","521","6691503","0.0-6.0-1.100","","<img src=""img/green-r.png"">","null","trial","null","","0.4,0.6","2:nogo_b","1",""
"null","","html-keyboard-response","522","6692510","0.0-6.0-2.100","","<div style=""font-size:60px;"">+</div>","null","","","","","","",""
"935.9849998727441","","image-keyboard-response","523","6693447","0.0-6.0-0.101","","img/purple.png","32","trial","32","true","0.6,0.4","1:go_a","",""
"null","","html-keyboard-response","524","6694461","0.0-6.0-1.101","","<img src=""img/purple-n.png"" border=""10"">","null","trial","32","","0.6,0.4","1:go_a","0",""
"null","","html-keyboard-response","525","6695467","0.0-6.0-2.101","","<div style=""font-size:60px;"">+</div>","null","","","","","","",""
"837.0199999772012","","image-keyboard-response","526","6696304","0.0-6.0-0.102","","img/red.png","32","trial","32","true","0.6,0.4","3:go_c","",""
"null","","html-keyboard-response","527","6697314","0.0-6.0-1.102","","<img src=""img/red-n.png"" border=""10"">","null","trial","32","","0.6,0.4","3:go_c","0",""
"null","","html-keyboard-response","528","6698331","0.0-6.0-2.102","","<div style=""font-size:60px;"">+</div>","null","","","","","","",""
"null","","image-keyboard-response","529","6699836","0.0-6.0-0.103","","img/blue.png","null","trial","null","true","0.4,0.6","4:nogo_d","",""
"null","","html-keyboard-response","530","6700847","0.0-6.0-1.103","","<img src=""img/blue-r.png"">","null","trial","null","","0.4,0.6","4:nogo_d","1",""
"null","","html-keyboard-response","531","6701862","0.0-6.0-2.103","","<div style=""font-size:60px;"">+</div>","null","","","","","","",""
"null","","image-keyboard-response","532","6703366","0.0-6.0-0.104","","img/green.png","null","trial","null","true","0.4,0.6","2:nogo_b","",""
"null","","html-keyboard-response","533","6704373","0.0-6.0-1.104","","<img src=""img/green-n.png"">","null","trial","null","","0.4,0.6","2:nogo_b","0",""
"null","","html-keyboard-response","534","6705380","0.0-6.0-2.104","","<div style=""font-size:60px;"">+</div>","null","","","","","","",""
"746.8099999241531","","image-keyboard-response","535","6706127","0.0-6.0-0.105","","img/purple.png","32","trial","32","true","0.6,0.4","1:go_a","",""
"null","","html-keyboard-response","536","6707141","0.0-6.0-1.105","","<img src=""img/purple-r.png"" border=""10"">","null","trial","32","","0.6,0.4","1:go_a","1",""
"null","","html-keyboard-response","537","6708153","0.0-6.0-2.105","","<div style=""font-size:60px;"">+</div>","null","","","","","","",""
"null","","image-keyboard-response","538","6709660","0.0-6.0-0.106","","img/blue.png","null","trial","null","true","0.4,0.6","4:nogo_d","",""
"null","","html-keyboard-response","539","6710667","0.0-6.0-1.106","","<img src=""img/blue-r.png"">","null","trial","null","","0.4,0.6","4:nogo_d","1",""
"null","","html-keyboard-response","540","6711687","0.0-6.0-2.106","","<div style=""font-size:60px;"">+</div>","null","","","","","","",""
"776.4500000048429","","image-keyboard-response","541","6712464","0.0-6.0-0.107","","img/red.png","32","trial","32","true","0.6,0.4","3:go_c","",""
"null","","html-keyboard-response","542","6713476","0.0-6.0-1.107","","<img src=""img/red-r.png"" border=""10"">","null","trial","32","","0.6,0.4","3:go_c","1",""
"null","","html-keyboard-response","543","6714481","0.0-6.0-2.107","","<div style=""font-size:60px;"">+</div>","null","","","","","","",""
"null","","image-keyboard-response","544","6715995","0.0-6.0-0.108","","img/blue.png","null","trial","null","true","0.4,0.6","4:nogo_d","",""
"null","","html-keyboard-response","545","6717010","0.0-6.0-1.108","","<img src=""img/blue-r.png"">","null","trial","null","","0.4,0.6","4:nogo_d","1",""
"null","","html-keyboard-response","546","6718019","0.0-6.0-2.108","","<div style=""font-size:60px;"">+</div>","null","","","","","","",""
"932.3450000956655","","image-keyboard-response","547","6718952","0.0-6.0-0.109","","img/green.png","32","trial","null","false","0.4,0.6","2:nogo_b","",""
"null","","html-keyboard-response","548","6719958","0.0-6.0-1.109","","<img src=""img/green-n.png"" border=""10"">","null","trial","null","","0.4,0.6","2:nogo_b","0",""
"null","","html-keyboard-response","549","6720966","0.0-6.0-2.109","","<div style=""font-size:60px;"">+</div>","null","","","","","","",""
"784.6299998927861","","image-keyboard-response","550","6721751","0.0-6.0-0.110","","img/red.png","32","trial","32","true","0.6,0.4","3:go_c","",""
"null","","html-keyboard-response","551","6722760","0.0-6.0-1.110","","<img src=""img/red-n.png"" border=""10"">","null","trial","32","","0.6,0.4","3:go_c","0",""
"null","","html-keyboard-response","552","6723764","0.0-6.0-2.110","","<div style=""font-size:60px;"">+</div>","null","","","","","","",""
"962.3999998439103","","image-keyboard-response","553","6724727","0.0-6.0-0.111","","img/purple.png","32","trial","32","true","0.6,0.4","1:go_a","",""
"null","","html-keyboard-response","554","6725734","0.0-6.0-1.111","","<img src=""img/purple-r.png"" border=""10"">","null","trial","32","","0.6,0.4","1:go_a","1",""
"null","","html-keyboard-response","555","6726742","0.0-6.0-2.111","","<div style=""font-size:60px;"">+</div>","null","","","","","","",""
"null","","image-keyboard-response","556","6728245","0.0-6.0-0.112","","img/green.png","null","trial","null","true","0.4,0.6","2:nogo_b","",""
"null","","html-keyboard-response","557","6729249","0.0-6.0-1.112","","<img src=""img/green-n.png"">","null","trial","null","","0.4,0.6","2:nogo_b","0",""
"null","","html-keyboard-response","558","6730257","0.0-6.0-2.112","","<div style=""font-size:60px;"">+</div>","null","","","","","","",""
"807.7249999623746","","image-keyboard-response","559","6731065","0.0-6.0-0.113","","img/purple.png","32","trial","32","true","0.6,0.4","1:go_a","",""
"null","","html-keyboard-response","560","6732069","0.0-6.0-1.113","","<img src=""img/purple-r.png"" border=""10"">","null","trial","32","","0.6,0.4","1:go_a","1",""
"null","","html-keyboard-response","561","6733076","0.0-6.0-2.113","","<div style=""font-size:60px;"">+</div>","null","","","","","","",""
"null","","image-keyboard-response","562","6734581","0.0-6.0-0.114","","img/blue.png","null","trial","null","true","0.4,0.6","4:nogo_d","",""
"null","","html-keyboard-response","563","6735595","0.0-6.0-1.114","","<img src=""img/blue-n.png"">","null","trial","null","","0.4,0.6","4:nogo_d","0",""
"null","","html-keyboard-response","564","6736596","0.0-6.0-2.114","","<div style=""font-size:60px;"">+</div>","null","","","","","","",""
"650.1499998848885","","image-keyboard-response","565","6737247","0.0-6.0-0.115","","img/red.png","32","trial","32","true","0.6,0.4","3:go_c","",""
"null","","html-keyboard-response","566","6738262","0.0-6.0-1.115","","<img src=""img/red-r.png"" border=""10"">","null","trial","32","","0.6,0.4","3:go_c","1",""
"null","","html-keyboard-response","567","6739267","0.0-6.0-2.115","","<div style=""font-size:60px;"">+</div>","null","","","","","","",""
"null","","image-keyboard-response","568","6740769","0.0-6.0-0.116","","img/green.png","null","trial","null","true","0.4,0.6","2:nogo_b","",""
"null","","html-keyboard-response","569","6741783","0.0-6.0-1.116","","<img src=""img/green-r.png"">","null","trial","null","","0.4,0.6","2:nogo_b","1",""
"null","","html-keyboard-response","570","6742792","0.0-6.0-2.116","","<div style=""font-size:60px;"">+</div>","null","","","","","","",""
"null","","image-keyboard-response","571","6744298","0.0-6.0-0.117","","img/blue.png","null","trial","null","true","0.4,0.6","4:nogo_d","",""
"null","","html-keyboard-response","572","6745308","0.0-6.0-1.117","","<img src=""img/blue-r.png"">","null","trial","null","","0.4,0.6","4:nogo_d","1",""
"null","","html-keyboard-response","573","6746310","0.0-6.0-2.117","","<div style=""font-size:60px;"">+</div>","null","","","","","","",""
"705.2549999207258","","image-keyboard-response","574","6747015","0.0-6.0-0.118","","img/purple.png","32","trial","32","true","0.6,0.4","1:go_a","",""
"null","","html-keyboard-response","575","6748023","0.0-6.0-1.118","","<img src=""img/purple-r.png"" border=""10"">","null","trial","32","","0.6,0.4","1:go_a","1",""
"null","","html-keyboard-response","576","6749030","0.0-6.0-2.118","","<div style=""font-size:60px;"">+</div>","null","","","","","","",""
"null","","image-keyboard-response","577","6750534","0.0-6.0-0.119","","img/red.png","null","trial","32","false","0.6,0.4","3:go_c","",""
"null","","html-keyboard-response","578","6751542","0.0-6.0-1.119","","<img src=""img/red-r.png"">","null","trial","32","","0.6,0.4","3:go_c","1",""
"null","","html-keyboard-response","579","6752553","0.0-6.0-2.119","","<div style=""font-size:60px;"">+</div>","null","","","","","","",""
"217566.1400000099","","instructions","580","6970120","0.0-7.0","[{""page_index"":0,""viewing_time"":217565.99500006996}]","","","","","","","","",""
"1069.724999833852","","image-keyboard-response","581","6971191","0.0-8.0-0.0","","img/red.png","32","trial","null","false","0,1","4:nogo_d","",""
"null","","html-keyboard-response","582","6972200","0.0-8.0-1.0","","<img src=""img/red-n.png"" border=""10"">","null","trial","null","","0,1","4:nogo_d","0",""
"null","","html-keyboard-response","583","6973203","0.0-8.0-2.0","","<div style=""font-size:60px;"">+</div>","null","","","","","","",""
"1108.0649998039007","","image-keyboard-response","584","6974312","0.0-8.0-0.1","","img/orange.png","32","trial","32","true","1,0","3:go_c","",""
"null","","html-keyboard-response","585","6975328","0.0-8.0-1.1","","<img src=""img/orange-r.png"" border=""10"">","null","trial","32","","1,0","3:go_c","1",""
"null","","html-keyboard-response","586","6976337","0.0-8.0-2.1","","<div style=""font-size:60px;"">+</div>","null","","","","","","",""
"654.3000000528991","","image-keyboard-response","587","6976992","0.0-8.0-0.2","","img/purple.png","32","trial","32","true","0.8,0.2","1:go_a","",""
"null","","html-keyboard-response","588","6978008","0.0-8.0-1.2","","<img src=""img/purple-r.png"" border=""10"">","null","trial","32","","0.8,0.2","1:go_a","1",""
"null","","html-keyboard-response","589","6979020","0.0-8.0-2.2","","<div style=""font-size:60px;"">+</div>","null","","","","","","",""
"522.4249998573214","","image-keyboard-response","590","6979543","0.0-8.0-0.3","","img/pink.png","32","trial","null","false","0.2,0.8","2:nogo_b","",""
"null","","html-keyboard-response","591","6980552","0.0-8.0-1.3","","<img src=""img/pink-n.png"" border=""10"">","null","trial","null","","0.2,0.8","2:nogo_b","0",""
"null","","html-keyboard-response","592","6981561","0.0-8.0-2.3","","<div style=""font-size:60px;"">+</div>","null","","","","","","",""
"590.1000001467764","","image-keyboard-response","593","6982152","0.0-8.0-0.4","","img/orange.png","32","trial","32","true","1,0","3:go_c","",""
"null","","html-keyboard-response","594","6983165","0.0-8.0-1.4","","<img src=""img/orange-r.png"" border=""10"">","null","trial","32","","1,0","3:go_c","1",""
"null","","html-keyboard-response","595","6984172","0.0-8.0-2.4","","<div style=""font-size:60px;"">+</div>","null","","","","","","",""
"null","","image-keyboard-response","596","6985688","0.0-8.0-0.5","","img/pink.png","null","trial","null","true","0.2,0.8","2:nogo_b","",""
"null","","html-keyboard-response","597","6986697","0.0-8.0-1.5","","<img src=""img/pink-r.png"">","null","trial","null","","0.2,0.8","2:nogo_b","1",""
"null","","html-keyboard-response","598","6987709","0.0-8.0-2.5","","<div style=""font-size:60px;"">+</div>","null","","","","","","",""
"null","","image-keyboard-response","599","6989213","0.0-8.0-0.6","","img/red.png","null","trial","null","true","0,1","4:nogo_d","",""
"null","","html-keyboard-response","600","6990225","0.0-8.0-1.6","","<img src=""img/red-r.png"">","null","trial","null","","0,1","4:nogo_d","1",""
"null","","html-keyboard-response","601","6991229","0.0-8.0-2.6","","<div style=""font-size:60px;"">+</div>","null","","","","","","",""
"609.1399998404086","","image-keyboard-response","602","6991839","0.0-8.0-0.7","","img/purple.png","32","trial","32","true","0.8,0.2","1:go_a","",""
"null","","html-keyboard-response","603","6992849","0.0-8.0-1.7","","<img src=""img/purple-r.png"" border=""10"">","null","trial","32","","0.8,0.2","1:go_a","1",""
"null","","html-keyboard-response","604","6993862","0.0-8.0-2.7","","<div style=""font-size:60px;"">+</div>","null","","","","","","",""
"528.1699998304248","","image-keyboard-response","605","6994392","0.0-8.0-0.8","","img/orange.png","32","trial","32","true","1,0","3:go_c","",""
"null","","html-keyboard-response","606","6995398","0.0-8.0-1.8","","<img src=""img/orange-r.png"" border=""10"">","null","trial","32","","1,0","3:go_c","1",""
"null","","html-keyboard-response","607","6996406","0.0-8.0-2.8","","<div style=""font-size:60px;"">+</div>","null","","","","","","",""
"null","","image-keyboard-response","608","6997921","0.0-8.0-0.9","","img/pink.png","null","trial","null","true","0.2,0.8","2:nogo_b","",""
"null","","html-keyboard-response","609","6998930","0.0-8.0-1.9","","<img src=""img/pink-r.png"">","null","trial","null","","0.2,0.8","2:nogo_b","1",""
"null","","html-keyboard-response","610","6999934","0.0-8.0-2.9","","<div style=""font-size:60px;"">+</div>","null","","","","","","",""
"null","","image-keyboard-response","611","7001439","0.0-8.0-0.10","","img/red.png","null","trial","null","true","0,1","4:nogo_d","",""
"null","","html-keyboard-response","612","7002451","0.0-8.0-1.10","","<img src=""img/red-r.png"">","null","trial","null","","0,1","4:nogo_d","1",""
"null","","html-keyboard-response","613","7003453","0.0-8.0-2.10","","<div style=""font-size:60px;"">+</div>","null","","","","","","",""
"584.1550000477582","","image-keyboard-response","614","7004040","0.0-8.0-0.11","","img/purple.png","32","trial","32","true","0.8,0.2","1:go_a","",""
"null","","html-keyboard-response","615","7005054","0.0-8.0-1.11","","<img src=""img/purple-r.png"" border=""10"">","null","trial","32","","0.8,0.2","1:go_a","1",""
"null","","html-keyboard-response","616","7006060","0.0-8.0-2.11","","<div style=""font-size:60px;"">+</div>","null","","","","","","",""
"322.9849999770522","","image-keyboard-response","617","7006383","0.0-8.0-0.12","","img/orange.png","32","trial","32","true","1,0","3:go_c","",""
"null","","html-keyboard-response","618","7007386","0.0-8.0-1.12","","<img src=""img/orange-r.png"" border=""10"">","null","trial","32","","1,0","3:go_c","1",""
"null","","html-keyboard-response","619","7008390","0.0-8.0-2.12","","<div style=""font-size:60px;"">+</div>","null","","","","","","",""
"688.4250000584871","","image-keyboard-response","620","7009080","0.0-8.0-0.13","","img/purple.png","32","trial","32","true","0.8,0.2","1:go_a","",""
"null","","html-keyboard-response","621","7010092","0.0-8.0-1.13","","<img src=""img/purple-n.png"" border=""10"">","null","trial","32","","0.8,0.2","1:go_a","0",""
"null","","html-keyboard-response","622","7011107","0.0-8.0-2.13","","<div style=""font-size:60px;"">+</div>","null","","","","","","",""
"null","","image-keyboard-response","623","7012614","0.0-8.0-0.14","","img/pink.png","null","trial","null","true","0.2,0.8","2:nogo_b","",""
"null","","html-keyboard-response","624","7013618","0.0-8.0-1.14","","<img src=""img/pink-r.png"">","null","trial","null","","0.2,0.8","2:nogo_b","1",""
"null","","html-keyboard-response","625","7014620","0.0-8.0-2.14","","<div style=""font-size:60px;"">+</div>","null","","","","","","",""
"null","","image-keyboard-response","626","7016127","0.0-8.0-0.15","","img/red.png","null","trial","null","true","0,1","4:nogo_d","",""
"null","","html-keyboard-response","627","7017141","0.0-8.0-1.15","","<img src=""img/red-r.png"">","null","trial","null","","0,1","4:nogo_d","1",""
"null","","html-keyboard-response","628","7018152","0.0-8.0-2.15","","<div style=""font-size:60px;"">+</div>","null","","","","","","",""
"null","","image-keyboard-response","629","7019656","0.0-8.0-0.16","","img/pink.png","null","trial","null","true","0.2,0.8","2:nogo_b","",""
"null","","html-keyboard-response","630","7020666","0.0-8.0-1.16","","<img src=""img/pink-n.png"">","null","trial","null","","0.2,0.8","2:nogo_b","0",""
"null","","html-keyboard-response","631","7021666","0.0-8.0-2.16","","<div style=""font-size:60px;"">+</div>","null","","","","","","",""
"null","","image-keyboard-response","632","7023169","0.0-8.0-0.17","","img/red.png","null","trial","null","true","0,1","4:nogo_d","",""
"null","","html-keyboard-response","633","7024179","0.0-8.0-1.17","","<img src=""img/red-r.png"">","null","trial","null","","0,1","4:nogo_d","1",""
"null","","html-keyboard-response","634","7025189","0.0-8.0-2.17","","<div style=""font-size:60px;"">+</div>","null","","","","","","",""
"809.5899999607354","","image-keyboard-response","635","7025999","0.0-8.0-0.18","","img/purple.png","32","trial","32","true","0.8,0.2","1:go_a","",""
"null","","html-keyboard-response","636","7027014","0.0-8.0-1.18","","<img src=""img/purple-n.png"" border=""10"">","null","trial","32","","0.8,0.2","1:go_a","0",""
"null","","html-keyboard-response","637","7028027","0.0-8.0-2.18","","<div style=""font-size:60px;"">+</div>","null","","","","","","",""
"403.3099999651313","","image-keyboard-response","638","7028431","0.0-8.0-0.19","","img/orange.png","32","trial","32","true","1,0","3:go_c","",""
"null","","html-keyboard-response","639","7029447","0.0-8.0-1.19","","<img src=""img/orange-r.png"" border=""10"">","null","trial","32","","1,0","3:go_c","1",""
"null","","html-keyboard-response","640","7030457","0.0-8.0-2.19","","<div style=""font-size:60px;"">+</div>","null","","","","","","",""
"null","","image-keyboard-response","641","7031966","0.0-8.0-0.20","","img/red.png","null","trial","null","true","0,1","4:nogo_d","",""
"null","","html-keyboard-response","642","7032975","0.0-8.0-1.20","","<img src=""img/red-r.png"">","null","trial","null","","0,1","4:nogo_d","1",""
"null","","html-keyboard-response","643","7033978","0.0-8.0-2.20","","<div style=""font-size:60px;"">+</div>","null","","","","","","",""
"null","","image-keyboard-response","644","7035488","0.0-8.0-0.21","","img/pink.png","null","trial","null","true","0.2,0.8","2:nogo_b","",""
"null","","html-keyboard-response","645","7036495","0.0-8.0-1.21","","<img src=""img/pink-r.png"">","null","trial","null","","0.2,0.8","2:nogo_b","1",""
"null","","html-keyboard-response","646","7037503","0.0-8.0-2.21","","<div style=""font-size:60px;"">+</div>","null","","","","","","",""
"810.3249999694526","","image-keyboard-response","647","7038314","0.0-8.0-0.22","","img/purple.png","32","trial","32","true","0.8,0.2","1:go_a","",""
"null","","html-keyboard-response","648","7039329","0.0-8.0-1.22","","<img src=""img/purple-n.png"" border=""10"">","null","trial","32","","0.8,0.2","1:go_a","0",""
"null","","html-keyboard-response","649","7040340","0.0-8.0-2.22","","<div style=""font-size:60px;"">+</div>","null","","","","","","",""
"873.4799998346716","","image-keyboard-response","650","7041215","0.0-8.0-0.23","","img/orange.png","32","trial","32","true","1,0","3:go_c","",""
"null","","html-keyboard-response","651","7042231","0.0-8.0-1.23","","<img src=""img/orange-r.png"" border=""10"">","null","trial","32","","1,0","3:go_c","1",""
"null","","html-keyboard-response","652","7043233","0.0-8.0-2.23","","<div style=""font-size:60px;"">+</div>","null","","","","","","",""
"535.0850000977516","","image-keyboard-response","653","7043768","0.0-8.0-0.24","","img/orange.png","32","trial","32","true","1,0","3:go_c","",""
"null","","html-keyboard-response","654","7044778","0.0-8.0-1.24","","<img src=""img/orange-r.png"" border=""10"">","null","trial","32","","1,0","3:go_c","1",""
"null","","html-keyboard-response","655","7045780","0.0-8.0-2.24","","<div style=""font-size:60px;"">+</div>","null","","","","","","",""
"null","","image-keyboard-response","656","7047293","0.0-8.0-0.25","","img/pink.png","null","trial","null","true","0.2,0.8","2:nogo_b","",""
"null","","html-keyboard-response","657","7048301","0.0-8.0-1.25","","<img src=""img/pink-r.png"">","null","trial","null","","0.2,0.8","2:nogo_b","1",""
"null","","html-keyboard-response","658","7049314","0.0-8.0-2.25","","<div style=""font-size:60px;"">+</div>","null","","","","","","",""
"null","","image-keyboard-response","659","7050831","0.0-8.0-0.26","","img/purple.png","null","trial","32","false","0.8,0.2","1:go_a","",""
"null","","html-keyboard-response","660","7051836","0.0-8.0-1.26","","<img src=""img/purple-n.png"">","null","trial","32","","0.8,0.2","1:go_a","0",""
"null","","html-keyboard-response","661","7052847","0.0-8.0-2.26","","<div style=""font-size:60px;"">+</div>","null","","","","","","",""
"null","","image-keyboard-response","662","7054348","0.0-8.0-0.27","","img/red.png","null","trial","null","true","0,1","4:nogo_d","",""
"null","","html-keyboard-response","663","7055358","0.0-8.0-1.27","","<img src=""img/red-r.png"">","null","trial","null","","0,1","4:nogo_d","1",""
"null","","html-keyboard-response","664","7056365","0.0-8.0-2.27","","<div style=""font-size:60px;"">+</div>","null","","","","","","",""
"930.4100000299513","","image-keyboard-response","665","7057295","0.0-8.0-0.28","","img/purple.png","32","trial","32","true","0.8,0.2","1:go_a","",""
"null","","html-keyboard-response","666","7058302","0.0-8.0-1.28","","<img src=""img/purple-r.png"" border=""10"">","null","trial","32","","0.8,0.2","1:go_a","1",""
"null","","html-keyboard-response","667","7059316","0.0-8.0-2.28","","<div style=""font-size:60px;"">+</div>","null","","","","","","",""
"null","","image-keyboard-response","668","7060820","0.0-8.0-0.29","","img/pink.png","null","trial","null","true","0.2,0.8","2:nogo_b","",""
"null","","html-keyboard-response","669","7061835","0.0-8.0-1.29","","<img src=""img/pink-r.png"">","null","trial","null","","0.2,0.8","2:nogo_b","1",""
"null","","html-keyboard-response","670","7062845","0.0-8.0-2.29","","<div style=""font-size:60px;"">+</div>","null","","","","","","",""
"379.47500008158386","","image-keyboard-response","671","7063225","0.0-8.0-0.30","","img/orange.png","32","trial","32","true","1,0","3:go_c","",""
"null","","html-keyboard-response","672","7064231","0.0-8.0-1.30","","<img src=""img/orange-r.png"" border=""10"">","null","trial","32","","1,0","3:go_c","1",""
"null","","html-keyboard-response","673","7065241","0.0-8.0-2.30","","<div style=""font-size:60px;"">+</div>","null","","","","","","",""
"null","","image-keyboard-response","674","7066750","0.0-8.0-0.31","","img/red.png","null","trial","null","true","0,1","4:nogo_d","",""
"null","","html-keyboard-response","675","7067762","0.0-8.0-1.31","","<img src=""img/red-r.png"">","null","trial","null","","0,1","4:nogo_d","1",""
"null","","html-keyboard-response","676","7068768","0.0-8.0-2.31","","<div style=""font-size:60px;"">+</div>","null","","","","","","",""
"457.29000004939735","","image-keyboard-response","677","7069226","0.0-8.0-0.32","","img/orange.png","32","trial","32","true","1,0","3:go_c","",""
