"rt","url","trial_type","trial_index","time_elapsed","internal_node_id","view_history","stimulus","key_press","test_part","correct_response","correct","use_rew","which_stim","reward","responses"
"31560.20000000001","consent.html","external-html","0","31664","0.0-0.0","","","","","","","","","",""
"370712.4","","instructions","1","402377","0.0-1.0","[{""page_index"":0,""viewing_time"":9237.700000000012},{""page_index"":1,""viewing_time"":126600.60000000003},{""page_index"":2,""viewing_time"":27992},{""page_index"":3,""viewing_time"":100344.5},{""page_index"":4,""viewing_time"":47680.69999999995},{""page_index"":5,""viewing_time"":27959.599999999977},{""page_index"":6,""viewing_time"":30896.599999999977}]","","","","","","","","",""
"null","","image-keyboard-response","2","403883","0.0-2.0-0.0","","img/test2.PNG","null","practice","null","true","","","",""
"null","","html-keyboard-response","3","404895","0.0-2.0-1.0","","<img src=""img/test2-reward.PNG"">","null","","","","","","",""
"null","","html-keyboard-response","4","405899","0.0-2.0-2.0","","<div style=""font-size:60px;"">+</div>","null","","","","","","",""
"373.19999999995343","","image-keyboard-response","5","406273","0.0-2.0-0.1","","img/test1.PNG","32","practice","32","true","","","",""
"null","","html-keyboard-response","6","407284","0.0-2.0-1.1","","<img src=""img/test1-reward.PNG"" border=""10px; grey"">","null","","","","","","",""
"null","","html-keyboard-response","7","408290","0.0-2.0-2.1","","<div style=""font-size:60px;"">+</div>","null","","","","","","",""
"null","","image-keyboard-response","8","409804","0.0-2.0-0.2","","img/test3.PNG","null","practice","null","true","","","",""
"null","","html-keyboard-response","9","410819","0.0-2.0-1.2","","<img src=""img/test3-reward.PNG"">","null","","","","","","",""
"null","","html-keyboard-response","10","411820","0.0-2.0-2.2","","<div style=""font-size:60px;"">+</div>","null","","","","","","",""
"null","","image-keyboard-response","11","413336","0.0-2.0-0.3","","img/test2.PNG","null","practice","null","true","","","",""
"null","","html-keyboard-response","12","414352","0.0-2.0-1.3","","<img src=""img/test2-reward.PNG"">","null","","","","","","",""
"null","","html-keyboard-response","13","415368","0.0-2.0-2.3","","<div style=""font-size:60px;"">+</div>","null","","","","","","",""
"null","","image-keyboard-response","14","416872","0.0-2.0-0.4","","img/test3.PNG","null","practice","null","true","","","",""
"null","","html-keyboard-response","15","417884","0.0-2.0-1.4","","<img src=""img/test3-reward.PNG"">","null","","","","","","",""
"null","","html-keyboard-response","16","418887","0.0-2.0-2.4","","<div style=""font-size:60px;"">+</div>","null","","","","","","",""
"416.69999999995343","","image-keyboard-response","17","419305","0.0-2.0-0.5","","img/test1.PNG","32","practice","32","true","","","",""
"null","","html-keyboard-response","18","420320","0.0-2.0-1.5","","<img src=""img/test1-reward.PNG"" border=""10px; grey"">","null","","","","","","",""
"null","","html-keyboard-response","19","421335","0.0-2.0-2.5","","<div style=""font-size:60px;"">+</div>","null","","","","","","",""
"496.4000000000233","","image-keyboard-response","20","421832","0.0-2.0-0.6","","img/test1.PNG","32","practice","32","true","","","",""
"null","","html-keyboard-response","21","422841","0.0-2.0-1.6","","<img src=""img/test1-reward.PNG"" border=""10px; grey"">","null","","","","","","",""
"null","","html-keyboard-response","22","423852","0.0-2.0-2.6","","<div style=""font-size:60px;"">+</div>","null","","","","","","",""
"null","","image-keyboard-response","23","425366","0.0-2.0-0.7","","img/test2.PNG","null","practice","null","true","","","",""
"null","","html-keyboard-response","24","426368","0.0-2.0-1.7","","<img src=""img/test2-reward.PNG"">","null","","","","","","",""
"null","","html-keyboard-response","25","427370","0.0-2.0-2.7","","<div style=""font-size:60px;"">+</div>","null","","","","","","",""
"null","","image-keyboard-response","26","428885","0.0-2.0-0.8","","img/test3.PNG","null","practice","null","true","","","",""
"null","","html-keyboard-response","27","429898","0.0-2.0-1.8","","<img src=""img/test3-reward.PNG"">","null","","","","","","",""
"null","","html-keyboard-response","28","430913","0.0-2.0-2.8","","<div style=""font-size:60px;"">+</div>","null","","","","","","",""
"null","","image-keyboard-response","29","432430","0.0-2.0-0.9","","img/test3.PNG","null","practice","null","true","","","",""
"null","","html-keyboard-response","30","433439","0.0-2.0-1.9","","<img src=""img/test3-reward.PNG"">","null","","","","","","",""
"null","","html-keyboard-response","31","434440","0.0-2.0-2.9","","<div style=""font-size:60px;"">+</div>","null","","","","","","",""
"null","","image-keyboard-response","32","435945","0.0-2.0-0.10","","img/test2.PNG","null","practice","null","true","","","",""
"null","","html-keyboard-response","33","436960","0.0-2.0-1.10","","<img src=""img/test2-reward.PNG"">","null","","","","","","",""
"null","","html-keyboard-response","34","437977","0.0-2.0-2.10","","<div style=""font-size:60px;"">+</div>","null","","","","","","",""
"854.8000000000466","","image-keyboard-response","35","438833","0.0-2.0-0.11","","img/test1.PNG","32","practice","32","true","","","",""
"null","","html-keyboard-response","36","439836","0.0-2.0-1.11","","<img src=""img/test1-reward.PNG"" border=""10px; grey"">","null","","","","","","",""
"null","","html-keyboard-response","37","440843","0.0-2.0-2.11","","<div style=""font-size:60px;"">+</div>","null","","","","","","",""
"16606.400000000023","","instructions","38","457449","0.0-3.0","[{""page_index"":0,""viewing_time"":16606}]","","","","","","","","",""
"774.6999999999534","","image-keyboard-response","39","458226","0.0-4.0-0.0","","img/orange.png","32","trial","32","true","0.8,0.2","1:go_a","",""
"null","","html-keyboard-response","40","459234","0.0-4.0-1.0","","<img src=""img/orange-r.png"" border=""10"">","null","trial","32","","0.8,0.2","1:go_a","1",""
"null","","html-keyboard-response","41","460242","0.0-4.0-2.0","","<div style=""font-size:60px;"">+</div>","null","","","","","","",""
"830.4000000000233","","image-keyboard-response","42","461074","0.0-4.0-0.1","","img/pink.png","32","trial","null","false","0.2,0.8","2:nogo_b","",""
"null","","html-keyboard-response","43","462079","0.0-4.0-1.1","","<img src=""img/pink-n.png"" border=""10"">","null","trial","null","","0.2,0.8","2:nogo_b","0",""
"null","","html-keyboard-response","44","463080","0.0-4.0-2.1","","<div style=""font-size:60px;"">+</div>","null","","","","","","",""
"null","","image-keyboard-response","45","464583","0.0-4.0-0.2","","img/pink.png","null","trial","null","true","0.2,0.8","2:nogo_b","",""
"null","","html-keyboard-response","46","465591","0.0-4.0-1.2","","<img src=""img/pink-r.png"">","null","trial","null","","0.2,0.8","2:nogo_b","1",""
"null","","html-keyboard-response","47","466595","0.0-4.0-2.2","","<div style=""font-size:60px;"">+</div>","null","","","","","","",""
"514.5","","image-keyboard-response","48","467111","0.0-4.0-0.3","","img/orange.png","32","trial","32","true","0.8,0.2","1:go_a","",""
"null","","html-keyboard-response","49","468118","0.0-4.0-1.3","","<img src=""img/orange-n.png"" border=""10"">","null","trial","32","","0.8,0.2","1:go_a","0",""
"null","","html-keyboard-response","50","469126","0.0-4.0-2.3","","<div style=""font-size:60px;"">+</div>","null","","","","","","",""
"null","","image-keyboard-response","51","470633","0.0-4.0-0.4","","img/pink.png","null","trial","null","true","0.2,0.8","2:nogo_b","",""
"null","","html-keyboard-response","52","471638","0.0-4.0-1.4","","<img src=""img/pink-r.png"">","null","trial","null","","0.2,0.8","2:nogo_b","1",""
"null","","html-keyboard-response","53","472646","0.0-4.0-2.4","","<div style=""font-size:60px;"">+</div>","null","","","","","","",""
"567.6999999999534","","image-keyboard-response","54","473215","0.0-4.0-0.5","","img/orange.png","32","trial","32","true","0.8,0.2","1:go_a","",""
"null","","html-keyboard-response","55","474225","0.0-4.0-1.5","","<img src=""img/orange-r.png"" border=""10"">","null","trial","32","","0.8,0.2","1:go_a","1",""
"null","","html-keyboard-response","56","475239","0.0-4.0-2.5","","<div style=""font-size:60px;"">+</div>","null","","","","","","",""
"622.6000000000931","","image-keyboard-response","57","475863","0.0-4.0-0.6","","img/orange.png","32","trial","32","true","0.8,0.2","1:go_a","",""
"null","","html-keyboard-response","58","476876","0.0-4.0-1.6","","<img src=""img/orange-n.png"" border=""10"">","null","trial","32","","0.8,0.2","1:go_a","0",""
"null","","html-keyboard-response","59","477882","0.0-4.0-2.6","","<div style=""font-size:60px;"">+</div>","null","","","","","","",""
"null","","image-keyboard-response","60","479390","0.0-4.0-0.7","","img/pink.png","null","trial","null","true","0.2,0.8","2:nogo_b","",""
"null","","html-keyboard-response","61","480399","0.0-4.0-1.7","","<img src=""img/pink-n.png"">","null","trial","null","","0.2,0.8","2:nogo_b","0",""
"null","","html-keyboard-response","62","481415","0.0-4.0-2.7","","<div style=""font-size:60px;"">+</div>","null","","","","","","",""
"null","","image-keyboard-response","63","482923","0.0-4.0-0.8","","img/pink.png","null","trial","null","true","0.2,0.8","2:nogo_b","",""
"null","","html-keyboard-response","64","483933","0.0-4.0-1.8","","<img src=""img/pink-r.png"">","null","trial","null","","0.2,0.8","2:nogo_b","1",""
"null","","html-keyboard-response","65","484945","0.0-4.0-2.8","","<div style=""font-size:60px;"">+</div>","null","","","","","","",""
"533.2999999999302","","image-keyboard-response","66","485480","0.0-4.0-0.9","","img/orange.png","32","trial","32","true","0.8,0.2","1:go_a","",""
"null","","html-keyboard-response","67","486489","0.0-4.0-1.9","","<img src=""img/orange-r.png"" border=""10"">","null","trial","32","","0.8,0.2","1:go_a","1",""
"null","","html-keyboard-response","68","487506","0.0-4.0-2.9","","<div style=""font-size:60px;"">+</div>","null","","","","","","",""
"580.2000000000698","","image-keyboard-response","69","488087","0.0-4.0-0.10","","img/orange.png","32","trial","32","true","0.8,0.2","1:go_a","",""
"null","","html-keyboard-response","70","489099","0.0-4.0-1.10","","<img src=""img/orange-n.png"" border=""10"">","null","trial","32","","0.8,0.2","1:go_a","0",""
"null","","html-keyboard-response","71","490115","0.0-4.0-2.10","","<div style=""font-size:60px;"">+</div>","null","","","","","","",""
"null","","image-keyboard-response","72","491618","0.0-4.0-0.11","","img/pink.png","null","trial","null","true","0.2,0.8","2:nogo_b","",""
"null","","html-keyboard-response","73","492620","0.0-4.0-1.11","","<img src=""img/pink-r.png"">","null","trial","null","","0.2,0.8","2:nogo_b","1",""
"null","","html-keyboard-response","74","493635","0.0-4.0-2.11","","<div style=""font-size:60px;"">+</div>","null","","","","","","",""
"null","","image-keyboard-response","75","495149","0.0-4.0-0.12","","img/pink.png","null","trial","null","true","0.2,0.8","2:nogo_b","",""
"null","","html-keyboard-response","76","496154","0.0-4.0-1.12","","<img src=""img/pink-r.png"">","null","trial","null","","0.2,0.8","2:nogo_b","1",""
"null","","html-keyboard-response","77","497159","0.0-4.0-2.12","","<div style=""font-size:60px;"">+</div>","null","","","","","","",""
"591.7000000000698","","image-keyboard-response","78","497751","0.0-4.0-0.13","","img/orange.png","32","trial","32","true","0.8,0.2","1:go_a","",""
"null","","html-keyboard-response","79","498762","0.0-4.0-1.13","","<img src=""img/orange-n.png"" border=""10"">","null","trial","32","","0.8,0.2","1:go_a","0",""
"null","","html-keyboard-response","80","499766","0.0-4.0-2.13","","<div style=""font-size:60px;"">+</div>","null","","","","","","",""
"432.79999999993015","","image-keyboard-response","81","500199","0.0-4.0-0.14","","img/orange.png","32","trial","32","true","0.8,0.2","1:go_a","",""
"null","","html-keyboard-response","82","501208","0.0-4.0-1.14","","<img src=""img/orange-r.png"" border=""10"">","null","trial","32","","0.8,0.2","1:go_a","1",""
"null","","html-keyboard-response","83","502225","0.0-4.0-2.14","","<div style=""font-size:60px;"">+</div>","null","","","","","","",""
"null","","image-keyboard-response","84","503734","0.0-4.0-0.15","","img/pink.png","null","trial","null","true","0.2,0.8","2:nogo_b","",""
"null","","html-keyboard-response","85","504747","0.0-4.0-1.15","","<img src=""img/pink-r.png"">","null","trial","null","","0.2,0.8","2:nogo_b","1",""
"null","","html-keyboard-response","86","505753","0.0-4.0-2.15","","<div style=""font-size:60px;"">+</div>","null","","","","","","",""
"null","","image-keyboard-response","87","507259","0.0-4.0-0.16","","img/pink.png","null","trial","null","true","0.2,0.8","2:nogo_b","",""
"null","","html-keyboard-response","88","508270","0.0-4.0-1.16","","<img src=""img/pink-r.png"">","null","trial","null","","0.2,0.8","2:nogo_b","1",""
"null","","html-keyboard-response","89","509274","0.0-4.0-2.16","","<div style=""font-size:60px;"">+</div>","null","","","","","","",""
"null","","image-keyboard-response","90","510788","0.0-4.0-0.17","","img/orange.png","null","trial","32","false","0.8,0.2","1:go_a","",""
"null","","html-keyboard-response","91","511790","0.0-4.0-1.17","","<img src=""img/orange-r.png"">","null","trial","32","","0.8,0.2","1:go_a","1",""
"null","","html-keyboard-response","92","512805","0.0-4.0-2.17","","<div style=""font-size:60px;"">+</div>","null","","","","","","",""
"641.6999999999534","","image-keyboard-response","93","513448","0.0-4.0-0.18","","img/orange.png","32","trial","32","true","0.8,0.2","1:go_a","",""
"null","","html-keyboard-response","94","514460","0.0-4.0-1.18","","<img src=""img/orange-r.png"" border=""10"">","null","trial","32","","0.8,0.2","1:go_a","1",""
"null","","html-keyboard-response","95","515476","0.0-4.0-2.18","","<div style=""font-size:60px;"">+</div>","null","","","","","","",""
"null","","image-keyboard-response","96","516983","0.0-4.0-0.19","","img/pink.png","null","trial","null","true","0.2,0.8","2:nogo_b","",""
"null","","html-keyboard-response","97","517995","0.0-4.0-1.19","","<img src=""img/pink-r.png"">","null","trial","null","","0.2,0.8","2:nogo_b","1",""
"null","","html-keyboard-response","98","518998","0.0-4.0-2.19","","<div style=""font-size:60px;"">+</div>","null","","","","","","",""
"null","","image-keyboard-response","99","520508","0.0-4.0-0.20","","img/orange.png","null","trial","32","false","0.8,0.2","1:go_a","",""
"null","","html-keyboard-response","100","521515","0.0-4.0-1.20","","<img src=""img/orange-n.png"">","null","trial","32","","0.8,0.2","1:go_a","0",""
"null","","html-keyboard-response","101","522522","0.0-4.0-2.20","","<div style=""font-size:60px;"">+</div>","null","","","","","","",""
"null","","image-keyboard-response","102","524039","0.0-4.0-0.21","","img/pink.png","null","trial","null","true","0.2,0.8","2:nogo_b","",""
"null","","html-keyboard-response","103","525047","0.0-4.0-1.21","","<img src=""img/pink-r.png"">","null","trial","null","","0.2,0.8","2:nogo_b","1",""
"null","","html-keyboard-response","104","526055","0.0-4.0-2.21","","<div style=""font-size:60px;"">+</div>","null","","","","","","",""
"null","","image-keyboard-response","105","527557","0.0-4.0-0.22","","img/pink.png","null","trial","null","true","0.2,0.8","2:nogo_b","",""
"null","","html-keyboard-response","106","528574","0.0-4.0-1.22","","<img src=""img/pink-r.png"">","null","trial","null","","0.2,0.8","2:nogo_b","1",""
"null","","html-keyboard-response","107","529582","0.0-4.0-2.22","","<div style=""font-size:60px;"">+</div>","null","","","","","","",""
"627.3999999999069","","image-keyboard-response","108","530210","0.0-4.0-0.23","","img/orange.png","32","trial","32","true","0.8,0.2","1:go_a","",""
"null","","html-keyboard-response","109","531217","0.0-4.0-1.23","","<img src=""img/orange-n.png"" border=""10"">","null","trial","32","","0.8,0.2","1:go_a","0",""
"null","","html-keyboard-response","110","532229","0.0-4.0-2.23","","<div style=""font-size:60px;"">+</div>","null","","","","","","",""
"null","","image-keyboard-response","111","533735","0.0-4.0-0.24","","img/pink.png","null","trial","null","true","0.2,0.8","2:nogo_b","",""
"null","","html-keyboard-response","112","534737","0.0-4.0-1.24","","<img src=""img/pink-r.png"">","null","trial","null","","0.2,0.8","2:nogo_b","1",""
"null","","html-keyboard-response","113","535738","0.0-4.0-2.24","","<div style=""font-size:60px;"">+</div>","null","","","","","","",""
"534.8999999999069","","image-keyboard-response","114","536274","0.0-4.0-0.25","","img/orange.png","32","trial","32","true","0.8,0.2","1:go_a","",""
"null","","html-keyboard-response","115","537283","0.0-4.0-1.25","","<img src=""img/orange-n.png"" border=""10"">","null","trial","32","","0.8,0.2","1:go_a","0",""
"null","","html-keyboard-response","116","538291","0.0-4.0-2.25","","<div style=""font-size:60px;"">+</div>","null","","","","","","",""
"741.1999999999534","","image-keyboard-response","117","539034","0.0-4.0-0.26","","img/orange.png","32","trial","32","true","0.8,0.2","1:go_a","",""
"null","","html-keyboard-response","118","540039","0.0-4.0-1.26","","<img src=""img/orange-n.png"" border=""10"">","null","trial","32","","0.8,0.2","1:go_a","0",""
"null","","html-keyboard-response","119","541041","0.0-4.0-2.26","","<div style=""font-size:60px;"">+</div>","null","","","","","","",""
"null","","image-keyboard-response","120","542543","0.0-4.0-0.27","","img/pink.png","null","trial","null","true","0.2,0.8","2:nogo_b","",""
"null","","html-keyboard-response","121","543544","0.0-4.0-1.27","","<img src=""img/pink-r.png"">","null","trial","null","","0.2,0.8","2:nogo_b","1",""
"null","","html-keyboard-response","122","544557","0.0-4.0-2.27","","<div style=""font-size:60px;"">+</div>","null","","","","","","",""
"null","","image-keyboard-response","123","546061","0.0-4.0-0.28","","img/pink.png","null","trial","null","true","0.2,0.8","2:nogo_b","",""
"null","","html-keyboard-response","124","547070","0.0-4.0-1.28","","<img src=""img/pink-r.png"">","null","trial","null","","0.2,0.8","2:nogo_b","1",""
"null","","html-keyboard-response","125","548076","0.0-4.0-2.28","","<div style=""font-size:60px;"">+</div>","null","","","","","","",""
"764.8000000000466","","image-keyboard-response","126","548842","0.0-4.0-0.29","","img/orange.png","32","trial","32","true","0.8,0.2","1:go_a","",""
"null","","html-keyboard-response","127","549859","0.0-4.0-1.29","","<img src=""img/orange-r.png"" border=""10"">","null","trial","32","","0.8,0.2","1:go_a","1",""
"null","","html-keyboard-response","128","550871","0.0-4.0-2.29","","<div style=""font-size:60px;"">+</div>","null","","","","","","",""
"null","","image-keyboard-response","129","552384","0.0-4.0-0.30","","img/pink.png","null","trial","null","true","0.2,0.8","2:nogo_b","",""
"null","","html-keyboard-response","130","553395","0.0-4.0-1.30","","<img src=""img/pink-r.png"">","null","trial","null","","0.2,0.8","2:nogo_b","1",""
"null","","html-keyboard-response","131","554403","0.0-4.0-2.30","","<div style=""font-size:60px;"">+</div>","null","","","","","","",""
"534.3000000000466","","image-keyboard-response","132","554938","0.0-4.0-0.31","","img/orange.png","32","trial","32","true","0.8,0.2","1:go_a","",""
"null","","html-keyboard-response","133","555945","0.0-4.0-1.31","","<img src=""img/orange-n.png"" border=""10"">","null","trial","32","","0.8,0.2","1:go_a","0",""
"null","","html-keyboard-response","134","556949","0.0-4.0-2.31","","<div style=""font-size:60px;"">+</div>","null","","","","","","",""
"563.1000000000931","","image-keyboard-response","135","557513","0.0-4.0-0.32","","img/orange.png","32","trial","32","true","0.8,0.2","1:go_a","",""
"null","","html-keyboard-response","136","558521","0.0-4.0-1.32","","<img src=""img/orange-r.png"" border=""10"">","null","trial","32","","0.8,0.2","1:go_a","1",""
"null","","html-keyboard-response","137","559527","0.0-4.0-2.32","","<div style=""font-size:60px;"">+</div>","null","","","","","","",""
"null","","image-keyboard-response","138","561041","0.0-4.0-0.33","","img/pink.png","null","trial","null","true","0.2,0.8","2:nogo_b","",""
"null","","html-keyboard-response","139","562047","0.0-4.0-1.33","","<img src=""img/pink-r.png"">","null","trial","null","","0.2,0.8","2:nogo_b","1",""
"null","","html-keyboard-response","140","563055","0.0-4.0-2.33","","<div style=""font-size:60px;"">+</div>","null","","","","","","",""
"null","","image-keyboard-response","141","564563","0.0-4.0-0.34","","img/pink.png","null","trial","null","true","0.2,0.8","2:nogo_b","",""
"null","","html-keyboard-response","142","565572","0.0-4.0-1.34","","<img src=""img/pink-n.png"">","null","trial","null","","0.2,0.8","2:nogo_b","0",""
"null","","html-keyboard-response","143","566579","0.0-4.0-2.34","","<div style=""font-size:60px;"">+</div>","null","","","","","","",""
"613.6999999999534","","image-keyboard-response","144","567194","0.0-4.0-0.35","","img/orange.png","32","trial","32","true","0.8,0.2","1:go_a","",""
"null","","html-keyboard-response","145","568210","0.0-4.0-1.35","","<img src=""img/orange-r.png"" border=""10"">","null","trial","32","","0.8,0.2","1:go_a","1",""
"null","","html-keyboard-response","146","569217","0.0-4.0-2.35","","<div style=""font-size:60px;"">+</div>","null","","","","","","",""
"null","","image-keyboard-response","147","570724","0.0-4.0-0.36","","img/pink.png","null","trial","null","true","0.2,0.8","2:nogo_b","",""
"null","","html-keyboard-response","148","571727","0.0-4.0-1.36","","<img src=""img/pink-r.png"">","null","trial","null","","0.2,0.8","2:nogo_b","1",""
"null","","html-keyboard-response","149","572739","0.0-4.0-2.36","","<div style=""font-size:60px;"">+</div>","null","","","","","","",""
"486","","image-keyboard-response","150","573226","0.0-4.0-0.37","","img/orange.png","32","trial","32","true","0.8,0.2","1:go_a","",""
"null","","html-keyboard-response","151","574242","0.0-4.0-1.37","","<img src=""img/orange-r.png"" border=""10"">","null","trial","32","","0.8,0.2","1:go_a","1",""
"null","","html-keyboard-response","152","575257","0.0-4.0-2.37","","<div style=""font-size:60px;"">+</div>","null","","","","","","",""
"592.1000000000931","","image-keyboard-response","153","575850","0.0-4.0-0.38","","img/orange.png","32","trial","32","true","0.8,0.2","1:go_a","",""
"null","","html-keyboard-response","154","576867","0.0-4.0-1.38","","<img src=""img/orange-r.png"" border=""10"">","null","trial","32","","0.8,0.2","1:go_a","1",""
"null","","html-keyboard-response","155","577876","0.0-4.0-2.38","","<div style=""font-size:60px;"">+</div>","null","","","","","","",""
"null","","image-keyboard-response","156","579387","0.0-4.0-0.39","","img/pink.png","null","trial","null","true","0.2,0.8","2:nogo_b","",""
"null","","html-keyboard-response","157","580404","0.0-4.0-1.39","","<img src=""img/pink-r.png"">","null","trial","null","","0.2,0.8","2:nogo_b","1",""
"null","","html-keyboard-response","158","581417","0.0-4.0-2.39","","<div style=""font-size:60px;"">+</div>","null","","","","","","",""
"432.69999999995343","","image-keyboard-response","159","581851","0.0-4.0-0.40","","img/orange.png","32","trial","32","true","0.8,0.2","1:go_a","",""
"null","","html-keyboard-response","160","582867","0.0-4.0-1.40","","<img src=""img/orange-r.png"" border=""10"">","null","trial","32","","0.8,0.2","1:go_a","1",""
"null","","html-keyboard-response","161","583869","0.0-4.0-2.40","","<div style=""font-size:60px;"">+</div>","null","","","","","","",""
"null","","image-keyboard-response","162","585377","0.0-4.0-0.41","","img/pink.png","null","trial","null","true","0.2,0.8","2:nogo_b","",""
"null","","html-keyboard-response","163","586386","0.0-4.0-1.41","","<img src=""img/pink-r.png"">","null","trial","null","","0.2,0.8","2:nogo_b","1",""
"null","","html-keyboard-response","164","587398","0.0-4.0-2.41","","<div style=""font-size:60px;"">+</div>","null","","","","","","",""
"507.39999999990687","","image-keyboard-response","165","587907","0.0-4.0-0.42","","img/orange.png","32","trial","32","true","0.8,0.2","1:go_a","",""
"null","","html-keyboard-response","166","588924","0.0-4.0-1.42","","<img src=""img/orange-r.png"" border=""10"">","null","trial","32","","0.8,0.2","1:go_a","1",""
"null","","html-keyboard-response","167","589930","0.0-4.0-2.42","","<div style=""font-size:60px;"">+</div>","null","","","","","","",""
"null","","image-keyboard-response","168","591446","0.0-4.0-0.43","","img/pink.png","null","trial","null","true","0.2,0.8","2:nogo_b","",""
"null","","html-keyboard-response","169","592450","0.0-4.0-1.43","","<img src=""img/pink-n.png"">","null","trial","null","","0.2,0.8","2:nogo_b","0",""
"null","","html-keyboard-response","170","593452","0.0-4.0-2.43","","<div style=""font-size:60px;"">+</div>","null","","","","","","",""
"null","","image-keyboard-response","171","594962","0.0-4.0-0.44","","img/pink.png","null","trial","null","true","0.2,0.8","2:nogo_b","",""
"null","","html-keyboard-response","172","595977","0.0-4.0-1.44","","<img src=""img/pink-r.png"">","null","trial","null","","0.2,0.8","2:nogo_b","1",""
"null","","html-keyboard-response","173","596994","0.0-4.0-2.44","","<div style=""font-size:60px;"">+</div>","null","","","","","","",""
"519.6000000000931","","image-keyboard-response","174","597515","0.0-4.0-0.45","","img/orange.png","32","trial","32","true","0.8,0.2","1:go_a","",""
"null","","html-keyboard-response","175","598546","0.0-4.0-1.45","","<img src=""img/orange-r.png"" border=""10"">","null","trial","32","","0.8,0.2","1:go_a","1",""
"null","","html-keyboard-response","176","599559","0.0-4.0-2.45","","<div style=""font-size:60px;"">+</div>","null","","","","","","",""
"866.3000000000466","","image-keyboard-response","177","600426","0.0-4.0-0.46","","img/orange.png","32","trial","32","true","0.8,0.2","1:go_a","",""
"null","","html-keyboard-response","178","601435","0.0-4.0-1.46","","<img src=""img/orange-r.png"" border=""10"">","null","trial","32","","0.8,0.2","1:go_a","1",""
"null","","html-keyboard-response","179","602447","0.0-4.0-2.46","","<div style=""font-size:60px;"">+</div>","null","","","","","","",""
"null","","image-keyboard-response","180","603951","0.0-4.0-0.47","","img/pink.png","null","trial","null","true","0.2,0.8","2:nogo_b","",""
"null","","html-keyboard-response","181","604964","0.0-4.0-1.47","","<img src=""img/pink-r.png"">","null","trial","null","","0.2,0.8","2:nogo_b","1",""
"null","","html-keyboard-response","182","605978","0.0-4.0-2.47","","<div style=""font-size:60px;"">+</div>","null","","","","","","",""
"null","","image-keyboard-response","183","607481","0.0-4.0-0.48","","img/pink.png","null","trial","null","true","0.2,0.8","2:nogo_b","",""
"null","","html-keyboard-response","184","608497","0.0-4.0-1.48","","<img src=""img/pink-r.png"">","null","trial","null","","0.2,0.8","2:nogo_b","1",""
"null","","html-keyboard-response","185","609510","0.0-4.0-2.48","","<div style=""font-size:60px;"">+</div>","null","","","","","","",""
"531.5","","image-keyboard-response","186","610042","0.0-4.0-0.49","","img/orange.png","32","trial","32","true","0.8,0.2","1:go_a","",""
"null","","html-keyboard-response","187","611054","0.0-4.0-1.49","","<img src=""img/orange-r.png"" border=""10"">","null","trial","32","","0.8,0.2","1:go_a","1",""
"null","","html-keyboard-response","188","612061","0.0-4.0-2.49","","<div style=""font-size:60px;"">+</div>","null","","","","","","",""
"532","","image-keyboard-response","189","612594","0.0-4.0-0.50","","img/orange.png","32","trial","32","true","0.8,0.2","1:go_a","",""
"null","","html-keyboard-response","190","613598","0.0-4.0-1.50","","<img src=""img/orange-r.png"" border=""10"">","null","trial","32","","0.8,0.2","1:go_a","1",""
"null","","html-keyboard-response","191","614612","0.0-4.0-2.50","","<div style=""font-size:60px;"">+</div>","null","","","","","","",""
"null","","image-keyboard-response","192","616122","0.0-4.0-0.51","","img/pink.png","null","trial","null","true","0.2,0.8","2:nogo_b","",""
"null","","html-keyboard-response","193","617128","0.0-4.0-1.51","","<img src=""img/pink-r.png"">","null","trial","null","","0.2,0.8","2:nogo_b","1",""
"null","","html-keyboard-response","194","618205","0.0-4.0-2.51","","<div style=""font-size:60px;"">+</div>","null","","","","","","",""
"null","","image-keyboard-response","195","619709","0.0-4.0-0.52","","img/pink.png","null","trial","null","true","0.2,0.8","2:nogo_b","",""
"null","","html-keyboard-response","196","620712","0.0-4.0-1.52","","<img src=""img/pink-r.png"">","null","trial","null","","0.2,0.8","2:nogo_b","1",""
"null","","html-keyboard-response","197","621714","0.0-4.0-2.52","","<div style=""font-size:60px;"">+</div>","null","","","","","","",""
"455.79999999981374","","image-keyboard-response","198","622171","0.0-4.0-0.53","","img/orange.png","32","trial","32","true","0.8,0.2","1:go_a","",""
"null","","html-keyboard-response","199","623176","0.0-4.0-1.53","","<img src=""img/orange-r.png"" border=""10"">","null","trial","32","","0.8,0.2","1:go_a","1",""
"null","","html-keyboard-response","200","624188","0.0-4.0-2.53","","<div style=""font-size:60px;"">+</div>","null","","","","","","",""
"533.6000000000931","","image-keyboard-response","201","624723","0.0-4.0-0.54","","img/orange.png","32","trial","32","true","0.8,0.2","1:go_a","",""
"null","","html-keyboard-response","202","625729","0.0-4.0-1.54","","<img src=""img/orange-r.png"" border=""10"">","null","trial","32","","0.8,0.2","1:go_a","1",""
"null","","html-keyboard-response","203","626742","0.0-4.0-2.54","","<div style=""font-size:60px;"">+</div>","null","","","","","","",""
"null","","image-keyboard-response","204","628254","0.0-4.0-0.55","","img/pink.png","null","trial","null","true","0.2,0.8","2:nogo_b","",""
"null","","html-keyboard-response","205","629259","0.0-4.0-1.55","","<img src=""img/pink-n.png"">","null","trial","null","","0.2,0.8","2:nogo_b","0",""
"null","","html-keyboard-response","206","630274","0.0-4.0-2.55","","<div style=""font-size:60px;"">+</div>","null","","","","","","",""
"439.79999999981374","","image-keyboard-response","207","630715","0.0-4.0-0.56","","img/orange.png","32","trial","32","true","0.8,0.2","1:go_a","",""
"null","","html-keyboard-response","208","631719","0.0-4.0-1.56","","<img src=""img/orange-r.png"" border=""10"">","null","trial","32","","0.8,0.2","1:go_a","1",""
"null","","html-keyboard-response","209","632727","0.0-4.0-2.56","","<div style=""font-size:60px;"">+</div>","null","","","","","","",""
"null","","image-keyboard-response","210","634242","0.0-4.0-0.57","","img/pink.png","null","trial","null","true","0.2,0.8","2:nogo_b","",""
"null","","html-keyboard-response","211","635248","0.0-4.0-1.57","","<img src=""img/pink-r.png"">","null","trial","null","","0.2,0.8","2:nogo_b","1",""
"null","","html-keyboard-response","212","636261","0.0-4.0-2.57","","<div style=""font-size:60px;"">+</div>","null","","","","","","",""
"452.5","","image-keyboard-response","213","636715","0.0-4.0-0.58","","img/orange.png","32","trial","32","true","0.8,0.2","1:go_a","",""
"null","","html-keyboard-response","214","637730","0.0-4.0-1.58","","<img src=""img/orange-n.png"" border=""10"">","null","trial","32","","0.8,0.2","1:go_a","0",""
"null","","html-keyboard-response","215","638743","0.0-4.0-2.58","","<div style=""font-size:60px;"">+</div>","null","","","","","","",""
"null","","image-keyboard-response","216","640258","0.0-4.0-0.59","","img/pink.png","null","trial","null","true","0.2,0.8","2:nogo_b","",""
"null","","html-keyboard-response","217","641273","0.0-4.0-1.59","","<img src=""img/pink-n.png"">","null","trial","null","","0.2,0.8","2:nogo_b","0",""
"null","","html-keyboard-response","218","642278","0.0-4.0-2.59","","<div style=""font-size:60px;"">+</div>","null","","","","","","",""
"6292.399999999907","","instructions","219","648568","0.0-5.0","[{""page_index"":0,""viewing_time"":6292}]","","","","","","","","",""
"662.3000000000466","","image-keyboard-response","220","649232","0.0-6.0-0.0","","img/pink.png","32","trial","null","false","0.4,0.6","2:nogo_b","",""
"null","","html-keyboard-response","221","650245","0.0-6.0-1.0","","<img src=""img/pink-n.png"" border=""10"">","null","trial","null","","0.4,0.6","2:nogo_b","0",""
"null","","html-keyboard-response","222","651251","0.0-6.0-2.0","","<div style=""font-size:60px;"">+</div>","null","","","","","","",""
"747.6999999999534","","image-keyboard-response","223","652000","0.0-6.0-0.1","","img/green.png","32","trial","32","true","0.6,0.4","3:go_c","",""
"null","","html-keyboard-response","224","653016","0.0-6.0-1.1","","<img src=""img/green-n.png"" border=""10"">","null","trial","32","","0.6,0.4","3:go_c","0",""
"null","","html-keyboard-response","225","654027","0.0-6.0-2.1","","<div style=""font-size:60px;"">+</div>","null","","","","","","",""
"691.5","","image-keyboard-response","226","654720","0.0-6.0-0.2","","img/purple.png","32","trial","32","true","0.6,0.4","1:go_a","",""
"null","","html-keyboard-response","227","655734","0.0-6.0-1.2","","<img src=""img/purple-n.png"" border=""10"">","null","trial","32","","0.6,0.4","1:go_a","0",""
"null","","html-keyboard-response","228","656745","0.0-6.0-2.2","","<div style=""font-size:60px;"">+</div>","null","","","","","","",""
"598","","image-keyboard-response","229","657344","0.0-6.0-0.3","","img/blue.png","32","trial","null","false","0.4,0.6","4:nogo_d","",""
"null","","html-keyboard-response","230","658356","0.0-6.0-1.3","","<img src=""img/blue-n.png"" border=""10"">","null","trial","null","","0.4,0.6","4:nogo_d","0",""
"null","","html-keyboard-response","231","659371","0.0-6.0-2.3","","<div style=""font-size:60px;"">+</div>","null","","","","","","",""
"null","","image-keyboard-response","232","660880","0.0-6.0-0.4","","img/blue.png","null","trial","null","true","0.4,0.6","4:nogo_d","",""
"null","","html-keyboard-response","233","661883","0.0-6.0-1.4","","<img src=""img/blue-r.png"">","null","trial","null","","0.4,0.6","4:nogo_d","1",""
"null","","html-keyboard-response","234","662897","0.0-6.0-2.4","","<div style=""font-size:60px;"">+</div>","null","","","","","","",""
"null","","image-keyboard-response","235","664407","0.0-6.0-0.5","","img/purple.png","null","trial","32","false","0.6,0.4","1:go_a","",""
"null","","html-keyboard-response","236","665415","0.0-6.0-1.5","","<img src=""img/purple-r.png"">","null","trial","32","","0.6,0.4","1:go_a","1",""
"null","","html-keyboard-response","237","666421","0.0-6.0-2.5","","<div style=""font-size:60px;"">+</div>","null","","","","","","",""
"null","","image-keyboard-response","238","667936","0.0-6.0-0.6","","img/pink.png","null","trial","null","true","0.4,0.6","2:nogo_b","",""
"null","","html-keyboard-response","239","668943","0.0-6.0-1.6","","<img src=""img/pink-n.png"">","null","trial","null","","0.4,0.6","2:nogo_b","0",""
"null","","html-keyboard-response","240","669949","0.0-6.0-2.6","","<div style=""font-size:60px;"">+</div>","null","","","","","","",""
"null","","image-keyboard-response","241","671459","0.0-6.0-0.7","","img/green.png","null","trial","32","false","0.6,0.4","3:go_c","",""
"null","","html-keyboard-response","242","672461","0.0-6.0-1.7","","<img src=""img/green-r.png"">","null","trial","32","","0.6,0.4","3:go_c","1",""
"null","","html-keyboard-response","243","673476","0.0-6.0-2.7","","<div style=""font-size:60px;"">+</div>","null","","","","","","",""
"null","","image-keyboard-response","244","674989","0.0-6.0-0.8","","img/blue.png","null","trial","null","true","0.4,0.6","4:nogo_d","",""
"null","","html-keyboard-response","245","675995","0.0-6.0-1.8","","<img src=""img/blue-r.png"">","null","trial","null","","0.4,0.6","4:nogo_d","1",""
"null","","html-keyboard-response","246","677008","0.0-6.0-2.8","","<div style=""font-size:60px;"">+</div>","null","","","","","","",""
"615","","image-keyboard-response","247","677625","0.0-6.0-0.9","","img/pink.png","32","trial","null","false","0.4,0.6","2:nogo_b","",""
"null","","html-keyboard-response","248","678637","0.0-6.0-1.9","","<img src=""img/pink-n.png"" border=""10"">","null","trial","null","","0.4,0.6","2:nogo_b","0",""
"null","","html-keyboard-response","249","679647","0.0-6.0-2.9","","<div style=""font-size:60px;"">+</div>","null","","","","","","",""
"null","","image-keyboard-response","250","681155","0.0-6.0-0.10","","img/purple.png","null","trial","32","false","0.6,0.4","1:go_a","",""
"null","","html-keyboard-response","251","682159","0.0-6.0-1.10","","<img src=""img/purple-r.png"">","null","trial","32","","0.6,0.4","1:go_a","1",""
"null","","html-keyboard-response","252","683167","0.0-6.0-2.10","","<div style=""font-size:60px;"">+</div>","null","","","","","","",""
"null","","image-keyboard-response","253","684672","0.0-6.0-0.11","","img/green.png","null","trial","32","false","0.6,0.4","3:go_c","",""
"null","","html-keyboard-response","254","685677","0.0-6.0-1.11","","<img src=""img/green-r.png"">","null","trial","32","","0.6,0.4","3:go_c","1",""
"null","","html-keyboard-response","255","686689","0.0-6.0-2.11","","<div style=""font-size:60px;"">+</div>","null","","","","","","",""
"1046.6000000000931","","image-keyboard-response","256","687736","0.0-6.0-0.12","","img/pink.png","32","trial","null","false","0.4,0.6","2:nogo_b","",""
"null","","html-keyboard-response","257","688753","0.0-6.0-1.12","","<img src=""img/pink-n.png"" border=""10"">","null","trial","null","","0.4,0.6","2:nogo_b","0",""
"null","","html-keyboard-response","258","689767","0.0-6.0-2.12","","<div style=""font-size:60px;"">+</div>","null","","","","","","",""
"null","","image-keyboard-response","259","691285","0.0-6.0-0.13","","img/purple.png","null","trial","32","false","0.6,0.4","1:go_a","",""
"null","","html-keyboard-response","260","692296","0.0-6.0-1.13","","<img src=""img/purple-n.png"">","null","trial","32","","0.6,0.4","1:go_a","0",""
"null","","html-keyboard-response","261","693305","0.0-6.0-2.13","","<div style=""font-size:60px;"">+</div>","null","","","","","","",""
"null","","image-keyboard-response","262","694807","0.0-6.0-0.14","","img/green.png","null","trial","32","false","0.6,0.4","3:go_c","",""
"null","","html-keyboard-response","263","695810","0.0-6.0-1.14","","<img src=""img/green-r.png"">","null","trial","32","","0.6,0.4","3:go_c","1",""
"null","","html-keyboard-response","264","696816","0.0-6.0-2.14","","<div style=""font-size:60px;"">+</div>","null","","","","","","",""
"null","","image-keyboard-response","265","698328","0.0-6.0-0.15","","img/blue.png","null","trial","null","true","0.4,0.6","4:nogo_d","",""
"null","","html-keyboard-response","266","699336","0.0-6.0-1.15","","<img src=""img/blue-r.png"">","null","trial","null","","0.4,0.6","4:nogo_d","1",""
"null","","html-keyboard-response","267","700342","0.0-6.0-2.15","","<div style=""font-size:60px;"">+</div>","null","","","","","","",""
"null","","image-keyboard-response","268","701851","0.0-6.0-0.16","","img/pink.png","null","trial","null","true","0.4,0.6","2:nogo_b","",""
"null","","html-keyboard-response","269","702865","0.0-6.0-1.16","","<img src=""img/pink-r.png"">","null","trial","null","","0.4,0.6","2:nogo_b","1",""
"null","","html-keyboard-response","270","703874","0.0-6.0-2.16","","<div style=""font-size:60px;"">+</div>","null","","","","","","",""
"null","","image-keyboard-response","271","705380","0.0-6.0-0.17","","img/blue.png","null","trial","null","true","0.4,0.6","4:nogo_d","",""
"null","","html-keyboard-response","272","706389","0.0-6.0-1.17","","<img src=""img/blue-r.png"">","null","trial","null","","0.4,0.6","4:nogo_d","1",""
"null","","html-keyboard-response","273","707399","0.0-6.0-2.17","","<div style=""font-size:60px;"">+</div>","null","","","","","","",""
"770","","image-keyboard-response","274","708170","0.0-6.0-0.18","","img/purple.png","32","trial","32","true","0.6,0.4","1:go_a","",""
"null","","html-keyboard-response","275","709181","0.0-6.0-1.18","","<img src=""img/purple-r.png"" border=""10"">","null","trial","32","","0.6,0.4","1:go_a","1",""
"null","","html-keyboard-response","276","710192","0.0-6.0-2.18","","<div style=""font-size:60px;"">+</div>","null","","","","","","",""
"577.6000000000931","","image-keyboard-response","277","710771","0.0-6.0-0.19","","img/green.png","32","trial","32","true","0.6,0.4","3:go_c","",""
"null","","html-keyboard-response","278","711782","0.0-6.0-1.19","","<img src=""img/green-r.png"" border=""10"">","null","trial","32","","0.6,0.4","3:go_c","1",""
"null","","html-keyboard-response","279","712786","0.0-6.0-2.19","","<div style=""font-size:60px;"">+</div>","null","","","","","","",""
"583","","image-keyboard-response","280","713371","0.0-6.0-0.20","","img/purple.png","32","trial","32","true","0.6,0.4","1:go_a","",""
"null","","html-keyboard-response","281","714381","0.0-6.0-1.20","","<img src=""img/purple-r.png"" border=""10"">","null","trial","32","","0.6,0.4","1:go_a","1",""
"null","","html-keyboard-response","282","715395","0.0-6.0-2.20","","<div style=""font-size:60px;"">+</div>","null","","","","","","",""
"710.6000000000931","","image-keyboard-response","283","716107","0.0-6.0-0.21","","img/blue.png","32","trial","null","false","0.4,0.6","4:nogo_d","",""
"null","","html-keyboard-response","284","717112","0.0-6.0-1.21","","<img src=""img/blue-n.png"" border=""10"">","null","trial","null","","0.4,0.6","4:nogo_d","0",""
"null","","html-keyboard-response","285","718124","0.0-6.0-2.21","","<div style=""font-size:60px;"">+</div>","null","","","","","","",""
"1277.8000000000466","","image-keyboard-response","286","719402","0.0-6.0-0.22","","img/pink.png","32","trial","null","false","0.4,0.6","2:nogo_b","",""
"null","","html-keyboard-response","287","720414","0.0-6.0-1.22","","<img src=""img/pink-r.png"" border=""10"">","null","trial","null","","0.4,0.6","2:nogo_b","1",""
"null","","html-keyboard-response","288","721420","0.0-6.0-2.22","","<div style=""font-size:60px;"">+</div>","null","","","","","","",""
"581","","image-keyboard-response","289","722002","0.0-6.0-0.23","","img/green.png","32","trial","32","true","0.6,0.4","3:go_c","",""
"null","","html-keyboard-response","290","723008","0.0-6.0-1.23","","<img src=""img/green-r.png"" border=""10"">","null","trial","32","","0.6,0.4","3:go_c","1",""
"null","","html-keyboard-response","291","724014","0.0-6.0-2.23","","<div style=""font-size:60px;"">+</div>","null","","","","","","",""
"659.8000000000466","","image-keyboard-response","292","724675","0.0-6.0-0.24","","img/blue.png","32","trial","null","false","0.4,0.6","4:nogo_d","",""
"null","","html-keyboard-response","293","725687","0.0-6.0-1.24","","<img src=""img/blue-r.png"" border=""10"">","null","trial","null","","0.4,0.6","4:nogo_d","1",""
"null","","html-keyboard-response","294","726690","0.0-6.0-2.24","","<div style=""font-size:60px;"">+</div>","null","","","","","","",""
"1094.5","","image-keyboard-response","295","727787","0.0-6.0-0.25","","img/pink.png","32","trial","null","false","0.4,0.6","2:nogo_b","",""
"null","","html-keyboard-response","296","728800","0.0-6.0-1.25","","<img src=""img/pink-n.png"" border=""10"">","null","trial","null","","0.4,0.6","2:nogo_b","0",""
"null","","html-keyboard-response","297","729809","0.0-6.0-2.25","","<div style=""font-size:60px;"">+</div>","null","","","","","","",""
"616.5","","image-keyboard-response","298","730427","0.0-6.0-0.26","","img/green.png","32","trial","32","true","0.6,0.4","3:go_c","",""
"null","","html-keyboard-response","299","731444","0.0-6.0-1.26","","<img src=""img/green-r.png"" border=""10"">","null","trial","32","","0.6,0.4","3:go_c","1",""
"null","","html-keyboard-response","300","732446","0.0-6.0-2.26","","<div style=""font-size:60px;"">+</div>","null","","","","","","",""
"564","","image-keyboard-response","301","733013","0.0-6.0-0.27","","img/purple.png","32","trial","32","true","0.6,0.4","1:go_a","",""
"null","","html-keyboard-response","302","734030","0.0-6.0-1.27","","<img src=""img/purple-n.png"" border=""10"">","null","trial","32","","0.6,0.4","1:go_a","0",""
"null","","html-keyboard-response","303","735038","0.0-6.0-2.27","","<div style=""font-size:60px;"">+</div>","null","","","","","","",""
"419.69999999995343","","image-keyboard-response","304","735459","0.0-6.0-0.28","","img/blue.png","32","trial","null","false","0.4,0.6","4:nogo_d","",""
"null","","html-keyboard-response","305","736464","0.0-6.0-1.28","","<img src=""img/blue-n.png"" border=""10"">","null","trial","null","","0.4,0.6","4:nogo_d","0",""
"null","","html-keyboard-response","306","737473","0.0-6.0-2.28","","<div style=""font-size:60px;"">+</div>","null","","","","","","",""
"null","","image-keyboard-response","307","738984","0.0-6.0-0.29","","img/purple.png","null","trial","32","false","0.6,0.4","1:go_a","",""
"null","","html-keyboard-response","308","740000","0.0-6.0-1.29","","<img src=""img/purple-n.png"">","null","trial","32","","0.6,0.4","1:go_a","0",""
"null","","html-keyboard-response","309","741012","0.0-6.0-2.29","","<div style=""font-size:60px;"">+</div>","null","","","","","","",""
"null","","image-keyboard-response","310","742528","0.0-6.0-0.30","","img/pink.png","null","trial","null","true","0.4,0.6","2:nogo_b","",""
"null","","html-keyboard-response","311","743533","0.0-6.0-1.30","","<img src=""img/pink-n.png"">","null","trial","null","","0.4,0.6","2:nogo_b","0",""
"null","","html-keyboard-response","312","744539","0.0-6.0-2.30","","<div style=""font-size:60px;"">+</div>","null","","","","","","",""
"478.5","","image-keyboard-response","313","745019","0.0-6.0-0.31","","img/green.png","32","trial","32","true","0.6,0.4","3:go_c","",""
"null","","html-keyboard-response","314","746030","0.0-6.0-1.31","","<img src=""img/green-n.png"" border=""10"">","null","trial","32","","0.6,0.4","3:go_c","0",""
"null","","html-keyboard-response","315","747038","0.0-6.0-2.31","","<div style=""font-size:60px;"">+</div>","null","","","","","","",""
"547.8000000000466","","image-keyboard-response","316","747587","0.0-6.0-0.32","","img/blue.png","32","trial","null","false","0.4,0.6","4:nogo_d","",""
"null","","html-keyboard-response","317","748602","0.0-6.0-1.32","","<img src=""img/blue-n.png"" border=""10"">","null","trial","null","","0.4,0.6","4:nogo_d","0",""
"null","","html-keyboard-response","318","749616","0.0-6.0-2.32","","<div style=""font-size:60px;"">+</div>","null","","","","","","",""
"809.5","","image-keyboard-response","319","750427","0.0-6.0-0.33","","img/purple.png","32","trial","32","true","0.6,0.4","1:go_a","",""
"null","","html-keyboard-response","320","751444","0.0-6.0-1.33","","<img src=""img/purple-r.png"" border=""10"">","null","trial","32","","0.6,0.4","1:go_a","1",""
"null","","html-keyboard-response","321","752457","0.0-6.0-2.33","","<div style=""font-size:60px;"">+</div>","null","","","","","","",""
"945.3000000000466","","image-keyboard-response","322","753403","0.0-6.0-0.34","","img/green.png","32","trial","32","true","0.6,0.4","3:go_c","",""
"null","","html-keyboard-response","323","754408","0.0-6.0-1.34","","<img src=""img/green-r.png"" border=""10"">","null","trial","32","","0.6,0.4","3:go_c","1",""
"null","","html-keyboard-response","324","755414","0.0-6.0-2.34","","<div style=""font-size:60px;"">+</div>","null","","","","","","",""
"null","","image-keyboard-response","325","756931","0.0-6.0-0.35","","img/pink.png","null","trial","null","true","0.4,0.6","2:nogo_b","",""
"null","","html-keyboard-response","326","757948","0.0-6.0-1.35","","<img src=""img/pink-n.png"">","null","trial","null","","0.4,0.6","2:nogo_b","0",""
"null","","html-keyboard-response","327","758950","0.0-6.0-2.35","","<div style=""font-size:60px;"">+</div>","null","","","","","","",""
"null","","image-keyboard-response","328","760462","0.0-6.0-0.36","","img/pink.png","null","trial","null","true","0.4,0.6","2:nogo_b","",""
"null","","html-keyboard-response","329","761478","0.0-6.0-1.36","","<img src=""img/pink-n.png"">","null","trial","null","","0.4,0.6","2:nogo_b","0",""
"null","","html-keyboard-response","330","762495","0.0-6.0-2.36","","<div style=""font-size:60px;"">+</div>","null","","","","","","",""
"683.1000000000931","","image-keyboard-response","331","763179","0.0-6.0-0.37","","img/purple.png","32","trial","32","true","0.6,0.4","1:go_a","",""
"null","","html-keyboard-response","332","764184","0.0-6.0-1.37","","<img src=""img/purple-n.png"" border=""10"">","null","trial","32","","0.6,0.4","1:go_a","0",""
"null","","html-keyboard-response","333","765197","0.0-6.0-2.37","","<div style=""font-size:60px;"">+</div>","null","","","","","","",""
"884.7999999998137","","image-keyboard-response","334","766082","0.0-6.0-0.38","","img/blue.png","32","trial","null","false","0.4,0.6","4:nogo_d","",""
"null","","html-keyboard-response","335","767086","0.0-6.0-1.38","","<img src=""img/blue-n.png"" border=""10"">","null","trial","null","","0.4,0.6","4:nogo_d","0",""
"null","","html-keyboard-response","336","768095","0.0-6.0-2.38","","<div style=""font-size:60px;"">+</div>","null","","","","","","",""
"730.8000000000466","","image-keyboard-response","337","768827","0.0-6.0-0.39","","img/green.png","32","trial","32","true","0.6,0.4","3:go_c","",""
"null","","html-keyboard-response","338","769838","0.0-6.0-1.39","","<img src=""img/green-n.png"" border=""10"">","null","trial","32","","0.6,0.4","3:go_c","0",""
"null","","html-keyboard-response","339","770844","0.0-6.0-2.39","","<div style=""font-size:60px;"">+</div>","null","","","","","","",""
"798.1999999999534","","image-keyboard-response","340","771643","0.0-6.0-0.40","","img/purple.png","32","trial","32","true","0.6,0.4","1:go_a","",""
"null","","html-keyboard-response","341","772656","0.0-6.0-1.40","","<img src=""img/purple-r.png"" border=""10"">","null","trial","32","","0.6,0.4","1:go_a","1",""
"null","","html-keyboard-response","342","773664","0.0-6.0-2.40","","<div style=""font-size:60px;"">+</div>","null","","","","","","",""
"null","","image-keyboard-response","343","775165","0.0-6.0-0.41","","img/pink.png","null","trial","null","true","0.4,0.6","2:nogo_b","",""
"null","","html-keyboard-response","344","776172","0.0-6.0-1.41","","<img src=""img/pink-r.png"">","null","trial","null","","0.4,0.6","2:nogo_b","1",""
"null","","html-keyboard-response","345","777182","0.0-6.0-2.41","","<div style=""font-size:60px;"">+</div>","null","","","","","","",""
"null","","image-keyboard-response","346","778688","0.0-6.0-0.42","","img/blue.png","null","trial","null","true","0.4,0.6","4:nogo_d","",""
"null","","html-keyboard-response","347","779696","0.0-6.0-1.42","","<img src=""img/blue-r.png"">","null","trial","null","","0.4,0.6","4:nogo_d","1",""
"null","","html-keyboard-response","348","780701","0.0-6.0-2.42","","<div style=""font-size:60px;"">+</div>","null","","","","","","",""
"613.5","","image-keyboard-response","349","781315","0.0-6.0-0.43","","img/green.png","32","trial","32","true","0.6,0.4","3:go_c","",""
"null","","html-keyboard-response","350","782323","0.0-6.0-1.43","","<img src=""img/green-r.png"" border=""10"">","null","trial","32","","0.6,0.4","3:go_c","1",""
"null","","html-keyboard-response","351","783339","0.0-6.0-2.43","","<div style=""font-size:60px;"">+</div>","null","","","","","","",""
"790.8000000000466","","image-keyboard-response","352","784131","0.0-6.0-0.44","","img/blue.png","32","trial","null","false","0.4,0.6","4:nogo_d","",""
"null","","html-keyboard-response","353","785138","0.0-6.0-1.44","","<img src=""img/blue-n.png"" border=""10"">","null","trial","null","","0.4,0.6","4:nogo_d","0",""
"null","","html-keyboard-response","354","786144","0.0-6.0-2.44","","<div style=""font-size:60px;"">+</div>","null","","","","","","",""
"609.7999999998137","","image-keyboard-response","355","786755","0.0-6.0-0.45","","img/purple.png","32","trial","32","true","0.6,0.4","1:go_a","",""
"null","","html-keyboard-response","356","787761","0.0-6.0-1.45","","<img src=""img/purple-n.png"" border=""10"">","null","trial","32","","0.6,0.4","1:go_a","0",""
"null","","html-keyboard-response","357","788773","0.0-6.0-2.45","","<div style=""font-size:60px;"">+</div>","null","","","","","","",""
"989.7999999998137","","image-keyboard-response","358","789763","0.0-6.0-0.46","","img/pink.png","32","trial","null","false","0.4,0.6","2:nogo_b","",""
"null","","html-keyboard-response","359","790780","0.0-6.0-1.46","","<img src=""img/pink-r.png"" border=""10"">","null","trial","null","","0.4,0.6","2:nogo_b","1",""
"null","","html-keyboard-response","360","791791","0.0-6.0-2.46","","<div style=""font-size:60px;"">+</div>","null","","","","","","",""
"579.4000000001397","","image-keyboard-response","361","792372","0.0-6.0-0.47","","img/green.png","32","trial","32","true","0.6,0.4","3:go_c","",""
"null","","html-keyboard-response","362","793389","0.0-6.0-1.47","","<img src=""img/green-n.png"" border=""10"">","null","trial","32","","0.6,0.4","3:go_c","0",""
"null","","html-keyboard-response","363","794399","0.0-6.0-2.47","","<div style=""font-size:60px;"">+</div>","null","","","","","","",""
"null","","image-keyboard-response","364","795917","0.0-6.0-0.48","","img/green.png","null","trial","32","false","0.6,0.4","3:go_c","",""
"null","","html-keyboard-response","365","796922","0.0-6.0-1.48","","<img src=""img/green-n.png"">","null","trial","32","","0.6,0.4","3:go_c","0",""
"null","","html-keyboard-response","366","797935","0.0-6.0-2.48","","<div style=""font-size:60px;"">+</div>","null","","","","","","",""
"707.1999999999534","","image-keyboard-response","367","798644","0.0-6.0-0.49","","img/blue.png","32","trial","null","false","0.4,0.6","4:nogo_d","",""
"null","","html-keyboard-response","368","799657","0.0-6.0-1.49","","<img src=""img/blue-r.png"" border=""10"">","null","trial","null","","0.4,0.6","4:nogo_d","1",""
"null","","html-keyboard-response","369","800674","0.0-6.0-2.49","","<div style=""font-size:60px;"">+</div>","null","","","","","","",""
"624.5999999998603","","image-keyboard-response","370","801300","0.0-6.0-0.50","","img/pink.png","32","trial","null","false","0.4,0.6","2:nogo_b","",""
"null","","html-keyboard-response","371","802305","0.0-6.0-1.50","","<img src=""img/pink-n.png"" border=""10"">","null","trial","null","","0.4,0.6","2:nogo_b","0",""
"null","","html-keyboard-response","372","803314","0.0-6.0-2.50","","<div style=""font-size:60px;"">+</div>","null","","","","","","",""
"1104.0999999998603","","image-keyboard-response","373","804419","0.0-6.0-0.51","","img/purple.png","32","trial","32","true","0.6,0.4","1:go_a","",""
"null","","html-keyboard-response","374","805425","0.0-6.0-1.51","","<img src=""img/purple-n.png"" border=""10"">","null","trial","32","","0.6,0.4","1:go_a","0",""
"null","","html-keyboard-response","375","806434","0.0-6.0-2.51","","<div style=""font-size:60px;"">+</div>","null","","","","","","",""
"623.3999999999069","","image-keyboard-response","376","807059","0.0-6.0-0.52","","img/blue.png","32","trial","null","false","0.4,0.6","4:nogo_d","",""
"null","","html-keyboard-response","377","808063","0.0-6.0-1.52","","<img src=""img/blue-r.png"" border=""10"">","null","trial","null","","0.4,0.6","4:nogo_d","1",""
"null","","html-keyboard-response","378","809071","0.0-6.0-2.52","","<div style=""font-size:60px;"">+</div>","null","","","","","","",""
"691.5999999998603","","image-keyboard-response","379","809764","0.0-6.0-0.53","","img/green.png","32","trial","32","true","0.6,0.4","3:go_c","",""
"null","","html-keyboard-response","380","810768","0.0-6.0-1.53","","<img src=""img/green-n.png"" border=""10"">","null","trial","32","","0.6,0.4","3:go_c","0",""
"null","","html-keyboard-response","381","811770","0.0-6.0-2.53","","<div style=""font-size:60px;"">+</div>","null","","","","","","",""
"1400.1000000000931","","image-keyboard-response","382","813171","0.0-6.0-0.54","","img/purple.png","32","trial","32","true","0.6,0.4","1:go_a","",""
"null","","html-keyboard-response","383","814180","0.0-6.0-1.54","","<img src=""img/purple-r.png"" border=""10"">","null","trial","32","","0.6,0.4","1:go_a","1",""
"null","","html-keyboard-response","384","815193","0.0-6.0-2.54","","<div style=""font-size:60px;"">+</div>","null","","","","","","",""
"null","","image-keyboard-response","385","816699","0.0-6.0-0.55","","img/pink.png","null","trial","null","true","0.4,0.6","2:nogo_b","",""
"null","","html-keyboard-response","386","817707","0.0-6.0-1.55","","<img src=""img/pink-n.png"">","null","trial","null","","0.4,0.6","2:nogo_b","0",""
"null","","html-keyboard-response","387","818715","0.0-6.0-2.55","","<div style=""font-size:60px;"">+</div>","null","","","","","","",""
"688.0999999998603","","image-keyboard-response","388","819404","0.0-6.0-0.56","","img/purple.png","32","trial","32","true","0.6,0.4","1:go_a","",""
"null","","html-keyboard-response","389","820421","0.0-6.0-1.56","","<img src=""img/purple-n.png"" border=""10"">","null","trial","32","","0.6,0.4","1:go_a","0",""
"null","","html-keyboard-response","390","821428","0.0-6.0-2.56","","<div style=""font-size:60px;"">+</div>","null","","","","","","",""
"855","","image-keyboard-response","391","822284","0.0-6.0-0.57","","img/green.png","32","trial","32","true","0.6,0.4","3:go_c","",""
"null","","html-keyboard-response","392","823290","0.0-6.0-1.57","","<img src=""img/green-r.png"" border=""10"">","null","trial","32","","0.6,0.4","3:go_c","1",""
"null","","html-keyboard-response","393","824297","0.0-6.0-2.57","","<div style=""font-size:60px;"">+</div>","null","","","","","","",""
"1144.8000000000466","","image-keyboard-response","394","825444","0.0-6.0-0.58","","img/blue.png","32","trial","null","false","0.4,0.6","4:nogo_d","",""
"null","","html-keyboard-response","395","826450","0.0-6.0-1.58","","<img src=""img/blue-r.png"" border=""10"">","null","trial","null","","0.4,0.6","4:nogo_d","1",""
"null","","html-keyboard-response","396","827461","0.0-6.0-2.58","","<div style=""font-size:60px;"">+</div>","null","","","","","","",""
"null","","image-keyboard-response","397","828977","0.0-6.0-0.59","","img/pink.png","null","trial","null","true","0.4,0.6","2:nogo_b","",""
"null","","html-keyboard-response","398","829988","0.0-6.0-1.59","","<img src=""img/pink-r.png"">","null","trial","null","","0.4,0.6","2:nogo_b","1",""
"null","","html-keyboard-response","399","830992","0.0-6.0-2.59","","<div style=""font-size:60px;"">+</div>","null","","","","","","",""
"690.4000000001397","","image-keyboard-response","400","831684","0.0-6.0-0.60","","img/green.png","32","trial","32","true","0.6,0.4","3:go_c","",""
"null","","html-keyboard-response","401","832690","0.0-6.0-1.60","","<img src=""img/green-r.png"" border=""10"">","null","trial","32","","0.6,0.4","3:go_c","1",""
"null","","html-keyboard-response","402","833695","0.0-6.0-2.60","","<div style=""font-size:60px;"">+</div>","null","","","","","","",""
"795.1000000000931","","image-keyboard-response","403","834491","0.0-6.0-0.61","","img/purple.png","32","trial","32","true","0.6,0.4","1:go_a","",""
"null","","html-keyboard-response","404","835496","0.0-6.0-1.61","","<img src=""img/purple-n.png"" border=""10"">","null","trial","32","","0.6,0.4","1:go_a","0",""
"null","","html-keyboard-response","405","836505","0.0-6.0-2.61","","<div style=""font-size:60px;"">+</div>","null","","","","","","",""
"841.4000000001397","","image-keyboard-response","406","837347","0.0-6.0-0.62","","img/blue.png","32","trial","null","false","0.4,0.6","4:nogo_d","",""
"null","","html-keyboard-response","407","838364","0.0-6.0-1.62","","<img src=""img/blue-n.png"" border=""10"">","null","trial","null","","0.4,0.6","4:nogo_d","0",""
"null","","html-keyboard-response","408","839375","0.0-6.0-2.62","","<div style=""font-size:60px;"">+</div>","null","","","","","","",""
"1442.8000000000466","","image-keyboard-response","409","840819","0.0-6.0-0.63","","img/pink.png","32","trial","null","false","0.4,0.6","2:nogo_b","",""
"null","","html-keyboard-response","410","841828","0.0-6.0-1.63","","<img src=""img/pink-n.png"" border=""10"">","null","trial","null","","0.4,0.6","2:nogo_b","0",""
"null","","html-keyboard-response","411","842835","0.0-6.0-2.63","","<div style=""font-size:60px;"">+</div>","null","","","","","","",""
"495","","image-keyboard-response","412","843332","0.0-6.0-0.64","","img/green.png","32","trial","32","true","0.6,0.4","3:go_c","",""
"null","","html-keyboard-response","413","844342","0.0-6.0-1.64","","<img src=""img/green-r.png"" border=""10"">","null","trial","32","","0.6,0.4","3:go_c","1",""
"null","","html-keyboard-response","414","845349","0.0-6.0-2.64","","<div style=""font-size:60px;"">+</div>","null","","","","","","",""
"null","","image-keyboard-response","415","846853","0.0-6.0-0.65","","img/pink.png","null","trial","null","true","0.4,0.6","2:nogo_b","",""
"null","","html-keyboard-response","416","847863","0.0-6.0-1.65","","<img src=""img/pink-r.png"">","null","trial","null","","0.4,0.6","2:nogo_b","1",""
"null","","html-keyboard-response","417","848869","0.0-6.0-2.65","","<div style=""font-size:60px;"">+</div>","null","","","","","","",""
"null","","image-keyboard-response","418","850378","0.0-6.0-0.66","","img/blue.png","null","trial","null","true","0.4,0.6","4:nogo_d","",""
"null","","html-keyboard-response","419","851393","0.0-6.0-1.66","","<img src=""img/blue-r.png"">","null","trial","null","","0.4,0.6","4:nogo_d","1",""
"null","","html-keyboard-response","420","852402","0.0-6.0-2.66","","<div style=""font-size:60px;"">+</div>","null","","","","","","",""
"608.3999999999069","","image-keyboard-response","421","853012","0.0-6.0-0.67","","img/purple.png","32","trial","32","true","0.6,0.4","1:go_a","",""
"null","","html-keyboard-response","422","854017","0.0-6.0-1.67","","<img src=""img/purple-r.png"" border=""10"">","null","trial","32","","0.6,0.4","1:go_a","1",""
"null","","html-keyboard-response","423","855023","0.0-6.0-2.67","","<div style=""font-size:60px;"">+</div>","null","","","","","","",""
"651.2999999998137","","image-keyboard-response","424","855676","0.0-6.0-0.68","","img/purple.png","32","trial","32","true","0.6,0.4","1:go_a","",""
"null","","html-keyboard-response","425","856691","0.0-6.0-1.68","","<img src=""img/purple-n.png"" border=""10"">","null","trial","32","","0.6,0.4","1:go_a","0",""
"null","","html-keyboard-response","426","857701","0.0-6.0-2.68","","<div style=""font-size:60px;"">+</div>","null","","","","","","",""
"597.6999999999534","","image-keyboard-response","427","858299","0.0-6.0-0.69","","img/green.png","32","trial","32","true","0.6,0.4","3:go_c","",""
"null","","html-keyboard-response","428","859311","0.0-6.0-1.69","","<img src=""img/green-r.png"" border=""10"">","null","trial","32","","0.6,0.4","3:go_c","1",""
"null","","html-keyboard-response","429","860315","0.0-6.0-2.69","","<div style=""font-size:60px;"">+</div>","null","","","","","","",""
"1415.3000000000466","","image-keyboard-response","430","861731","0.0-6.0-0.70","","img/blue.png","32","trial","null","false","0.4,0.6","4:nogo_d","",""
"null","","html-keyboard-response","431","862739","0.0-6.0-1.70","","<img src=""img/blue-n.png"" border=""10"">","null","trial","null","","0.4,0.6","4:nogo_d","0",""
"null","","html-keyboard-response","432","863750","0.0-6.0-2.70","","<div style=""font-size:60px;"">+</div>","null","","","","","","",""
"1220.6999999999534","","image-keyboard-response","433","864972","0.0-6.0-0.71","","img/pink.png","32","trial","null","false","0.4,0.6","2:nogo_b","",""
"null","","html-keyboard-response","434","865984","0.0-6.0-1.71","","<img src=""img/pink-n.png"" border=""10"">","null","trial","null","","0.4,0.6","2:nogo_b","0",""
"null","","html-keyboard-response","435","867007","0.0-6.0-2.71","","<div style=""font-size:60px;"">+</div>","null","","","","","","",""
"586.6000000000931","","image-keyboard-response","436","867595","0.0-6.0-0.72","","img/green.png","32","trial","32","true","0.6,0.4","3:go_c","",""
"null","","html-keyboard-response","437","868607","0.0-6.0-1.72","","<img src=""img/green-r.png"" border=""10"">","null","trial","32","","0.6,0.4","3:go_c","1",""
"null","","html-keyboard-response","438","869611","0.0-6.0-2.72","","<div style=""font-size:60px;"">+</div>","null","","","","","","",""
"null","","image-keyboard-response","439","871119","0.0-6.0-0.73","","img/blue.png","null","trial","null","true","0.4,0.6","4:nogo_d","",""
"null","","html-keyboard-response","440","872136","0.0-6.0-1.73","","<img src=""img/blue-r.png"">","null","trial","null","","0.4,0.6","4:nogo_d","1",""
"null","","html-keyboard-response","441","873148","0.0-6.0-2.73","","<div style=""font-size:60px;"">+</div>","null","","","","","","",""
"null","","image-keyboard-response","442","874654","0.0-6.0-0.74","","img/purple.png","null","trial","32","false","0.6,0.4","1:go_a","",""
"null","","html-keyboard-response","443","875661","0.0-6.0-1.74","","<img src=""img/purple-r.png"">","null","trial","32","","0.6,0.4","1:go_a","1",""
"null","","html-keyboard-response","444","876664","0.0-6.0-2.74","","<div style=""font-size:60px;"">+</div>","null","","","","","","",""
"null","","image-keyboard-response","445","878181","0.0-6.0-0.75","","img/pink.png","null","trial","null","true","0.4,0.6","2:nogo_b","",""
"null","","html-keyboard-response","446","879201","0.0-6.0-1.75","","<img src=""img/pink-r.png"">","null","trial","null","","0.4,0.6","2:nogo_b","1",""
"null","","html-keyboard-response","447","880210","0.0-6.0-2.75","","<div style=""font-size:60px;"">+</div>","null","","","","","","",""
"519.8000000000466","","image-keyboard-response","448","880731","0.0-6.0-0.76","","img/pink.png","32","trial","null","false","0.4,0.6","2:nogo_b","",""
"null","","html-keyboard-response","449","881737","0.0-6.0-1.76","","<img src=""img/pink-n.png"" border=""10"">","null","trial","null","","0.4,0.6","2:nogo_b","0",""
"null","","html-keyboard-response","450","882741","0.0-6.0-2.76","","<div style=""font-size:60px;"">+</div>","null","","","","","","",""
"573.3000000000466","","image-keyboard-response","451","883315","0.0-6.0-0.77","","img/green.png","32","trial","32","true","0.6,0.4","3:go_c","",""
"null","","html-keyboard-response","452","884328","0.0-6.0-1.77","","<img src=""img/green-r.png"" border=""10"">","null","trial","32","","0.6,0.4","3:go_c","1",""
"null","","html-keyboard-response","453","885339","0.0-6.0-2.77","","<div style=""font-size:60px;"">+</div>","null","","","","","","",""
"646.7000000001863","","image-keyboard-response","454","885987","0.0-6.0-0.78","","img/purple.png","32","trial","32","true","0.6,0.4","1:go_a","",""
"null","","html-keyboard-response","455","886994","0.0-6.0-1.78","","<img src=""img/purple-r.png"" border=""10"">","null","trial","32","","0.6,0.4","1:go_a","1",""
"null","","html-keyboard-response","456","888018","0.0-6.0-2.78","","<div style=""font-size:60px;"">+</div>","null","","","","","","",""
"663","","image-keyboard-response","457","888683","0.0-6.0-0.79","","img/blue.png","32","trial","null","false","0.4,0.6","4:nogo_d","",""
"null","","html-keyboard-response","458","889695","0.0-6.0-1.79","","<img src=""img/blue-r.png"" border=""10"">","null","trial","null","","0.4,0.6","4:nogo_d","1",""
"null","","html-keyboard-response","459","890708","0.0-6.0-2.79","","<div style=""font-size:60px;"">+</div>","null","","","","","","",""
"526.0999999998603","","image-keyboard-response","460","891235","0.0-6.0-0.80","","img/blue.png","32","trial","null","false","0.4,0.6","4:nogo_d","",""
"null","","html-keyboard-response","461","892242","0.0-6.0-1.80","","<img src=""img/blue-n.png"" border=""10"">","null","trial","null","","0.4,0.6","4:nogo_d","0",""
"null","","html-keyboard-response","462","893246","0.0-6.0-2.80","","<div style=""font-size:60px;"">+</div>","null","","","","","","",""
"908.4000000001397","","image-keyboard-response","463","894155","0.0-6.0-0.81","","img/purple.png","32","trial","32","true","0.6,0.4","1:go_a","",""
"null","","html-keyboard-response","464","895164","0.0-6.0-1.81","","<img src=""img/purple-r.png"" border=""10"">","null","trial","32","","0.6,0.4","1:go_a","1",""
"null","","html-keyboard-response","465","896167","0.0-6.0-2.81","","<div style=""font-size:60px;"">+</div>","null","","","","","","",""
"619.3999999999069","","image-keyboard-response","466","896787","0.0-6.0-0.82","","img/green.png","32","trial","32","true","0.6,0.4","3:go_c","",""
"null","","html-keyboard-response","467","897795","0.0-6.0-1.82","","<img src=""img/green-r.png"" border=""10"">","null","trial","32","","0.6,0.4","3:go_c","1",""
"null","","html-keyboard-response","468","898809","0.0-6.0-2.82","","<div style=""font-size:60px;"">+</div>","null","","","","","","",""
"1385.3999999999069","","image-keyboard-response","469","900196","0.0-6.0-0.83","","img/pink.png","32","trial","null","false","0.4,0.6","2:nogo_b","",""
"null","","html-keyboard-response","470","901204","0.0-6.0-1.83","","<img src=""img/pink-n.png"" border=""10"">","null","trial","null","","0.4,0.6","2:nogo_b","0",""
"null","","html-keyboard-response","471","902211","0.0-6.0-2.83","","<div style=""font-size:60px;"">+</div>","null","","","","","","",""
"null","","image-keyboard-response","472","903722","0.0-6.0-0.84","","img/pink.png","null","trial","null","true","0.4,0.6","2:nogo_b","",""
"null","","html-keyboard-response","473","904737","0.0-6.0-1.84","","<img src=""img/pink-n.png"">","null","trial","null","","0.4,0.6","2:nogo_b","0",""
"null","","html-keyboard-response","474","905740","0.0-6.0-2.84","","<div style=""font-size:60px;"">+</div>","null","","","","","","",""
"510.0999999998603","","image-keyboard-response","475","906252","0.0-6.0-0.85","","img/green.png","32","trial","32","true","0.6,0.4","3:go_c","",""
"null","","html-keyboard-response","476","907264","0.0-6.0-1.85","","<img src=""img/green-r.png"" border=""10"">","null","trial","32","","0.6,0.4","3:go_c","1",""
"null","","html-keyboard-response","477","908273","0.0-6.0-2.85","","<div style=""font-size:60px;"">+</div>","null","","","","","","",""
"752.8000000000466","","image-keyboard-response","478","909027","0.0-6.0-0.86","","img/purple.png","32","trial","32","true","0.6,0.4","1:go_a","",""
"null","","html-keyboard-response","479","910037","0.0-6.0-1.86","","<img src=""img/purple-n.png"" border=""10"">","null","trial","32","","0.6,0.4","1:go_a","0",""
"null","","html-keyboard-response","480","911047","0.0-6.0-2.86","","<div style=""font-size:60px;"">+</div>","null","","","","","","",""
"1075.2000000001863","","image-keyboard-response","481","912123","0.0-6.0-0.87","","img/blue.png","32","trial","null","false","0.4,0.6","4:nogo_d","",""
"null","","html-keyboard-response","482","913127","0.0-6.0-1.87","","<img src=""img/blue-r.png"" border=""10"">","null","trial","null","","0.4,0.6","4:nogo_d","1",""
"null","","html-keyboard-response","483","914140","0.0-6.0-2.87","","<div style=""font-size:60px;"">+</div>","null","","","","","","",""
"981.8999999999069","","image-keyboard-response","484","915123","0.0-6.0-0.88","","img/purple.png","32","trial","32","true","0.6,0.4","1:go_a","",""
"null","","html-keyboard-response","485","916132","0.0-6.0-1.88","","<img src=""img/purple-r.png"" border=""10"">","null","trial","32","","0.6,0.4","1:go_a","1",""
"null","","html-keyboard-response","486","917144","0.0-6.0-2.88","","<div style=""font-size:60px;"">+</div>","null","","","","","","",""
"null","","image-keyboard-response","487","918651","0.0-6.0-0.89","","img/pink.png","null","trial","null","true","0.4,0.6","2:nogo_b","",""
"null","","html-keyboard-response","488","919666","0.0-6.0-1.89","","<img src=""img/pink-n.png"">","null","trial","null","","0.4,0.6","2:nogo_b","0",""
"null","","html-keyboard-response","489","920670","0.0-6.0-2.89","","<div style=""font-size:60px;"">+</div>","null","","","","","","",""
"579.6999999999534","","image-keyboard-response","490","921251","0.0-6.0-0.90","","img/green.png","32","trial","32","true","0.6,0.4","3:go_c","",""
"null","","html-keyboard-response","491","922254","0.0-6.0-1.90","","<img src=""img/green-r.png"" border=""10"">","null","trial","32","","0.6,0.4","3:go_c","1",""
"null","","html-keyboard-response","492","923256","0.0-6.0-2.90","","<div style=""font-size:60px;"">+</div>","null","","","","","","",""
"1121.6999999999534","","image-keyboard-response","493","924378","0.0-6.0-0.91","","img/blue.png","32","trial","null","false","0.4,0.6","4:nogo_d","",""
"null","","html-keyboard-response","494","925391","0.0-6.0-1.91","","<img src=""img/blue-n.png"" border=""10"">","null","trial","null","","0.4,0.6","4:nogo_d","0",""
"null","","html-keyboard-response","495","926405","0.0-6.0-2.91","","<div style=""font-size:60px;"">+</div>","null","","","","","","",""
"957","","image-keyboard-response","496","927362","0.0-6.0-0.92","","img/blue.png","32","trial","null","false","0.4,0.6","4:nogo_d","",""
"null","","html-keyboard-response","497","928372","0.0-6.0-1.92","","<img src=""img/blue-n.png"" border=""10"">","null","trial","null","","0.4,0.6","4:nogo_d","0",""
"null","","html-keyboard-response","498","929374","0.0-6.0-2.92","","<div style=""font-size:60px;"">+</div>","null","","","","","","",""
"628.2000000001863","","image-keyboard-response","499","930003","0.0-6.0-0.93","","img/green.png","32","trial","32","true","0.6,0.4","3:go_c","",""
"null","","html-keyboard-response","500","931019","0.0-6.0-1.93","","<img src=""img/green-r.png"" border=""10"">","null","trial","32","","0.6,0.4","3:go_c","1",""
"null","","html-keyboard-response","501","932032","0.0-6.0-2.93","","<div style=""font-size:60px;"">+</div>","null","","","","","","",""
"null","","image-keyboard-response","502","933547","0.0-6.0-0.94","","img/pink.png","null","trial","null","true","0.4,0.6","2:nogo_b","",""
"null","","html-keyboard-response","503","934556","0.0-6.0-1.94","","<img src=""img/pink-r.png"">","null","trial","null","","0.4,0.6","2:nogo_b","1",""
"null","","html-keyboard-response","504","935572","0.0-6.0-2.94","","<div style=""font-size:60px;"">+</div>","null","","","","","","",""
"766.3999999999069","","image-keyboard-response","505","936339","0.0-6.0-0.95","","img/purple.png","32","trial","32","true","0.6,0.4","1:go_a","",""
"null","","html-keyboard-response","506","937346","0.0-6.0-1.95","","<img src=""img/purple-r.png"" border=""10"">","null","trial","32","","0.6,0.4","1:go_a","1",""
"null","","html-keyboard-response","507","938351","0.0-6.0-2.95","","<div style=""font-size:60px;"">+</div>","null","","","","","","",""
"443","","image-keyboard-response","508","938796","0.0-6.0-0.96","","img/pink.png","32","trial","null","false","0.4,0.6","2:nogo_b","",""
"null","","html-keyboard-response","509","939807","0.0-6.0-1.96","","<img src=""img/pink-r.png"" border=""10"">","null","trial","null","","0.4,0.6","2:nogo_b","1",""
"null","","html-keyboard-response","510","940809","0.0-6.0-2.96","","<div style=""font-size:60px;"">+</div>","null","","","","","","",""
"793.3999999999069","","image-keyboard-response","511","941604","0.0-6.0-0.97","","img/purple.png","32","trial","32","true","0.6,0.4","1:go_a","",""
"null","","html-keyboard-response","512","942618","0.0-6.0-1.97","","<img src=""img/purple-r.png"" border=""10"">","null","trial","32","","0.6,0.4","1:go_a","1",""
"null","","html-keyboard-response","513","943633","0.0-6.0-2.97","","<div style=""font-size:60px;"">+</div>","null","","","","","","",""
"376.80000000004657","","image-keyboard-response","514","944011","0.0-6.0-0.98","","img/green.png","32","trial","32","true","0.6,0.4","3:go_c","",""
"null","","html-keyboard-response","515","945020","0.0-6.0-1.98","","<img src=""img/green-r.png"" border=""10"">","null","trial","32","","0.6,0.4","3:go_c","1",""
"null","","html-keyboard-response","516","946031","0.0-6.0-2.98","","<div style=""font-size:60px;"">+</div>","null","","","","","","",""
"1010.8000000000466","","image-keyboard-response","517","947043","0.0-6.0-0.99","","img/blue.png","32","trial","null","false","0.4,0.6","4:nogo_d","",""
"null","","html-keyboard-response","518","948059","0.0-6.0-1.99","","<img src=""img/blue-r.png"" border=""10"">","null","trial","null","","0.4,0.6","4:nogo_d","1",""
"null","","html-keyboard-response","519","949069","0.0-6.0-2.99","","<div style=""font-size:60px;"">+</div>","null","","","","","","",""
"678.1000000000931","","image-keyboard-response","520","949749","0.0-6.0-0.100","","img/green.png","32","trial","32","true","0.6,0.4","3:go_c","",""
"null","","html-keyboard-response","521","950762","0.0-6.0-1.100","","<img src=""img/green-n.png"" border=""10"">","null","trial","32","","0.6,0.4","3:go_c","0",""
"null","","html-keyboard-response","522","951774","0.0-6.0-2.100","","<div style=""font-size:60px;"">+</div>","null","","","","","","",""
"1237.1000000000931","","image-keyboard-response","523","953013","0.0-6.0-0.101","","img/purple.png","32","trial","32","true","0.6,0.4","1:go_a","",""
"null","","html-keyboard-response","524","954021","0.0-6.0-1.101","","<img src=""img/purple-r.png"" border=""10"">","null","trial","32","","0.6,0.4","1:go_a","1",""
"null","","html-keyboard-response","525","955033","0.0-6.0-2.101","","<div style=""font-size:60px;"">+</div>","null","","","","","","",""
"null","","image-keyboard-response","526","956539","0.0-6.0-0.102","","img/blue.png","null","trial","null","true","0.4,0.6","4:nogo_d","",""
"null","","html-keyboard-response","527","957550","0.0-6.0-1.102","","<img src=""img/blue-r.png"">","null","trial","null","","0.4,0.6","4:nogo_d","1",""
"null","","html-keyboard-response","528","958561","0.0-6.0-2.102","","<div style=""font-size:60px;"">+</div>","null","","","","","","",""
"null","","image-keyboard-response","529","960073","0.0-6.0-0.103","","img/pink.png","null","trial","null","true","0.4,0.6","2:nogo_b","",""
"null","","html-keyboard-response","530","961080","0.0-6.0-1.103","","<img src=""img/pink-r.png"">","null","trial","null","","0.4,0.6","2:nogo_b","1",""
"null","","html-keyboard-response","531","962086","0.0-6.0-2.103","","<div style=""font-size:60px;"">+</div>","null","","","","","","",""
"861.3999999999069","","image-keyboard-response","532","962949","0.0-6.0-0.104","","img/blue.png","32","trial","null","false","0.4,0.6","4:nogo_d","",""
"null","","html-keyboard-response","533","963966","0.0-6.0-1.104","","<img src=""img/blue-n.png"" border=""10"">","null","trial","null","","0.4,0.6","4:nogo_d","0",""
"null","","html-keyboard-response","534","964973","0.0-6.0-2.104","","<div style=""font-size:60px;"">+</div>","null","","","","","","",""
"615","","image-keyboard-response","535","965588","0.0-6.0-0.105","","img/purple.png","32","trial","32","true","0.6,0.4","1:go_a","",""
"null","","html-keyboard-response","536","966602","0.0-6.0-1.105","","<img src=""img/purple-r.png"" border=""10"">","null","trial","32","","0.6,0.4","1:go_a","1",""
"null","","html-keyboard-response","537","967616","0.0-6.0-2.105","","<div style=""font-size:60px;"">+</div>","null","","","","","","",""
"null","","image-keyboard-response","538","969129","0.0-6.0-0.106","","img/pink.png","null","trial","null","true","0.4,0.6","2:nogo_b","",""
"null","","html-keyboard-response","539","970144","0.0-6.0-1.106","","<img src=""img/pink-r.png"">","null","trial","null","","0.4,0.6","2:nogo_b","1",""
"null","","html-keyboard-response","540","971145","0.0-6.0-2.106","","<div style=""font-size:60px;"">+</div>","null","","","","","","",""
"338.5","","image-keyboard-response","541","971485","0.0-6.0-0.107","","img/green.png","32","trial","32","true","0.6,0.4","3:go_c","",""
"null","","html-keyboard-response","542","972502","0.0-6.0-1.107","","<img src=""img/green-r.png"" border=""10"">","null","trial","32","","0.6,0.4","3:go_c","1",""
"null","","html-keyboard-response","543","973512","0.0-6.0-2.107","","<div style=""font-size:60px;"">+</div>","null","","","","","","",""
"907.8000000000466","","image-keyboard-response","544","974421","0.0-6.0-0.108","","img/pink.png","32","trial","null","false","0.4,0.6","2:nogo_b","",""
"null","","html-keyboard-response","545","975432","0.0-6.0-1.108","","<img src=""img/pink-n.png"" border=""10"">","null","trial","null","","0.4,0.6","2:nogo_b","0",""
"null","","html-keyboard-response","546","976446","0.0-6.0-2.108","","<div style=""font-size:60px;"">+</div>","null","","","","","","",""
"517","","image-keyboard-response","547","976964","0.0-6.0-0.109","","img/green.png","32","trial","32","true","0.6,0.4","3:go_c","",""
"null","","html-keyboard-response","548","977977","0.0-6.0-1.109","","<img src=""img/green-r.png"" border=""10"">","null","trial","32","","0.6,0.4","3:go_c","1",""
"null","","html-keyboard-response","549","978986","0.0-6.0-2.109","","<div style=""font-size:60px;"">+</div>","null","","","","","","",""
"681.6999999999534","","image-keyboard-response","550","979669","0.0-6.0-0.110","","img/purple.png","32","trial","32","true","0.6,0.4","1:go_a","",""
"null","","html-keyboard-response","551","980679","0.0-6.0-1.110","","<img src=""img/purple-r.png"" border=""10"">","null","trial","32","","0.6,0.4","1:go_a","1",""
"null","","html-keyboard-response","552","981683","0.0-6.0-2.110","","<div style=""font-size:60px;"">+</div>","null","","","","","","",""
"713.1000000000931","","image-keyboard-response","553","982397","0.0-6.0-0.111","","img/blue.png","32","trial","null","false","0.4,0.6","4:nogo_d","",""
"null","","html-keyboard-response","554","983404","0.0-6.0-1.111","","<img src=""img/blue-n.png"" border=""10"">","null","trial","null","","0.4,0.6","4:nogo_d","0",""
"null","","html-keyboard-response","555","984407","0.0-6.0-2.111","","<div style=""font-size:60px;"">+</div>","null","","","","","","",""
"500.5999999998603","","image-keyboard-response","556","984909","0.0-6.0-0.112","","img/green.png","32","trial","32","true","0.6,0.4","3:go_c","",""
"null","","html-keyboard-response","557","985916","0.0-6.0-1.112","","<img src=""img/green-r.png"" border=""10"">","null","trial","32","","0.6,0.4","3:go_c","1",""
"null","","html-keyboard-response","558","986920","0.0-6.0-2.112","","<div style=""font-size:60px;"">+</div>","null","","","","","","",""
"731.1999999999534","","image-keyboard-response","559","987653","0.0-6.0-0.113","","img/pink.png","32","trial","null","false","0.4,0.6","2:nogo_b","",""
"null","","html-keyboard-response","560","988669","0.0-6.0-1.113","","<img src=""img/pink-n.png"" border=""10"">","null","trial","null","","0.4,0.6","2:nogo_b","0",""
"null","","html-keyboard-response","561","989675","0.0-6.0-2.113","","<div style=""font-size:60px;"">+</div>","null","","","","","","",""
"569","","image-keyboard-response","562","990245","0.0-6.0-0.114","","img/purple.png","32","trial","32","true","0.6,0.4","1:go_a","",""
"null","","html-keyboard-response","563","991261","0.0-6.0-1.114","","<img src=""img/purple-n.png"" border=""10"">","null","trial","32","","0.6,0.4","1:go_a","0",""
"null","","html-keyboard-response","564","992271","0.0-6.0-2.114","","<div style=""font-size:60px;"">+</div>","null","","","","","","",""
"1028.9000000001397","","image-keyboard-response","565","993301","0.0-6.0-0.115","","img/blue.png","32","trial","null","false","0.4,0.6","4:nogo_d","",""
"null","","html-keyboard-response","566","994315","0.0-6.0-1.115","","<img src=""img/blue-r.png"" border=""10"">","null","trial","null","","0.4,0.6","4:nogo_d","1",""
"null","","html-keyboard-response","567","995329","0.0-6.0-2.115","","<div style=""font-size:60px;"">+</div>","null","","","","","","",""
"1322.3000000000466","","image-keyboard-response","568","996653","0.0-6.0-0.116","","img/pink.png","32","trial","null","false","0.4,0.6","2:nogo_b","",""
"null","","html-keyboard-response","569","997670","0.0-6.0-1.116","","<img src=""img/pink-n.png"" border=""10"">","null","trial","null","","0.4,0.6","2:nogo_b","0",""
"null","","html-keyboard-response","570","998679","0.0-6.0-2.116","","<div style=""font-size:60px;"">+</div>","null","","","","","","",""
"null","","image-keyboard-response","571","1000191","0.0-6.0-0.117","","img/blue.png","null","trial","null","true","0.4,0.6","4:nogo_d","",""
"null","","html-keyboard-response","572","1001206","0.0-6.0-1.117","","<img src=""img/blue-r.png"">","null","trial","null","","0.4,0.6","4:nogo_d","1",""
"null","","html-keyboard-response","573","1002209","0.0-6.0-2.117","","<div style=""font-size:60px;"">+</div>","null","","","","","","",""
"null","","image-keyboard-response","574","1003727","0.0-6.0-0.118","","img/purple.png","null","trial","32","false","0.6,0.4","1:go_a","",""
"null","","html-keyboard-response","575","1004742","0.0-6.0-1.118","","<img src=""img/purple-r.png"">","null","trial","32","","0.6,0.4","1:go_a","1",""
"null","","html-keyboard-response","576","1005748","0.0-6.0-2.118","","<div style=""font-size:60px;"">+</div>","null","","","","","","",""
"382.5","","image-keyboard-response","577","1006133","0.0-6.0-0.119","","img/green.png","32","trial","32","true","0.6,0.4","3:go_c","",""
"null","","html-keyboard-response","578","1007137","0.0-6.0-1.119","","<img src=""img/green-r.png"" border=""10"">","null","trial","32","","0.6,0.4","3:go_c","1",""
"null","","html-keyboard-response","579","1008144","0.0-6.0-2.119","","<div style=""font-size:60px;"">+</div>","null","","","","","","",""
"241813.1000000001","","instructions","580","1249957","0.0-7.0","[{""page_index"":0,""viewing_time"":241812.80000000005}]","","","","","","","","",""
"759.6999999999534","","image-keyboard-response","581","1250718","0.0-8.0-0.0","","img/purple.png","32","trial","32","true","0.6,0.4","3:go_c","",""
"null","","html-keyboard-response","582","1251725","0.0-8.0-1.0","","<img src=""img/purple-n.png"" border=""10"">","null","trial","32","","0.6,0.4","3:go_c","0",""
"null","","html-keyboard-response","583","1252741","0.0-8.0-2.0","","<div style=""font-size:60px;"">+</div>","null","","","","","","",""
"1351.1999999999534","","image-keyboard-response","584","1254093","0.0-8.0-0.1","","img/blue.png","32","trial","null","false","0.2,0.8","2:nogo_b","",""
"null","","html-keyboard-response","585","1255107","0.0-8.0-1.1","","<img src=""img/blue-n.png"" border=""10"">","null","trial","null","","0.2,0.8","2:nogo_b","0",""
"null","","html-keyboard-response","586","1256108","0.0-8.0-2.1","","<div style=""font-size:60px;"">+</div>","null","","","","","","",""
"1288.1999999999534","","image-keyboard-response","587","1257398","0.0-8.0-0.2","","img/pink.png","32","trial","null","false","0.4,0.6","4:nogo_d","",""
"null","","html-keyboard-response","588","1258415","0.0-8.0-1.2","","<img src=""img/pink-n.png"" border=""10"">","null","trial","null","","0.4,0.6","4:nogo_d","0",""
"null","","html-keyboard-response","589","1259422","0.0-8.0-2.2","","<div style=""font-size:60px;"">+</div>","null","","","","","","",""
"663.3000000000466","","image-keyboard-response","590","1260086","0.0-8.0-0.3","","img/red.png","32","trial","32","true","0.8,0.2","1:go_a","",""
"null","","html-keyboard-response","591","1261101","0.0-8.0-1.3","","<img src=""img/red-r.png"" border=""10"">","null","trial","32","","0.8,0.2","1:go_a","1",""
"null","","html-keyboard-response","592","1262117","0.0-8.0-2.3","","<div style=""font-size:60px;"">+</div>","null","","","","","","",""
"null","","image-keyboard-response","593","1263632","0.0-8.0-0.4","","img/pink.png","null","trial","null","true","0.4,0.6","4:nogo_d","",""
"null","","html-keyboard-response","594","1264649","0.0-8.0-1.4","","<img src=""img/pink-r.png"">","null","trial","null","","0.4,0.6","4:nogo_d","1",""
"null","","html-keyboard-response","595","1265657","0.0-8.0-2.4","","<div style=""font-size:60px;"">+</div>","null","","","","","","",""
"null","","image-keyboard-response","596","1267160","0.0-8.0-0.5","","img/blue.png","null","trial","null","true","0.2,0.8","2:nogo_b","",""
"null","","html-keyboard-response","597","1268163","0.0-8.0-1.5","","<img src=""img/blue-n.png"">","null","trial","null","","0.2,0.8","2:nogo_b","0",""
"null","","html-keyboard-response","598","1269178","0.0-8.0-2.5","","<div style=""font-size:60px;"">+</div>","null","","","","","","",""
"null","","image-keyboard-response","599","1270682","0.0-8.0-0.6","","img/purple.png","null","trial","32","false","0.6,0.4","3:go_c","",""
"null","","html-keyboard-response","600","1271688","0.0-8.0-1.6","","<img src=""img/purple-n.png"">","null","trial","32","","0.6,0.4","3:go_c","0",""
"null","","html-keyboard-response","601","1272691","0.0-8.0-2.6","","<div style=""font-size:60px;"">+</div>","null","","","","","","",""
"425.80000000004657","","image-keyboard-response","602","1273118","0.0-8.0-0.7","","img/red.png","32","trial","32","true","0.8,0.2","1:go_a","",""
"null","","html-keyboard-response","603","1274132","0.0-8.0-1.7","","<img src=""img/red-r.png"" border=""10"">","null","trial","32","","0.8,0.2","1:go_a","1",""
"null","","html-keyboard-response","604","1275144","0.0-8.0-2.7","","<div style=""font-size:60px;"">+</div>","null","","","","","","",""
"null","","image-keyboard-response","605","1276658","0.0-8.0-0.8","","img/purple.png","null","trial","32","false","0.6,0.4","3:go_c","",""
"null","","html-keyboard-response","606","1277665","0.0-8.0-1.8","","<img src=""img/purple-n.png"">","null","trial","32","","0.6,0.4","3:go_c","0",""
"null","","html-keyboard-response","607","1278682","0.0-8.0-2.8","","<div style=""font-size:60px;"">+</div>","null","","","","","","",""
"1019","","image-keyboard-response","608","1279702","0.0-8.0-0.9","","img/pink.png","32","trial","null","false","0.4,0.6","4:nogo_d","",""
"null","","html-keyboard-response","609","1280711","0.0-8.0-1.9","","<img src=""img/pink-n.png"" border=""10"">","null","trial","null","","0.4,0.6","4:nogo_d","0",""
"null","","html-keyboard-response","610","1281720","0.0-8.0-2.9","","<div style=""font-size:60px;"">+</div>","null","","","","","","",""
"null","","image-keyboard-response","611","1283222","0.0-8.0-0.10","","img/blue.png","null","trial","null","true","0.2,0.8","2:nogo_b","",""
"null","","html-keyboard-response","612","1284236","0.0-8.0-1.10","","<img src=""img/blue-r.png"">","null","trial","null","","0.2,0.8","2:nogo_b","1",""
"null","","html-keyboard-response","613","1285244","0.0-8.0-2.10","","<div style=""font-size:60px;"">+</div>","null","","","","","","",""
"560.4000000001397","","image-keyboard-response","614","1285806","0.0-8.0-0.11","","img/red.png","32","trial","32","true","0.8,0.2","1:go_a","",""
"null","","html-keyboard-response","615","1286820","0.0-8.0-1.11","","<img src=""img/red-r.png"" border=""10"">","null","trial","32","","0.8,0.2","1:go_a","1",""
"null","","html-keyboard-response","616","1287832","0.0-8.0-2.11","","<div style=""font-size:60px;"">+</div>","null","","","","","","",""
"null","","image-keyboard-response","617","1289334","0.0-8.0-0.12","","img/purple.png","null","trial","32","false","0.6,0.4","3:go_c","",""
"null","","html-keyboard-response","618","1290339","0.0-8.0-1.12","","<img src=""img/purple-r.png"">","null","trial","32","","0.6,0.4","3:go_c","1",""
"null","","html-keyboard-response","619","1291347","0.0-8.0-2.12","","<div style=""font-size:60px;"">+</div>","null","","","","","","",""
"625.8999999999069","","image-keyboard-response","620","1291974","0.0-8.0-0.13","","img/red.png","32","trial","32","true","0.8,0.2","1:go_a","",""
"null","","html-keyboard-response","621","1292986","0.0-8.0-1.13","","<img src=""img/red-r.png"" border=""10"">","null","trial","32","","0.8,0.2","1:go_a","1",""
"null","","html-keyboard-response","622","1293998","0.0-8.0-2.13","","<div style=""font-size:60px;"">+</div>","null","","","","","","",""
"687.3000000000466","","image-keyboard-response","623","1294686","0.0-8.0-0.14","","img/blue.png","32","trial","null","false","0.2,0.8","2:nogo_b","",""
"null","","html-keyboard-response","624","1295700","0.0-8.0-1.14","","<img src=""img/blue-n.png"" border=""10"">","null","trial","null","","0.2,0.8","2:nogo_b","0",""
"null","","html-keyboard-response","625","1296716","0.0-8.0-2.14","","<div style=""font-size:60px;"">+</div>","null","","","","","","",""
"null","","image-keyboard-response","626","1298227","0.0-8.0-0.15","","img/pink.png","null","trial","null","true","0.4,0.6","4:nogo_d","",""
"null","","html-keyboard-response","627","1299237","0.0-8.0-1.15","","<img src=""img/pink-r.png"">","null","trial","null","","0.4,0.6","4:nogo_d","1",""
"null","","html-keyboard-response","628","1300251","0.0-8.0-2.15","","<div style=""font-size:60px;"">+</div>","null","","","","","","",""
"1353.8999999999069","","image-keyboard-response","629","1301606","0.0-8.0-0.16","","img/blue.png","32","trial","null","false","0.2,0.8","2:nogo_b","",""
"null","","html-keyboard-response","630","1302620","0.0-8.0-1.16","","<img src=""img/blue-n.png"" border=""10"">","null","trial","null","","0.2,0.8","2:nogo_b","0",""
"null","","html-keyboard-response","631","1303626","0.0-8.0-2.16","","<div style=""font-size:60px;"">+</div>","null","","","","","","",""
"1027.2999999998137","","image-keyboard-response","632","1304654","0.0-8.0-0.17","","img/purple.png","32","trial","32","true","0.6,0.4","3:go_c","",""
"null","","html-keyboard-response","633","1305665","0.0-8.0-1.17","","<img src=""img/purple-n.png"" border=""10"">","null","trial","32","","0.6,0.4","3:go_c","0",""
"null","","html-keyboard-response","634","1306671","0.0-8.0-2.17","","<div style=""font-size:60px;"">+</div>","null","","","","","","",""
"854.7999999998137","","image-keyboard-response","635","1307527","0.0-8.0-0.18","","img/pink.png","32","trial","null","false","0.4,0.6","4:nogo_d","",""
"null","","html-keyboard-response","636","1308540","0.0-8.0-1.18","","<img src=""img/pink-n.png"" border=""10"">","null","trial","null","","0.4,0.6","4:nogo_d","0",""
"null","","html-keyboard-response","637","1309556","0.0-8.0-2.18","","<div style=""font-size:60px;"">+</div>","null","","","","","","",""
"386.20000000018626","","image-keyboard-response","638","1309943","0.0-8.0-0.19","","img/red.png","32","trial","32","true","0.8,0.2","1:go_a","",""
"null","","html-keyboard-response","639","1310946","0.0-8.0-1.19","","<img src=""img/red-r.png"" border=""10"">","null","trial","32","","0.8,0.2","1:go_a","1",""
"null","","html-keyboard-response","640","1311957","0.0-8.0-2.19","","<div style=""font-size:60px;"">+</div>","null","","","","","","",""
"800.5","","image-keyboard-response","641","1312758","0.0-8.0-0.20","","img/red.png","32","trial","32","true","0.8,0.2","1:go_a","",""
"null","","html-keyboard-response","642","1313774","0.0-8.0-1.20","","<img src=""img/red-r.png"" border=""10"">","null","trial","32","","0.8,0.2","1:go_a","1",""
"null","","html-keyboard-response","643","1314784","0.0-8.0-2.20","","<div style=""font-size:60px;"">+</div>","null","","","","","","",""
"822.5","","image-keyboard-response","644","1315608","0.0-8.0-0.21","","img/blue.png","32","trial","null","false","0.2,0.8","2:nogo_b","",""
"null","","html-keyboard-response","645","1316619","0.0-8.0-1.21","","<img src=""img/blue-n.png"" border=""10"">","null","trial","null","","0.2,0.8","2:nogo_b","0",""
"null","","html-keyboard-response","646","1317624","0.0-8.0-2.21","","<div style=""font-size:60px;"">+</div>","null","","","","","","",""
"null","","image-keyboard-response","647","1319135","0.0-8.0-0.22","","img/purple.png","null","trial","32","false","0.6,0.4","3:go_c","",""
"null","","html-keyboard-response","648","1320144","0.0-8.0-1.22","","<img src=""img/purple-n.png"">","null","trial","32","","0.6,0.4","3:go_c","0",""
"null","","html-keyboard-response","649","1321151","0.0-8.0-2.22","","<div style=""font-size:60px;"">+</div>","null","","","","","","",""
"863.8999999999069","","image-keyboard-response","650","1322016","0.0-8.0-0.23","","img/pink.png","32","trial","null","false","0.4,0.6","4:nogo_d","",""
"null","","html-keyboard-response","651","1323026","0.0-8.0-1.23","","<img src=""img/pink-n.png"" border=""10"">","null","trial","null","","0.4,0.6","4:nogo_d","0",""
"null","","html-keyboard-response","652","1324040","0.0-8.0-2.23","","<div style=""font-size:60px;"">+</div>","null","","","","","","",""
"398.10000000009313","","image-keyboard-response","653","1324439","0.0-8.0-0.24","","img/red.png","32","trial","32","true","0.8,0.2","1:go_a","",""
"null","","html-keyboard-response","654","1325448","0.0-8.0-1.24","","<img src=""img/red-n.png"" border=""10"">","null","trial","32","","0.8,0.2","1:go_a","0",""
"null","","html-keyboard-response","655","1326451","0.0-8.0-2.24","","<div style=""font-size:60px;"">+</div>","null","","","","","","",""
"null","","image-keyboard-response","656","1327963","0.0-8.0-0.25","","img/purple.png","null","trial","32","false","0.6,0.4","3:go_c","",""
"null","","html-keyboard-response","657","1328977","0.0-8.0-1.25","","<img src=""img/purple-r.png"">","null","trial","32","","0.6,0.4","3:go_c","1",""
"null","","html-keyboard-response","658","1329992","0.0-8.0-2.25","","<div style=""font-size:60px;"">+</div>","null","","","","","","",""
"885.3000000000466","","image-keyboard-response","659","1330879","0.0-8.0-0.26","","img/pink.png","32","trial","null","false","0.4,0.6","4:nogo_d","",""
"null","","html-keyboard-response","660","1331892","0.0-8.0-1.26","","<img src=""img/pink-n.png"" border=""10"">","null","trial","null","","0.4,0.6","4:nogo_d","0",""
"null","","html-keyboard-response","661","1332898","0.0-8.0-2.26","","<div style=""font-size:60px;"">+</div>","null","","","","","","",""
"1147.5","","image-keyboard-response","662","1334047","0.0-8.0-0.27","","img/blue.png","32","trial","null","false","0.2,0.8","2:nogo_b","",""
"null","","html-keyboard-response","663","1335055","0.0-8.0-1.27","","<img src=""img/blue-n.png"" border=""10"">","null","trial","null","","0.2,0.8","2:nogo_b","0",""
"null","","html-keyboard-response","664","1336072","0.0-8.0-2.27","","<div style=""font-size:60px;"">+</div>","null","","","","","","",""
"1198.3000000000466","","image-keyboard-response","665","1337271","0.0-8.0-0.28","","img/pink.png","32","trial","null","false","0.4,0.6","4:nogo_d","",""
"null","","html-keyboard-response","666","1338274","0.0-8.0-1.28","","<img src=""img/pink-r.png"" border=""10"">","null","trial","null","","0.4,0.6","4:nogo_d","1",""
"null","","html-keyboard-response","667","1339292","0.0-8.0-2.28","","<div style=""font-size:60px;"">+</div>","null","","","","","","",""
"426","","image-keyboard-response","668","1339719","0.0-8.0-0.29","","img/red.png","32","trial","32","true","0.8,0.2","1:go_a","",""
"null","","html-keyboard-response","669","1340730","0.0-8.0-1.29","","<img src=""img/red-n.png"" border=""10"">","null","trial","32","","0.8,0.2","1:go_a","0",""
"null","","html-keyboard-response","670","1341737","0.0-8.0-2.29","","<div style=""font-size:60px;"">+</div>","null","","","","","","",""
"null","","image-keyboard-response","671","1343247","0.0-8.0-0.30","","img/purple.png","null","trial","32","false","0.6,0.4","3:go_c","",""
"null","","html-keyboard-response","672","1344258","0.0-8.0-1.30","","<img src=""img/purple-n.png"">","null","trial","32","","0.6,0.4","3:go_c","0",""
"null","","html-keyboard-response","673","1345259","0.0-8.0-2.30","","<div style=""font-size:60px;"">+</div>","null","","","","","","",""
"915","","image-keyboard-response","674","1346175","0.0-8.0-0.31","","img/blue.png","32","trial","null","false","0.2,0.8","2:nogo_b","",""
"null","","html-keyboard-response","675","1347178","0.0-8.0-1.31","","<img src=""img/blue-n.png"" border=""10"">","null","trial","null","","0.2,0.8","2:nogo_b","0",""
"null","","html-keyboard-response","676","1348180","0.0-8.0-2.31","","<div style=""font-size:60px;"">+</div>","null","","","","","","",""
"null","","image-keyboard-response","677","1349687","0.0-8.0-0.32","","img/blue.png","null","trial","null","true","0.2,0.8","2:nogo_b","",""
"null","","html-keyboard-response","678","1350695","0.0-8.0-1.32","","<img src=""img/blue-r.png"">","null","trial","null","","0.2,0.8","2:nogo_b","1",""
"null","","html-keyboard-response","679","1351711","0.0-8.0-2.32","","<div style=""font-size:60px;"">+</div>","null","","","","","","",""
