"rt","url","trial_type","trial_index","time_elapsed","internal_node_id","view_history","stimulus","key_press","test_part","correct_response","correct","use_rew","which_stim","reward","responses"
"204154","consent.html","external-html","0","204338","0.0-0.0","","","","","","","","","",""
"99877","","instructions","1","304218","0.0-1.0","[{""page_index"":0,""viewing_time"":3811},{""page_index"":1,""viewing_time"":20283},{""page_index"":2,""viewing_time"":8340},{""page_index"":3,""viewing_time"":20877},{""page_index"":4,""viewing_time"":35246},{""page_index"":5,""viewing_time"":7557},{""page_index"":6,""viewing_time"":3763}]","","","","","","","","",""
"null","","image-keyboard-response","2","305729","0.0-2.0-0.0","","img/test3.PNG","null","practice","null","true","","","",""
"null","","html-keyboard-response","3","306735","0.0-2.0-1.0","","<img src=""img/test3-reward.PNG"">","null","","","","","","",""
"null","","html-keyboard-response","4","307739","0.0-2.0-2.0","","<div style=""font-size:60px;"">+</div>","null","","","","","","",""
"null","","image-keyboard-response","5","309245","0.0-2.0-0.1","","img/test2.PNG","null","practice","null","true","","","",""
"null","","html-keyboard-response","6","310257","0.0-2.0-1.1","","<img src=""img/test2-reward.PNG"">","null","","","","","","",""
"null","","html-keyboard-response","7","311264","0.0-2.0-2.1","","<div style=""font-size:60px;"">+</div>","null","","","","","","",""
"672","","image-keyboard-response","8","311938","0.0-2.0-0.2","","img/test1.PNG","32","practice","32","true","","","",""
"null","","html-keyboard-response","9","312947","0.0-2.0-1.2","","<img src=""img/test1-reward.PNG"" border=""10px; grey"">","null","","","","","","",""
"null","","html-keyboard-response","10","313958","0.0-2.0-2.2","","<div style=""font-size:60px;"">+</div>","null","","","","","","",""
"501","","image-keyboard-response","11","314459","0.0-2.0-0.3","","img/test2.PNG","32","practice","null","false","","","",""
"null","","html-keyboard-response","12","315471","0.0-2.0-1.3","","<img src=""img/test2-neutral.PNG"" border=""10px; grey"">","null","","","","","","",""
"null","","html-keyboard-response","13","316476","0.0-2.0-2.3","","<div style=""font-size:60px;"">+</div>","null","","","","","","",""
"449","","image-keyboard-response","14","316925","0.0-2.0-0.4","","img/test1.PNG","32","practice","32","true","","","",""
"null","","html-keyboard-response","15","317938","0.0-2.0-1.4","","<img src=""img/test1-reward.PNG"" border=""10px; grey"">","null","","","","","","",""
"null","","html-keyboard-response","16","318943","0.0-2.0-2.4","","<div style=""font-size:60px;"">+</div>","null","","","","","","",""
"494","","image-keyboard-response","17","319436","0.0-2.0-0.5","","img/test3.PNG","32","practice","null","false","","","",""
"null","","html-keyboard-response","18","320447","0.0-2.0-1.5","","<img src=""img/test3-neutral.PNG"" border=""10px; grey"">","null","","","","","","",""
"null","","html-keyboard-response","19","321456","0.0-2.0-2.5","","<div style=""font-size:60px;"">+</div>","null","","","","","","",""
"630","","image-keyboard-response","20","322087","0.0-2.0-0.6","","img/test2.PNG","32","practice","null","false","","","",""
"null","","html-keyboard-response","21","323098","0.0-2.0-1.6","","<img src=""img/test2-neutral.PNG"" border=""10px; grey"">","null","","","","","","",""
"null","","html-keyboard-response","22","324111","0.0-2.0-2.6","","<div style=""font-size:60px;"">+</div>","null","","","","","","",""
"443","","image-keyboard-response","23","324554","0.0-2.0-0.7","","img/test1.PNG","32","practice","32","true","","","",""
"null","","html-keyboard-response","24","325560","0.0-2.0-1.7","","<img src=""img/test1-reward.PNG"" border=""10px; grey"">","null","","","","","","",""
"null","","html-keyboard-response","25","326565","0.0-2.0-2.7","","<div style=""font-size:60px;"">+</div>","null","","","","","","",""
"602","","image-keyboard-response","26","327169","0.0-2.0-0.8","","img/test3.PNG","32","practice","null","false","","","",""
"null","","html-keyboard-response","27","328173","0.0-2.0-1.8","","<img src=""img/test3-neutral.PNG"" border=""10px; grey"">","null","","","","","","",""
"null","","html-keyboard-response","28","329176","0.0-2.0-2.8","","<div style=""font-size:60px;"">+</div>","null","","","","","","",""
"null","","image-keyboard-response","29","330687","0.0-2.0-0.9","","img/test2.PNG","null","practice","null","true","","","",""
"null","","html-keyboard-response","30","331700","0.0-2.0-1.9","","<img src=""img/test2-reward.PNG"">","null","","","","","","",""
"null","","html-keyboard-response","31","332705","0.0-2.0-2.9","","<div style=""font-size:60px;"">+</div>","null","","","","","","",""
"423","","image-keyboard-response","32","333129","0.0-2.0-0.10","","img/test1.PNG","32","practice","32","true","","","",""
"null","","html-keyboard-response","33","334141","0.0-2.0-1.10","","<img src=""img/test1-reward.PNG"" border=""10px; grey"">","null","","","","","","",""
"null","","html-keyboard-response","34","335147","0.0-2.0-2.10","","<div style=""font-size:60px;"">+</div>","null","","","","","","",""
"null","","image-keyboard-response","35","336650","0.0-2.0-0.11","","img/test3.PNG","null","practice","null","true","","","",""
"null","","html-keyboard-response","36","337663","0.0-2.0-1.11","","<img src=""img/test3-reward.PNG"">","null","","","","","","",""
"null","","html-keyboard-response","37","338670","0.0-2.0-2.11","","<div style=""font-size:60px;"">+</div>","null","","","","","","",""
"2468","","instructions","38","341138","0.0-3.0","[{""page_index"":0,""viewing_time"":2467}]","","","","","","","","",""
"736","","image-keyboard-response","39","341874","0.0-4.0-0.0","","img/purple.png","32","trial","32","true","0.8,0.2","1:go_a","",""
"null","","html-keyboard-response","40","342878","0.0-4.0-1.0","","<img src=""img/purple-r.png"" border=""10"">","null","trial","32","","0.8,0.2","1:go_a","1",""
"null","","html-keyboard-response","41","343890","0.0-4.0-2.0","","<div style=""font-size:60px;"">+</div>","null","","","","","","",""
"459","","image-keyboard-response","42","344351","0.0-4.0-0.1","","img/yellow.png","32","trial","null","false","0.2,0.8","2:nogo_b","",""
"null","","html-keyboard-response","43","345352","0.0-4.0-1.1","","<img src=""img/yellow-n.png"" border=""10"">","null","trial","null","","0.2,0.8","2:nogo_b","0",""
"null","","html-keyboard-response","44","346364","0.0-4.0-2.1","","<div style=""font-size:60px;"">+</div>","null","","","","","","",""
"577","","image-keyboard-response","45","346941","0.0-4.0-0.2","","img/purple.png","32","trial","32","true","0.8,0.2","1:go_a","",""
"null","","html-keyboard-response","46","347957","0.0-4.0-1.2","","<img src=""img/purple-r.png"" border=""10"">","null","trial","32","","0.8,0.2","1:go_a","1",""
"null","","html-keyboard-response","47","348960","0.0-4.0-2.2","","<div style=""font-size:60px;"">+</div>","null","","","","","","",""
"null","","image-keyboard-response","48","350464","0.0-4.0-0.3","","img/yellow.png","null","trial","null","true","0.2,0.8","2:nogo_b","",""
"null","","html-keyboard-response","49","351470","0.0-4.0-1.3","","<img src=""img/yellow-n.png"">","null","trial","null","","0.2,0.8","2:nogo_b","0",""
"null","","html-keyboard-response","50","352479","0.0-4.0-2.3","","<div style=""font-size:60px;"">+</div>","null","","","","","","",""
"406","","image-keyboard-response","51","352885","0.0-4.0-0.4","","img/yellow.png","32","trial","null","false","0.2,0.8","2:nogo_b","",""
"null","","html-keyboard-response","52","353896","0.0-4.0-1.4","","<img src=""img/yellow-r.png"" border=""10"">","null","trial","null","","0.2,0.8","2:nogo_b","1",""
"null","","html-keyboard-response","53","354897","0.0-4.0-2.4","","<div style=""font-size:60px;"">+</div>","null","","","","","","",""
"383","","image-keyboard-response","54","355282","0.0-4.0-0.5","","img/purple.png","32","trial","32","true","0.8,0.2","1:go_a","",""
"null","","html-keyboard-response","55","356298","0.0-4.0-1.5","","<img src=""img/purple-r.png"" border=""10"">","null","trial","32","","0.8,0.2","1:go_a","1",""
"null","","html-keyboard-response","56","357310","0.0-4.0-2.5","","<div style=""font-size:60px;"">+</div>","null","","","","","","",""
"null","","image-keyboard-response","57","358813","0.0-4.0-0.6","","img/yellow.png","null","trial","null","true","0.2,0.8","2:nogo_b","",""
"null","","html-keyboard-response","58","359828","0.0-4.0-1.6","","<img src=""img/yellow-r.png"">","null","trial","null","","0.2,0.8","2:nogo_b","1",""
"null","","html-keyboard-response","59","360833","0.0-4.0-2.6","","<div style=""font-size:60px;"">+</div>","null","","","","","","",""
"407","","image-keyboard-response","60","361240","0.0-4.0-0.7","","img/purple.png","32","trial","32","true","0.8,0.2","1:go_a","",""
"null","","html-keyboard-response","61","362253","0.0-4.0-1.7","","<img src=""img/purple-r.png"" border=""10"">","null","trial","32","","0.8,0.2","1:go_a","1",""
"null","","html-keyboard-response","62","363257","0.0-4.0-2.7","","<div style=""font-size:60px;"">+</div>","null","","","","","","",""
"549","","image-keyboard-response","63","363806","0.0-4.0-0.8","","img/purple.png","32","trial","32","true","0.8,0.2","1:go_a","",""
"null","","html-keyboard-response","64","364815","0.0-4.0-1.8","","<img src=""img/purple-r.png"" border=""10"">","null","trial","32","","0.8,0.2","1:go_a","1",""
"null","","html-keyboard-response","65","365816","0.0-4.0-2.8","","<div style=""font-size:60px;"">+</div>","null","","","","","","",""
"487","","image-keyboard-response","66","366303","0.0-4.0-0.9","","img/yellow.png","32","trial","null","false","0.2,0.8","2:nogo_b","",""
"null","","html-keyboard-response","67","367312","0.0-4.0-1.9","","<img src=""img/yellow-n.png"" border=""10"">","null","trial","null","","0.2,0.8","2:nogo_b","0",""
"null","","html-keyboard-response","68","368317","0.0-4.0-2.9","","<div style=""font-size:60px;"">+</div>","null","","","","","","",""
"637","","image-keyboard-response","69","368954","0.0-4.0-0.10","","img/yellow.png","32","trial","null","false","0.2,0.8","2:nogo_b","",""
"null","","html-keyboard-response","70","369967","0.0-4.0-1.10","","<img src=""img/yellow-n.png"" border=""10"">","null","trial","null","","0.2,0.8","2:nogo_b","0",""
"null","","html-keyboard-response","71","370974","0.0-4.0-2.10","","<div style=""font-size:60px;"">+</div>","null","","","","","","",""
"475","","image-keyboard-response","72","371450","0.0-4.0-0.11","","img/purple.png","32","trial","32","true","0.8,0.2","1:go_a","",""
"null","","html-keyboard-response","73","372454","0.0-4.0-1.11","","<img src=""img/purple-r.png"" border=""10"">","null","trial","32","","0.8,0.2","1:go_a","1",""
"null","","html-keyboard-response","74","373469","0.0-4.0-2.11","","<div style=""font-size:60px;"">+</div>","null","","","","","","",""
"null","","image-keyboard-response","75","374971","0.0-4.0-0.12","","img/yellow.png","null","trial","null","true","0.2,0.8","2:nogo_b","",""
"null","","html-keyboard-response","76","375982","0.0-4.0-1.12","","<img src=""img/yellow-r.png"">","null","trial","null","","0.2,0.8","2:nogo_b","1",""
"null","","html-keyboard-response","77","376987","0.0-4.0-2.12","","<div style=""font-size:60px;"">+</div>","null","","","","","","",""
"417","","image-keyboard-response","78","377404","0.0-4.0-0.13","","img/purple.png","32","trial","32","true","0.8,0.2","1:go_a","",""
"null","","html-keyboard-response","79","378419","0.0-4.0-1.13","","<img src=""img/purple-r.png"" border=""10"">","null","trial","32","","0.8,0.2","1:go_a","1",""
"null","","html-keyboard-response","80","379429","0.0-4.0-2.13","","<div style=""font-size:60px;"">+</div>","null","","","","","","",""
"456","","image-keyboard-response","81","379885","0.0-4.0-0.14","","img/purple.png","32","trial","32","true","0.8,0.2","1:go_a","",""
"null","","html-keyboard-response","82","380897","0.0-4.0-1.14","","<img src=""img/purple-r.png"" border=""10"">","null","trial","32","","0.8,0.2","1:go_a","1",""
"null","","html-keyboard-response","83","381906","0.0-4.0-2.14","","<div style=""font-size:60px;"">+</div>","null","","","","","","",""
"null","","image-keyboard-response","84","383412","0.0-4.0-0.15","","img/yellow.png","null","trial","null","true","0.2,0.8","2:nogo_b","",""
"null","","html-keyboard-response","85","384425","0.0-4.0-1.15","","<img src=""img/yellow-r.png"">","null","trial","null","","0.2,0.8","2:nogo_b","1",""
"null","","html-keyboard-response","86","385441","0.0-4.0-2.15","","<div style=""font-size:60px;"">+</div>","null","","","","","","",""
"739","","image-keyboard-response","87","386180","0.0-4.0-0.16","","img/yellow.png","32","trial","null","false","0.2,0.8","2:nogo_b","",""
"null","","html-keyboard-response","88","387190","0.0-4.0-1.16","","<img src=""img/yellow-n.png"" border=""10"">","null","trial","null","","0.2,0.8","2:nogo_b","0",""
"null","","html-keyboard-response","89","388197","0.0-4.0-2.16","","<div style=""font-size:60px;"">+</div>","null","","","","","","",""
"533","","image-keyboard-response","90","388731","0.0-4.0-0.17","","img/purple.png","32","trial","32","true","0.8,0.2","1:go_a","",""
"null","","html-keyboard-response","91","389742","0.0-4.0-1.17","","<img src=""img/purple-r.png"" border=""10"">","null","trial","32","","0.8,0.2","1:go_a","1",""
"null","","html-keyboard-response","92","390749","0.0-4.0-2.17","","<div style=""font-size:60px;"">+</div>","null","","","","","","",""
"null","","image-keyboard-response","93","392252","0.0-4.0-0.18","","img/yellow.png","null","trial","null","true","0.2,0.8","2:nogo_b","",""
"null","","html-keyboard-response","94","393253","0.0-4.0-1.18","","<img src=""img/yellow-r.png"">","null","trial","null","","0.2,0.8","2:nogo_b","1",""
"null","","html-keyboard-response","95","394268","0.0-4.0-2.18","","<div style=""font-size:60px;"">+</div>","null","","","","","","",""
"422","","image-keyboard-response","96","394690","0.0-4.0-0.19","","img/purple.png","32","trial","32","true","0.8,0.2","1:go_a","",""
"null","","html-keyboard-response","97","395705","0.0-4.0-1.19","","<img src=""img/purple-r.png"" border=""10"">","null","trial","32","","0.8,0.2","1:go_a","1",""
"null","","html-keyboard-response","98","396707","0.0-4.0-2.19","","<div style=""font-size:60px;"">+</div>","null","","","","","","",""
"337","","image-keyboard-response","99","397045","0.0-4.0-0.20","","img/yellow.png","32","trial","null","false","0.2,0.8","2:nogo_b","",""
"null","","html-keyboard-response","100","398050","0.0-4.0-1.20","","<img src=""img/yellow-n.png"" border=""10"">","null","trial","null","","0.2,0.8","2:nogo_b","0",""
"null","","html-keyboard-response","101","399052","0.0-4.0-2.20","","<div style=""font-size:60px;"">+</div>","null","","","","","","",""
"374","","image-keyboard-response","102","399426","0.0-4.0-0.21","","img/purple.png","32","trial","32","true","0.8,0.2","1:go_a","",""
"null","","html-keyboard-response","103","400440","0.0-4.0-1.21","","<img src=""img/purple-r.png"" border=""10"">","null","trial","32","","0.8,0.2","1:go_a","1",""
"null","","html-keyboard-response","104","401455","0.0-4.0-2.21","","<div style=""font-size:60px;"">+</div>","null","","","","","","",""
"517","","image-keyboard-response","105","401972","0.0-4.0-0.22","","img/yellow.png","32","trial","null","false","0.2,0.8","2:nogo_b","",""
"null","","html-keyboard-response","106","402989","0.0-4.0-1.22","","<img src=""img/yellow-n.png"" border=""10"">","null","trial","null","","0.2,0.8","2:nogo_b","0",""
"null","","html-keyboard-response","107","404000","0.0-4.0-2.22","","<div style=""font-size:60px;"">+</div>","null","","","","","","",""
"363","","image-keyboard-response","108","404363","0.0-4.0-0.23","","img/purple.png","32","trial","32","true","0.8,0.2","1:go_a","",""
"null","","html-keyboard-response","109","405378","0.0-4.0-1.23","","<img src=""img/purple-r.png"" border=""10"">","null","trial","32","","0.8,0.2","1:go_a","1",""
"null","","html-keyboard-response","110","406385","0.0-4.0-2.23","","<div style=""font-size:60px;"">+</div>","null","","","","","","",""
"548","","image-keyboard-response","111","406933","0.0-4.0-0.24","","img/purple.png","32","trial","32","true","0.8,0.2","1:go_a","",""
"null","","html-keyboard-response","112","407945","0.0-4.0-1.24","","<img src=""img/purple-r.png"" border=""10"">","null","trial","32","","0.8,0.2","1:go_a","1",""
"null","","html-keyboard-response","113","408955","0.0-4.0-2.24","","<div style=""font-size:60px;"">+</div>","null","","","","","","",""
"null","","image-keyboard-response","114","410470","0.0-4.0-0.25","","img/yellow.png","null","trial","null","true","0.2,0.8","2:nogo_b","",""
"null","","html-keyboard-response","115","411478","0.0-4.0-1.25","","<img src=""img/yellow-r.png"">","null","trial","null","","0.2,0.8","2:nogo_b","1",""
"null","","html-keyboard-response","116","412491","0.0-4.0-2.25","","<div style=""font-size:60px;"">+</div>","null","","","","","","",""
"577","","image-keyboard-response","117","413068","0.0-4.0-0.26","","img/yellow.png","32","trial","null","false","0.2,0.8","2:nogo_b","",""
"null","","html-keyboard-response","118","414074","0.0-4.0-1.26","","<img src=""img/yellow-r.png"" border=""10"">","null","trial","null","","0.2,0.8","2:nogo_b","1",""
"null","","html-keyboard-response","119","415083","0.0-4.0-2.26","","<div style=""font-size:60px;"">+</div>","null","","","","","","",""
"426","","image-keyboard-response","120","415509","0.0-4.0-0.27","","img/purple.png","32","trial","32","true","0.8,0.2","1:go_a","",""
"null","","html-keyboard-response","121","416515","0.0-4.0-1.27","","<img src=""img/purple-n.png"" border=""10"">","null","trial","32","","0.8,0.2","1:go_a","0",""
"null","","html-keyboard-response","122","417516","0.0-4.0-2.27","","<div style=""font-size:60px;"">+</div>","null","","","","","","",""
"398","","image-keyboard-response","123","417915","0.0-4.0-0.28","","img/yellow.png","32","trial","null","false","0.2,0.8","2:nogo_b","",""
"null","","html-keyboard-response","124","418923","0.0-4.0-1.28","","<img src=""img/yellow-n.png"" border=""10"">","null","trial","null","","0.2,0.8","2:nogo_b","0",""
"null","","html-keyboard-response","125","419926","0.0-4.0-2.28","","<div style=""font-size:60px;"">+</div>","null","","","","","","",""
"470","","image-keyboard-response","126","420396","0.0-4.0-0.29","","img/purple.png","32","trial","32","true","0.8,0.2","1:go_a","",""
"null","","html-keyboard-response","127","421405","0.0-4.0-1.29","","<img src=""img/purple-r.png"" border=""10"">","null","trial","32","","0.8,0.2","1:go_a","1",""
"null","","html-keyboard-response","128","422414","0.0-4.0-2.29","","<div style=""font-size:60px;"">+</div>","null","","","","","","",""
"393","","image-keyboard-response","129","422807","0.0-4.0-0.30","","img/purple.png","32","trial","32","true","0.8,0.2","1:go_a","",""
"null","","html-keyboard-response","130","423822","0.0-4.0-1.30","","<img src=""img/purple-r.png"" border=""10"">","null","trial","32","","0.8,0.2","1:go_a","1",""
"null","","html-keyboard-response","131","424826","0.0-4.0-2.30","","<div style=""font-size:60px;"">+</div>","null","","","","","","",""
"null","","image-keyboard-response","132","426328","0.0-4.0-0.31","","img/yellow.png","null","trial","null","true","0.2,0.8","2:nogo_b","",""
"null","","html-keyboard-response","133","427330","0.0-4.0-1.31","","<img src=""img/yellow-r.png"">","null","trial","null","","0.2,0.8","2:nogo_b","1",""
"null","","html-keyboard-response","134","428342","0.0-4.0-2.31","","<div style=""font-size:60px;"">+</div>","null","","","","","","",""
"608","","image-keyboard-response","135","428951","0.0-4.0-0.32","","img/yellow.png","32","trial","null","false","0.2,0.8","2:nogo_b","",""
"null","","html-keyboard-response","136","429959","0.0-4.0-1.32","","<img src=""img/yellow-r.png"" border=""10"">","null","trial","null","","0.2,0.8","2:nogo_b","1",""
"null","","html-keyboard-response","137","430972","0.0-4.0-2.32","","<div style=""font-size:60px;"">+</div>","null","","","","","","",""
"450","","image-keyboard-response","138","431422","0.0-4.0-0.33","","img/purple.png","32","trial","32","true","0.8,0.2","1:go_a","",""
"null","","html-keyboard-response","139","432427","0.0-4.0-1.33","","<img src=""img/purple-r.png"" border=""10"">","null","trial","32","","0.8,0.2","1:go_a","1",""
"null","","html-keyboard-response","140","433442","0.0-4.0-2.33","","<div style=""font-size:60px;"">+</div>","null","","","","","","",""
"485","","image-keyboard-response","141","433928","0.0-4.0-0.34","","img/purple.png","32","trial","32","true","0.8,0.2","1:go_a","",""
"null","","html-keyboard-response","142","434943","0.0-4.0-1.34","","<img src=""img/purple-r.png"" border=""10"">","null","trial","32","","0.8,0.2","1:go_a","1",""
"null","","html-keyboard-response","143","435951","0.0-4.0-2.34","","<div style=""font-size:60px;"">+</div>","null","","","","","","",""
"808","","image-keyboard-response","144","436760","0.0-4.0-0.35","","img/yellow.png","32","trial","null","false","0.2,0.8","2:nogo_b","",""
"null","","html-keyboard-response","145","437766","0.0-4.0-1.35","","<img src=""img/yellow-n.png"" border=""10"">","null","trial","null","","0.2,0.8","2:nogo_b","0",""
"null","","html-keyboard-response","146","438770","0.0-4.0-2.35","","<div style=""font-size:60px;"">+</div>","null","","","","","","",""
"471","","image-keyboard-response","147","439241","0.0-4.0-0.36","","img/purple.png","32","trial","32","true","0.8,0.2","1:go_a","",""
"null","","html-keyboard-response","148","440255","0.0-4.0-1.36","","<img src=""img/purple-n.png"" border=""10"">","null","trial","32","","0.8,0.2","1:go_a","0",""
"null","","html-keyboard-response","149","441269","0.0-4.0-2.36","","<div style=""font-size:60px;"">+</div>","null","","","","","","",""
"538","","image-keyboard-response","150","441807","0.0-4.0-0.37","","img/yellow.png","32","trial","null","false","0.2,0.8","2:nogo_b","",""
"null","","html-keyboard-response","151","442809","0.0-4.0-1.37","","<img src=""img/yellow-r.png"" border=""10"">","null","trial","null","","0.2,0.8","2:nogo_b","1",""
"null","","html-keyboard-response","152","443816","0.0-4.0-2.37","","<div style=""font-size:60px;"">+</div>","null","","","","","","",""
"null","","image-keyboard-response","153","445322","0.0-4.0-0.38","","img/yellow.png","null","trial","null","true","0.2,0.8","2:nogo_b","",""
"null","","html-keyboard-response","154","446327","0.0-4.0-1.38","","<img src=""img/yellow-r.png"">","null","trial","null","","0.2,0.8","2:nogo_b","1",""
"null","","html-keyboard-response","155","447337","0.0-4.0-2.38","","<div style=""font-size:60px;"">+</div>","null","","","","","","",""
"373","","image-keyboard-response","156","447711","0.0-4.0-0.39","","img/purple.png","32","trial","32","true","0.8,0.2","1:go_a","",""
"null","","html-keyboard-response","157","448711","0.0-4.0-1.39","","<img src=""img/purple-r.png"" border=""10"">","null","trial","32","","0.8,0.2","1:go_a","1",""
"null","","html-keyboard-response","158","449722","0.0-4.0-2.39","","<div style=""font-size:60px;"">+</div>","null","","","","","","",""
"null","","image-keyboard-response","159","451224","0.0-4.0-0.40","","img/yellow.png","null","trial","null","true","0.2,0.8","2:nogo_b","",""
"null","","html-keyboard-response","160","452233","0.0-4.0-1.40","","<img src=""img/yellow-r.png"">","null","trial","null","","0.2,0.8","2:nogo_b","1",""
"null","","html-keyboard-response","161","453240","0.0-4.0-2.40","","<div style=""font-size:60px;"">+</div>","null","","","","","","",""
"444","","image-keyboard-response","162","453685","0.0-4.0-0.41","","img/purple.png","32","trial","32","true","0.8,0.2","1:go_a","",""
"null","","html-keyboard-response","163","454698","0.0-4.0-1.41","","<img src=""img/purple-r.png"" border=""10"">","null","trial","32","","0.8,0.2","1:go_a","1",""
"null","","html-keyboard-response","164","455705","0.0-4.0-2.41","","<div style=""font-size:60px;"">+</div>","null","","","","","","",""
"380","","image-keyboard-response","165","456085","0.0-4.0-0.42","","img/purple.png","32","trial","32","true","0.8,0.2","1:go_a","",""
"null","","html-keyboard-response","166","457090","0.0-4.0-1.42","","<img src=""img/purple-r.png"" border=""10"">","null","trial","32","","0.8,0.2","1:go_a","1",""
"null","","html-keyboard-response","167","458099","0.0-4.0-2.42","","<div style=""font-size:60px;"">+</div>","null","","","","","","",""
"473","","image-keyboard-response","168","458571","0.0-4.0-0.43","","img/yellow.png","32","trial","null","false","0.2,0.8","2:nogo_b","",""
"null","","html-keyboard-response","169","459584","0.0-4.0-1.43","","<img src=""img/yellow-n.png"" border=""10"">","null","trial","null","","0.2,0.8","2:nogo_b","0",""
"null","","html-keyboard-response","170","460587","0.0-4.0-2.43","","<div style=""font-size:60px;"">+</div>","null","","","","","","",""
"531","","image-keyboard-response","171","461118","0.0-4.0-0.44","","img/purple.png","32","trial","32","true","0.8,0.2","1:go_a","",""
"null","","html-keyboard-response","172","462119","0.0-4.0-1.44","","<img src=""img/purple-r.png"" border=""10"">","null","trial","32","","0.8,0.2","1:go_a","1",""
"null","","html-keyboard-response","173","463127","0.0-4.0-2.44","","<div style=""font-size:60px;"">+</div>","null","","","","","","",""
"null","","image-keyboard-response","174","464632","0.0-4.0-0.45","","img/yellow.png","null","trial","null","true","0.2,0.8","2:nogo_b","",""
"null","","html-keyboard-response","175","465639","0.0-4.0-1.45","","<img src=""img/yellow-r.png"">","null","trial","null","","0.2,0.8","2:nogo_b","1",""
"null","","html-keyboard-response","176","466645","0.0-4.0-2.45","","<div style=""font-size:60px;"">+</div>","null","","","","","","",""
"759","","image-keyboard-response","177","467403","0.0-4.0-0.46","","img/yellow.png","32","trial","null","false","0.2,0.8","2:nogo_b","",""
"null","","html-keyboard-response","178","468416","0.0-4.0-1.46","","<img src=""img/yellow-n.png"" border=""10"">","null","trial","null","","0.2,0.8","2:nogo_b","0",""
"null","","html-keyboard-response","179","469427","0.0-4.0-2.46","","<div style=""font-size:60px;"">+</div>","null","","","","","","",""
"420","","image-keyboard-response","180","469848","0.0-4.0-0.47","","img/purple.png","32","trial","32","true","0.8,0.2","1:go_a","",""
"null","","html-keyboard-response","181","470859","0.0-4.0-1.47","","<img src=""img/purple-r.png"" border=""10"">","null","trial","32","","0.8,0.2","1:go_a","1",""
"null","","html-keyboard-response","182","471868","0.0-4.0-2.47","","<div style=""font-size:60px;"">+</div>","null","","","","","","",""
"null","","image-keyboard-response","183","473381","0.0-4.0-0.48","","img/yellow.png","null","trial","null","true","0.2,0.8","2:nogo_b","",""
"null","","html-keyboard-response","184","474388","0.0-4.0-1.48","","<img src=""img/yellow-r.png"">","null","trial","null","","0.2,0.8","2:nogo_b","1",""
"null","","html-keyboard-response","185","475390","0.0-4.0-2.48","","<div style=""font-size:60px;"">+</div>","null","","","","","","",""
"407","","image-keyboard-response","186","475798","0.0-4.0-0.49","","img/purple.png","32","trial","32","true","0.8,0.2","1:go_a","",""
"null","","html-keyboard-response","187","476811","0.0-4.0-1.49","","<img src=""img/purple-r.png"" border=""10"">","null","trial","32","","0.8,0.2","1:go_a","1",""
"null","","html-keyboard-response","188","477826","0.0-4.0-2.49","","<div style=""font-size:60px;"">+</div>","null","","","","","","",""
"null","","image-keyboard-response","189","479327","0.0-4.0-0.50","","img/yellow.png","null","trial","null","true","0.2,0.8","2:nogo_b","",""
"null","","html-keyboard-response","190","480333","0.0-4.0-1.50","","<img src=""img/yellow-n.png"">","null","trial","null","","0.2,0.8","2:nogo_b","0",""
"null","","html-keyboard-response","191","481348","0.0-4.0-2.50","","<div style=""font-size:60px;"">+</div>","null","","","","","","",""
"429","","image-keyboard-response","192","481777","0.0-4.0-0.51","","img/purple.png","32","trial","32","true","0.8,0.2","1:go_a","",""
"null","","html-keyboard-response","193","482778","0.0-4.0-1.51","","<img src=""img/purple-r.png"" border=""10"">","null","trial","32","","0.8,0.2","1:go_a","1",""
"null","","html-keyboard-response","194","483783","0.0-4.0-2.51","","<div style=""font-size:60px;"">+</div>","null","","","","","","",""
"414","","image-keyboard-response","195","484198","0.0-4.0-0.52","","img/purple.png","32","trial","32","true","0.8,0.2","1:go_a","",""
"null","","html-keyboard-response","196","485199","0.0-4.0-1.52","","<img src=""img/purple-r.png"" border=""10"">","null","trial","32","","0.8,0.2","1:go_a","1",""
"null","","html-keyboard-response","197","486207","0.0-4.0-2.52","","<div style=""font-size:60px;"">+</div>","null","","","","","","",""
"null","","image-keyboard-response","198","487707","0.0-4.0-0.53","","img/yellow.png","null","trial","null","true","0.2,0.8","2:nogo_b","",""
"null","","html-keyboard-response","199","488710","0.0-4.0-1.53","","<img src=""img/yellow-r.png"">","null","trial","null","","0.2,0.8","2:nogo_b","1",""
"null","","html-keyboard-response","200","489724","0.0-4.0-2.53","","<div style=""font-size:60px;"">+</div>","null","","","","","","",""
"446","","image-keyboard-response","201","490172","0.0-4.0-0.54","","img/purple.png","32","trial","32","true","0.8,0.2","1:go_a","",""
"null","","html-keyboard-response","202","491177","0.0-4.0-1.54","","<img src=""img/purple-n.png"" border=""10"">","null","trial","32","","0.8,0.2","1:go_a","0",""
"null","","html-keyboard-response","203","492192","0.0-4.0-2.54","","<div style=""font-size:60px;"">+</div>","null","","","","","","",""
"424","","image-keyboard-response","204","492618","0.0-4.0-0.55","","img/yellow.png","32","trial","null","false","0.2,0.8","2:nogo_b","",""
"null","","html-keyboard-response","205","493621","0.0-4.0-1.55","","<img src=""img/yellow-n.png"" border=""10"">","null","trial","null","","0.2,0.8","2:nogo_b","0",""
"null","","html-keyboard-response","206","494625","0.0-4.0-2.55","","<div style=""font-size:60px;"">+</div>","null","","","","","","",""
"553","","image-keyboard-response","207","495179","0.0-4.0-0.56","","img/purple.png","32","trial","32","true","0.8,0.2","1:go_a","",""
"null","","html-keyboard-response","208","496191","0.0-4.0-1.56","","<img src=""img/purple-n.png"" border=""10"">","null","trial","32","","0.8,0.2","1:go_a","0",""
"null","","html-keyboard-response","209","497193","0.0-4.0-2.56","","<div style=""font-size:60px;"">+</div>","null","","","","","","",""
"435","","image-keyboard-response","210","497629","0.0-4.0-0.57","","img/yellow.png","32","trial","null","false","0.2,0.8","2:nogo_b","",""
"null","","html-keyboard-response","211","498638","0.0-4.0-1.57","","<img src=""img/yellow-n.png"" border=""10"">","null","trial","null","","0.2,0.8","2:nogo_b","0",""
"null","","html-keyboard-response","212","499643","0.0-4.0-2.57","","<div style=""font-size:60px;"">+</div>","null","","","","","","",""
"496","","image-keyboard-response","213","500140","0.0-4.0-0.58","","img/purple.png","32","trial","32","true","0.8,0.2","1:go_a","",""
"null","","html-keyboard-response","214","501155","0.0-4.0-1.58","","<img src=""img/purple-r.png"" border=""10"">","null","trial","32","","0.8,0.2","1:go_a","1",""
"null","","html-keyboard-response","215","502156","0.0-4.0-2.58","","<div style=""font-size:60px;"">+</div>","null","","","","","","",""
"null","","image-keyboard-response","216","503666","0.0-4.0-0.59","","img/yellow.png","null","trial","null","true","0.2,0.8","2:nogo_b","",""
"null","","html-keyboard-response","217","504669","0.0-4.0-1.59","","<img src=""img/yellow-r.png"">","null","trial","null","","0.2,0.8","2:nogo_b","1",""
"null","","html-keyboard-response","218","505675","0.0-4.0-2.59","","<div style=""font-size:60px;"">+</div>","null","","","","","","",""
"12293","","instructions","219","517968","0.0-5.0","[{""page_index"":0,""viewing_time"":12293}]","","","","","","","","",""
"1105","","image-keyboard-response","220","519075","0.0-6.0-0.0","","img/grey.png","32","trial","32","true","0.8,0.2","1:go_a","",""
"null","","html-keyboard-response","221","520086","0.0-6.0-1.0","","<img src=""img/grey-r.png"" border=""10"">","null","trial","32","","0.8,0.2","1:go_a","1",""
"null","","html-keyboard-response","222","521090","0.0-6.0-2.0","","<div style=""font-size:60px;"">+</div>","null","","","","","","",""
"492","","image-keyboard-response","223","521580","0.0-6.0-0.1","","img/blue.png","32","trial","32","true","0.8,0.2","3:go_c","",""
"null","","html-keyboard-response","224","522591","0.0-6.0-1.1","","<img src=""img/blue-r.png"" border=""10"">","null","trial","32","","0.8,0.2","3:go_c","1",""
"null","","html-keyboard-response","225","523601","0.0-6.0-2.1","","<div style=""font-size:60px;"">+</div>","null","","","","","","",""
"486","","image-keyboard-response","226","524086","0.0-6.0-0.2","","img/green.png","32","trial","null","false","0.2,0.8","4:nogo_d","",""
"null","","html-keyboard-response","227","525090","0.0-6.0-1.2","","<img src=""img/green-r.png"" border=""10"">","null","trial","null","","0.2,0.8","4:nogo_d","1",""
"null","","html-keyboard-response","228","526098","0.0-6.0-2.2","","<div style=""font-size:60px;"">+</div>","null","","","","","","",""
"805","","image-keyboard-response","229","526904","0.0-6.0-0.3","","img/orange.png","32","trial","null","false","0.2,0.8","2:nogo_b","",""
"null","","html-keyboard-response","230","527917","0.0-6.0-1.3","","<img src=""img/orange-n.png"" border=""10"">","null","trial","null","","0.2,0.8","2:nogo_b","0",""
"null","","html-keyboard-response","231","528925","0.0-6.0-2.3","","<div style=""font-size:60px;"">+</div>","null","","","","","","",""
"689","","image-keyboard-response","232","529614","0.0-6.0-0.4","","img/blue.png","32","trial","32","true","0.8,0.2","3:go_c","",""
"null","","html-keyboard-response","233","530624","0.0-6.0-1.4","","<img src=""img/blue-r.png"" border=""10"">","null","trial","32","","0.8,0.2","3:go_c","1",""
"null","","html-keyboard-response","234","531629","0.0-6.0-2.4","","<div style=""font-size:60px;"">+</div>","null","","","","","","",""
"827","","image-keyboard-response","235","532456","0.0-6.0-0.5","","img/green.png","32","trial","null","false","0.2,0.8","4:nogo_d","",""
"null","","html-keyboard-response","236","533471","0.0-6.0-1.5","","<img src=""img/green-n.png"" border=""10"">","null","trial","null","","0.2,0.8","4:nogo_d","0",""
"null","","html-keyboard-response","237","534482","0.0-6.0-2.5","","<div style=""font-size:60px;"">+</div>","null","","","","","","",""
"627","","image-keyboard-response","238","535108","0.0-6.0-0.6","","img/grey.png","32","trial","32","true","0.8,0.2","1:go_a","",""
"null","","html-keyboard-response","239","536124","0.0-6.0-1.6","","<img src=""img/grey-r.png"" border=""10"">","null","trial","32","","0.8,0.2","1:go_a","1",""
"null","","html-keyboard-response","240","537131","0.0-6.0-2.6","","<div style=""font-size:60px;"">+</div>","null","","","","","","",""
"null","","image-keyboard-response","241","538647","0.0-6.0-0.7","","img/orange.png","null","trial","null","true","0.2,0.8","2:nogo_b","",""
"null","","html-keyboard-response","242","539659","0.0-6.0-1.7","","<img src=""img/orange-r.png"">","null","trial","null","","0.2,0.8","2:nogo_b","1",""
"null","","html-keyboard-response","243","540666","0.0-6.0-2.7","","<div style=""font-size:60px;"">+</div>","null","","","","","","",""
"576","","image-keyboard-response","244","541242","0.0-6.0-0.8","","img/green.png","32","trial","null","false","0.2,0.8","4:nogo_d","",""
"null","","html-keyboard-response","245","542246","0.0-6.0-1.8","","<img src=""img/green-n.png"" border=""10"">","null","trial","null","","0.2,0.8","4:nogo_d","0",""
"null","","html-keyboard-response","246","543261","0.0-6.0-2.8","","<div style=""font-size:60px;"">+</div>","null","","","","","","",""
"501","","image-keyboard-response","247","543763","0.0-6.0-0.9","","img/grey.png","32","trial","32","true","0.8,0.2","1:go_a","",""
"null","","html-keyboard-response","248","544778","0.0-6.0-1.9","","<img src=""img/grey-r.png"" border=""10"">","null","trial","32","","0.8,0.2","1:go_a","1",""
"null","","html-keyboard-response","249","545781","0.0-6.0-2.9","","<div style=""font-size:60px;"">+</div>","null","","","","","","",""
"433","","image-keyboard-response","250","546214","0.0-6.0-0.10","","img/blue.png","32","trial","32","true","0.8,0.2","3:go_c","",""
"null","","html-keyboard-response","251","547222","0.0-6.0-1.10","","<img src=""img/blue-r.png"" border=""10"">","null","trial","32","","0.8,0.2","3:go_c","1",""
"null","","html-keyboard-response","252","548238","0.0-6.0-2.10","","<div style=""font-size:60px;"">+</div>","null","","","","","","",""
"null","","image-keyboard-response","253","549739","0.0-6.0-0.11","","img/orange.png","null","trial","null","true","0.2,0.8","2:nogo_b","",""
"null","","html-keyboard-response","254","550750","0.0-6.0-1.11","","<img src=""img/orange-r.png"">","null","trial","null","","0.2,0.8","2:nogo_b","1",""
"null","","html-keyboard-response","255","551759","0.0-6.0-2.11","","<div style=""font-size:60px;"">+</div>","null","","","","","","",""
"584","","image-keyboard-response","256","552344","0.0-6.0-0.12","","img/grey.png","32","trial","32","true","0.8,0.2","1:go_a","",""
"null","","html-keyboard-response","257","553350","0.0-6.0-1.12","","<img src=""img/grey-r.png"" border=""10"">","null","trial","32","","0.8,0.2","1:go_a","1",""
"null","","html-keyboard-response","258","554350","0.0-6.0-2.12","","<div style=""font-size:60px;"">+</div>","null","","","","","","",""
"448","","image-keyboard-response","259","554799","0.0-6.0-0.13","","img/blue.png","32","trial","32","true","0.8,0.2","3:go_c","",""
"null","","html-keyboard-response","260","555800","0.0-6.0-1.13","","<img src=""img/blue-r.png"" border=""10"">","null","trial","32","","0.8,0.2","3:go_c","1",""
"null","","html-keyboard-response","261","556813","0.0-6.0-2.13","","<div style=""font-size:60px;"">+</div>","null","","","","","","",""
"522","","image-keyboard-response","262","557335","0.0-6.0-0.14","","img/green.png","32","trial","null","false","0.2,0.8","4:nogo_d","",""
"null","","html-keyboard-response","263","558344","0.0-6.0-1.14","","<img src=""img/green-n.png"" border=""10"">","null","trial","null","","0.2,0.8","4:nogo_d","0",""
"null","","html-keyboard-response","264","559357","0.0-6.0-2.14","","<div style=""font-size:60px;"">+</div>","null","","","","","","",""
"464","","image-keyboard-response","265","559821","0.0-6.0-0.15","","img/orange.png","32","trial","null","false","0.2,0.8","2:nogo_b","",""
"null","","html-keyboard-response","266","560821","0.0-6.0-1.15","","<img src=""img/orange-n.png"" border=""10"">","null","trial","null","","0.2,0.8","2:nogo_b","0",""
"null","","html-keyboard-response","267","561827","0.0-6.0-2.15","","<div style=""font-size:60px;"">+</div>","null","","","","","","",""
"569","","image-keyboard-response","268","562397","0.0-6.0-0.16","","img/grey.png","32","trial","32","true","0.8,0.2","1:go_a","",""
"null","","html-keyboard-response","269","563412","0.0-6.0-1.16","","<img src=""img/grey-r.png"" border=""10"">","null","trial","32","","0.8,0.2","1:go_a","1",""
"null","","html-keyboard-response","270","564423","0.0-6.0-2.16","","<div style=""font-size:60px;"">+</div>","null","","","","","","",""
"955","","image-keyboard-response","271","565379","0.0-6.0-0.17","","img/green.png","32","trial","null","false","0.2,0.8","4:nogo_d","",""
"null","","html-keyboard-response","272","566391","0.0-6.0-1.17","","<img src=""img/green-n.png"" border=""10"">","null","trial","null","","0.2,0.8","4:nogo_d","0",""
"null","","html-keyboard-response","273","567402","0.0-6.0-2.17","","<div style=""font-size:60px;"">+</div>","null","","","","","","",""
"554","","image-keyboard-response","274","567956","0.0-6.0-0.18","","img/blue.png","32","trial","32","true","0.8,0.2","3:go_c","",""
"null","","html-keyboard-response","275","568967","0.0-6.0-1.18","","<img src=""img/blue-r.png"" border=""10"">","null","trial","32","","0.8,0.2","3:go_c","1",""
"null","","html-keyboard-response","276","569981","0.0-6.0-2.18","","<div style=""font-size:60px;"">+</div>","null","","","","","","",""
"null","","image-keyboard-response","277","571495","0.0-6.0-0.19","","img/orange.png","null","trial","null","true","0.2,0.8","2:nogo_b","",""
"null","","html-keyboard-response","278","572504","0.0-6.0-1.19","","<img src=""img/orange-n.png"">","null","trial","null","","0.2,0.8","2:nogo_b","0",""
"null","","html-keyboard-response","279","573506","0.0-6.0-2.19","","<div style=""font-size:60px;"">+</div>","null","","","","","","",""
"null","","image-keyboard-response","280","575019","0.0-6.0-0.20","","img/orange.png","null","trial","null","true","0.2,0.8","2:nogo_b","",""
"null","","html-keyboard-response","281","576021","0.0-6.0-1.20","","<img src=""img/orange-r.png"">","null","trial","null","","0.2,0.8","2:nogo_b","1",""
"null","","html-keyboard-response","282","577035","0.0-6.0-2.20","","<div style=""font-size:60px;"">+</div>","null","","","","","","",""
"534","","image-keyboard-response","283","577569","0.0-6.0-0.21","","img/grey.png","32","trial","32","true","0.8,0.2","1:go_a","",""
"null","","html-keyboard-response","284","578582","0.0-6.0-1.21","","<img src=""img/grey-r.png"" border=""10"">","null","trial","32","","0.8,0.2","1:go_a","1",""
"null","","html-keyboard-response","285","579588","0.0-6.0-2.21","","<div style=""font-size:60px;"">+</div>","null","","","","","","",""
"null","","image-keyboard-response","286","581092","0.0-6.0-0.22","","img/green.png","null","trial","null","true","0.2,0.8","4:nogo_d","",""
"null","","html-keyboard-response","287","582099","0.0-6.0-1.22","","<img src=""img/green-r.png"">","null","trial","null","","0.2,0.8","4:nogo_d","1",""
"null","","html-keyboard-response","288","583114","0.0-6.0-2.22","","<div style=""font-size:60px;"">+</div>","null","","","","","","",""
"404","","image-keyboard-response","289","583518","0.0-6.0-0.23","","img/blue.png","32","trial","32","true","0.8,0.2","3:go_c","",""
"null","","html-keyboard-response","290","584521","0.0-6.0-1.23","","<img src=""img/blue-r.png"" border=""10"">","null","trial","32","","0.8,0.2","3:go_c","1",""
"null","","html-keyboard-response","291","585536","0.0-6.0-2.23","","<div style=""font-size:60px;"">+</div>","null","","","","","","",""
"null","","image-keyboard-response","292","587052","0.0-6.0-0.24","","img/orange.png","null","trial","null","true","0.2,0.8","2:nogo_b","",""
"null","","html-keyboard-response","293","588052","0.0-6.0-1.24","","<img src=""img/orange-r.png"">","null","trial","null","","0.2,0.8","2:nogo_b","1",""
"null","","html-keyboard-response","294","589055","0.0-6.0-2.24","","<div style=""font-size:60px;"">+</div>","null","","","","","","",""
"472","","image-keyboard-response","295","589526","0.0-6.0-0.25","","img/grey.png","32","trial","32","true","0.8,0.2","1:go_a","",""
"null","","html-keyboard-response","296","590536","0.0-6.0-1.25","","<img src=""img/grey-r.png"" border=""10"">","null","trial","32","","0.8,0.2","1:go_a","1",""
"null","","html-keyboard-response","297","591543","0.0-6.0-2.25","","<div style=""font-size:60px;"">+</div>","null","","","","","","",""
"609","","image-keyboard-response","298","592152","0.0-6.0-0.26","","img/blue.png","32","trial","32","true","0.8,0.2","3:go_c","",""
"null","","html-keyboard-response","299","593160","0.0-6.0-1.26","","<img src=""img/blue-r.png"" border=""10"">","null","trial","32","","0.8,0.2","3:go_c","1",""
"null","","html-keyboard-response","300","594172","0.0-6.0-2.26","","<div style=""font-size:60px;"">+</div>","null","","","","","","",""
"871","","image-keyboard-response","301","595045","0.0-6.0-0.27","","img/green.png","32","trial","null","false","0.2,0.8","4:nogo_d","",""
"null","","html-keyboard-response","302","596048","0.0-6.0-1.27","","<img src=""img/green-n.png"" border=""10"">","null","trial","null","","0.2,0.8","4:nogo_d","0",""
"null","","html-keyboard-response","303","597064","0.0-6.0-2.27","","<div style=""font-size:60px;"">+</div>","null","","","","","","",""
"537","","image-keyboard-response","304","597601","0.0-6.0-0.28","","img/blue.png","32","trial","32","true","0.8,0.2","3:go_c","",""
"null","","html-keyboard-response","305","598614","0.0-6.0-1.28","","<img src=""img/blue-r.png"" border=""10"">","null","trial","32","","0.8,0.2","3:go_c","1",""
"null","","html-keyboard-response","306","599626","0.0-6.0-2.28","","<div style=""font-size:60px;"">+</div>","null","","","","","","",""
"null","","image-keyboard-response","307","601130","0.0-6.0-0.29","","img/green.png","null","trial","null","true","0.2,0.8","4:nogo_d","",""
"null","","html-keyboard-response","308","602131","0.0-6.0-1.29","","<img src=""img/green-r.png"">","null","trial","null","","0.2,0.8","4:nogo_d","1",""
"null","","html-keyboard-response","309","603135","0.0-6.0-2.29","","<div style=""font-size:60px;"">+</div>","null","","","","","","",""
"null","","image-keyboard-response","310","604644","0.0-6.0-0.30","","img/orange.png","null","trial","null","true","0.2,0.8","2:nogo_b","",""
"null","","html-keyboard-response","311","605654","0.0-6.0-1.30","","<img src=""img/orange-r.png"">","null","trial","null","","0.2,0.8","2:nogo_b","1",""
"null","","html-keyboard-response","312","606668","0.0-6.0-2.30","","<div style=""font-size:60px;"">+</div>","null","","","","","","",""
"445","","image-keyboard-response","313","607114","0.0-6.0-0.31","","img/grey.png","32","trial","32","true","0.8,0.2","1:go_a","",""
"null","","html-keyboard-response","314","608120","0.0-6.0-1.31","","<img src=""img/grey-r.png"" border=""10"">","null","trial","32","","0.8,0.2","1:go_a","1",""
"null","","html-keyboard-response","315","609129","0.0-6.0-2.31","","<div style=""font-size:60px;"">+</div>","null","","","","","","",""
"805","","image-keyboard-response","316","609934","0.0-6.0-0.32","","img/grey.png","32","trial","32","true","0.8,0.2","1:go_a","",""
"null","","html-keyboard-response","317","610946","0.0-6.0-1.32","","<img src=""img/grey-n.png"" border=""10"">","null","trial","32","","0.8,0.2","1:go_a","0",""
"null","","html-keyboard-response","318","611951","0.0-6.0-2.32","","<div style=""font-size:60px;"">+</div>","null","","","","","","",""
"429","","image-keyboard-response","319","612381","0.0-6.0-0.33","","img/blue.png","32","trial","32","true","0.8,0.2","3:go_c","",""
"null","","html-keyboard-response","320","613394","0.0-6.0-1.33","","<img src=""img/blue-r.png"" border=""10"">","null","trial","32","","0.8,0.2","3:go_c","1",""
"null","","html-keyboard-response","321","614396","0.0-6.0-2.33","","<div style=""font-size:60px;"">+</div>","null","","","","","","",""
"541","","image-keyboard-response","322","614937","0.0-6.0-0.34","","img/green.png","32","trial","null","false","0.2,0.8","4:nogo_d","",""
"null","","html-keyboard-response","323","615951","0.0-6.0-1.34","","<img src=""img/green-n.png"" border=""10"">","null","trial","null","","0.2,0.8","4:nogo_d","0",""
"null","","html-keyboard-response","324","616957","0.0-6.0-2.34","","<div style=""font-size:60px;"">+</div>","null","","","","","","",""
"892","","image-keyboard-response","325","617849","0.0-6.0-0.35","","img/orange.png","32","trial","null","false","0.2,0.8","2:nogo_b","",""
"null","","html-keyboard-response","326","618865","0.0-6.0-1.35","","<img src=""img/orange-n.png"" border=""10"">","null","trial","null","","0.2,0.8","2:nogo_b","0",""
"null","","html-keyboard-response","327","619878","0.0-6.0-2.35","","<div style=""font-size:60px;"">+</div>","null","","","","","","",""
"537","","image-keyboard-response","328","620415","0.0-6.0-0.36","","img/blue.png","32","trial","32","true","0.8,0.2","3:go_c","",""
"null","","html-keyboard-response","329","621425","0.0-6.0-1.36","","<img src=""img/blue-n.png"" border=""10"">","null","trial","32","","0.8,0.2","3:go_c","0",""
"null","","html-keyboard-response","330","622432","0.0-6.0-2.36","","<div style=""font-size:60px;"">+</div>","null","","","","","","",""
"null","","image-keyboard-response","331","623941","0.0-6.0-0.37","","img/orange.png","null","trial","null","true","0.2,0.8","2:nogo_b","",""
"null","","html-keyboard-response","332","624949","0.0-6.0-1.37","","<img src=""img/orange-n.png"">","null","trial","null","","0.2,0.8","2:nogo_b","0",""
"null","","html-keyboard-response","333","625957","0.0-6.0-2.37","","<div style=""font-size:60px;"">+</div>","null","","","","","","",""
"431","","image-keyboard-response","334","626389","0.0-6.0-0.38","","img/grey.png","32","trial","32","true","0.8,0.2","1:go_a","",""
"null","","html-keyboard-response","335","627402","0.0-6.0-1.38","","<img src=""img/grey-n.png"" border=""10"">","null","trial","32","","0.8,0.2","1:go_a","0",""
"null","","html-keyboard-response","336","628411","0.0-6.0-2.38","","<div style=""font-size:60px;"">+</div>","null","","","","","","",""
"744","","image-keyboard-response","337","629156","0.0-6.0-0.39","","img/green.png","32","trial","null","false","0.2,0.8","4:nogo_d","",""
"null","","html-keyboard-response","338","630161","0.0-6.0-1.39","","<img src=""img/green-r.png"" border=""10"">","null","trial","null","","0.2,0.8","4:nogo_d","1",""
"null","","html-keyboard-response","339","631166","0.0-6.0-2.39","","<div style=""font-size:60px;"">+</div>","null","","","","","","",""
"500","","image-keyboard-response","340","631667","0.0-6.0-0.40","","img/blue.png","32","trial","32","true","0.8,0.2","3:go_c","",""
"null","","html-keyboard-response","341","632671","0.0-6.0-1.40","","<img src=""img/blue-r.png"" border=""10"">","null","trial","32","","0.8,0.2","3:go_c","1",""
"null","","html-keyboard-response","342","633683","0.0-6.0-2.40","","<div style=""font-size:60px;"">+</div>","null","","","","","","",""
"679","","image-keyboard-response","343","634362","0.0-6.0-0.41","","img/green.png","32","trial","null","false","0.2,0.8","4:nogo_d","",""
"null","","html-keyboard-response","344","635365","0.0-6.0-1.41","","<img src=""img/green-n.png"" border=""10"">","null","trial","null","","0.2,0.8","4:nogo_d","0",""
"null","","html-keyboard-response","345","636375","0.0-6.0-2.41","","<div style=""font-size:60px;"">+</div>","null","","","","","","",""
"945","","image-keyboard-response","346","637320","0.0-6.0-0.42","","img/orange.png","32","trial","null","false","0.2,0.8","2:nogo_b","",""
"null","","html-keyboard-response","347","638336","0.0-6.0-1.42","","<img src=""img/orange-n.png"" border=""10"">","null","trial","null","","0.2,0.8","2:nogo_b","0",""
"null","","html-keyboard-response","348","639351","0.0-6.0-2.42","","<div style=""font-size:60px;"">+</div>","null","","","","","","",""
"550","","image-keyboard-response","349","639901","0.0-6.0-0.43","","img/grey.png","32","trial","32","true","0.8,0.2","1:go_a","",""
"null","","html-keyboard-response","350","640917","0.0-6.0-1.43","","<img src=""img/grey-r.png"" border=""10"">","null","trial","32","","0.8,0.2","1:go_a","1",""
"null","","html-keyboard-response","351","641919","0.0-6.0-2.43","","<div style=""font-size:60px;"">+</div>","null","","","","","","",""
"458","","image-keyboard-response","352","642378","0.0-6.0-0.44","","img/blue.png","32","trial","32","true","0.8,0.2","3:go_c","",""
"null","","html-keyboard-response","353","643383","0.0-6.0-1.44","","<img src=""img/blue-r.png"" border=""10"">","null","trial","32","","0.8,0.2","3:go_c","1",""
"null","","html-keyboard-response","354","644395","0.0-6.0-2.44","","<div style=""font-size:60px;"">+</div>","null","","","","","","",""
"null","","image-keyboard-response","355","645908","0.0-6.0-0.45","","img/orange.png","null","trial","null","true","0.2,0.8","2:nogo_b","",""
"null","","html-keyboard-response","356","646924","0.0-6.0-1.45","","<img src=""img/orange-n.png"">","null","trial","null","","0.2,0.8","2:nogo_b","0",""
"null","","html-keyboard-response","357","647939","0.0-6.0-2.45","","<div style=""font-size:60px;"">+</div>","null","","","","","","",""
"null","","image-keyboard-response","358","649443","0.0-6.0-0.46","","img/green.png","null","trial","null","true","0.2,0.8","4:nogo_d","",""
"null","","html-keyboard-response","359","650457","0.0-6.0-1.46","","<img src=""img/green-r.png"">","null","trial","null","","0.2,0.8","4:nogo_d","1",""
"null","","html-keyboard-response","360","651472","0.0-6.0-2.46","","<div style=""font-size:60px;"">+</div>","null","","","","","","",""
"593","","image-keyboard-response","361","652065","0.0-6.0-0.47","","img/grey.png","32","trial","32","true","0.8,0.2","1:go_a","",""
"null","","html-keyboard-response","362","653080","0.0-6.0-1.47","","<img src=""img/grey-r.png"" border=""10"">","null","trial","32","","0.8,0.2","1:go_a","1",""
"null","","html-keyboard-response","363","654089","0.0-6.0-2.47","","<div style=""font-size:60px;"">+</div>","null","","","","","","",""
"501","","image-keyboard-response","364","654591","0.0-6.0-0.48","","img/blue.png","32","trial","32","true","0.8,0.2","3:go_c","",""
"null","","html-keyboard-response","365","655597","0.0-6.0-1.48","","<img src=""img/blue-r.png"" border=""10"">","null","trial","32","","0.8,0.2","3:go_c","1",""
"null","","html-keyboard-response","366","656604","0.0-6.0-2.48","","<div style=""font-size:60px;"">+</div>","null","","","","","","",""
"568","","image-keyboard-response","367","657172","0.0-6.0-0.49","","img/grey.png","32","trial","32","true","0.8,0.2","1:go_a","",""
"null","","html-keyboard-response","368","658179","0.0-6.0-1.49","","<img src=""img/grey-n.png"" border=""10"">","null","trial","32","","0.8,0.2","1:go_a","0",""
"null","","html-keyboard-response","369","659191","0.0-6.0-2.49","","<div style=""font-size:60px;"">+</div>","null","","","","","","",""
"null","","image-keyboard-response","370","660697","0.0-6.0-0.50","","img/orange.png","null","trial","null","true","0.2,0.8","2:nogo_b","",""
"null","","html-keyboard-response","371","661707","0.0-6.0-1.50","","<img src=""img/orange-n.png"">","null","trial","null","","0.2,0.8","2:nogo_b","0",""
"null","","html-keyboard-response","372","662719","0.0-6.0-2.50","","<div style=""font-size:60px;"">+</div>","null","","","","","","",""
"808","","image-keyboard-response","373","663527","0.0-6.0-0.51","","img/green.png","32","trial","null","false","0.2,0.8","4:nogo_d","",""
"null","","html-keyboard-response","374","664532","0.0-6.0-1.51","","<img src=""img/green-n.png"" border=""10"">","null","trial","null","","0.2,0.8","4:nogo_d","0",""
"null","","html-keyboard-response","375","665544","0.0-6.0-2.51","","<div style=""font-size:60px;"">+</div>","null","","","","","","",""
"465","","image-keyboard-response","376","666009","0.0-6.0-0.52","","img/grey.png","32","trial","32","true","0.8,0.2","1:go_a","",""
"null","","html-keyboard-response","377","667022","0.0-6.0-1.52","","<img src=""img/grey-r.png"" border=""10"">","null","trial","32","","0.8,0.2","1:go_a","1",""
"null","","html-keyboard-response","378","668029","0.0-6.0-2.52","","<div style=""font-size:60px;"">+</div>","null","","","","","","",""
"null","","image-keyboard-response","379","669544","0.0-6.0-0.53","","img/orange.png","null","trial","null","true","0.2,0.8","2:nogo_b","",""
"null","","html-keyboard-response","380","670548","0.0-6.0-1.53","","<img src=""img/orange-r.png"">","null","trial","null","","0.2,0.8","2:nogo_b","1",""
"null","","html-keyboard-response","381","671550","0.0-6.0-2.53","","<div style=""font-size:60px;"">+</div>","null","","","","","","",""
"null","","image-keyboard-response","382","673059","0.0-6.0-0.54","","img/green.png","null","trial","null","true","0.2,0.8","4:nogo_d","",""
"null","","html-keyboard-response","383","674075","0.0-6.0-1.54","","<img src=""img/green-r.png"">","null","trial","null","","0.2,0.8","4:nogo_d","1",""
"null","","html-keyboard-response","384","675085","0.0-6.0-2.54","","<div style=""font-size:60px;"">+</div>","null","","","","","","",""
"515","","image-keyboard-response","385","675602","0.0-6.0-0.55","","img/blue.png","32","trial","32","true","0.8,0.2","3:go_c","",""
"null","","html-keyboard-response","386","676612","0.0-6.0-1.55","","<img src=""img/blue-r.png"" border=""10"">","null","trial","32","","0.8,0.2","3:go_c","1",""
"null","","html-keyboard-response","387","677624","0.0-6.0-2.55","","<div style=""font-size:60px;"">+</div>","null","","","","","","",""
"null","","image-keyboard-response","388","679125","0.0-6.0-0.56","","img/green.png","null","trial","null","true","0.2,0.8","4:nogo_d","",""
"null","","html-keyboard-response","389","680130","0.0-6.0-1.56","","<img src=""img/green-r.png"">","null","trial","null","","0.2,0.8","4:nogo_d","1",""
"null","","html-keyboard-response","390","681142","0.0-6.0-2.56","","<div style=""font-size:60px;"">+</div>","null","","","","","","",""
"513","","image-keyboard-response","391","681655","0.0-6.0-0.57","","img/blue.png","32","trial","32","true","0.8,0.2","3:go_c","",""
"null","","html-keyboard-response","392","682659","0.0-6.0-1.57","","<img src=""img/blue-r.png"" border=""10"">","null","trial","32","","0.8,0.2","3:go_c","1",""
"null","","html-keyboard-response","393","683665","0.0-6.0-2.57","","<div style=""font-size:60px;"">+</div>","null","","","","","","",""
"446","","image-keyboard-response","394","684112","0.0-6.0-0.58","","img/grey.png","32","trial","32","true","0.8,0.2","1:go_a","",""
"null","","html-keyboard-response","395","685123","0.0-6.0-1.58","","<img src=""img/grey-r.png"" border=""10"">","null","trial","32","","0.8,0.2","1:go_a","1",""
"null","","html-keyboard-response","396","686126","0.0-6.0-2.58","","<div style=""font-size:60px;"">+</div>","null","","","","","","",""
"666","","image-keyboard-response","397","686793","0.0-6.0-0.59","","img/orange.png","32","trial","null","false","0.2,0.8","2:nogo_b","",""
"null","","html-keyboard-response","398","687796","0.0-6.0-1.59","","<img src=""img/orange-n.png"" border=""10"">","null","trial","null","","0.2,0.8","2:nogo_b","0",""
"null","","html-keyboard-response","399","688799","0.0-6.0-2.59","","<div style=""font-size:60px;"">+</div>","null","","","","","","",""
"624","","image-keyboard-response","400","689423","0.0-6.0-0.60","","img/blue.png","32","trial","32","true","0.8,0.2","3:go_c","",""
"null","","html-keyboard-response","401","690436","0.0-6.0-1.60","","<img src=""img/blue-r.png"" border=""10"">","null","trial","32","","0.8,0.2","3:go_c","1",""
"null","","html-keyboard-response","402","691441","0.0-6.0-2.60","","<div style=""font-size:60px;"">+</div>","null","","","","","","",""
"518","","image-keyboard-response","403","691960","0.0-6.0-0.61","","img/grey.png","32","trial","32","true","0.8,0.2","1:go_a","",""
"null","","html-keyboard-response","404","692973","0.0-6.0-1.61","","<img src=""img/grey-r.png"" border=""10"">","null","trial","32","","0.8,0.2","1:go_a","1",""
"null","","html-keyboard-response","405","693977","0.0-6.0-2.61","","<div style=""font-size:60px;"">+</div>","null","","","","","","",""
"null","","image-keyboard-response","406","695491","0.0-6.0-0.62","","img/green.png","null","trial","null","true","0.2,0.8","4:nogo_d","",""
"null","","html-keyboard-response","407","696502","0.0-6.0-1.62","","<img src=""img/green-n.png"">","null","trial","null","","0.2,0.8","4:nogo_d","0",""
"null","","html-keyboard-response","408","697508","0.0-6.0-2.62","","<div style=""font-size:60px;"">+</div>","null","","","","","","",""
"null","","image-keyboard-response","409","699011","0.0-6.0-0.63","","img/orange.png","null","trial","null","true","0.2,0.8","2:nogo_b","",""
"null","","html-keyboard-response","410","700018","0.0-6.0-1.63","","<img src=""img/orange-r.png"">","null","trial","null","","0.2,0.8","2:nogo_b","1",""
"null","","html-keyboard-response","411","701020","0.0-6.0-2.63","","<div style=""font-size:60px;"">+</div>","null","","","","","","",""
"591","","image-keyboard-response","412","701612","0.0-6.0-0.64","","img/grey.png","32","trial","32","true","0.8,0.2","1:go_a","",""
"null","","html-keyboard-response","413","702629","0.0-6.0-1.64","","<img src=""img/grey-n.png"" border=""10"">","null","trial","32","","0.8,0.2","1:go_a","0",""
"null","","html-keyboard-response","414","703638","0.0-6.0-2.64","","<div style=""font-size:60px;"">+</div>","null","","","","","","",""
"559","","image-keyboard-response","415","704198","0.0-6.0-0.65","","img/orange.png","32","trial","null","false","0.2,0.8","2:nogo_b","",""
"null","","html-keyboard-response","416","705213","0.0-6.0-1.65","","<img src=""img/orange-n.png"" border=""10"">","null","trial","null","","0.2,0.8","2:nogo_b","0",""
"null","","html-keyboard-response","417","706221","0.0-6.0-2.65","","<div style=""font-size:60px;"">+</div>","null","","","","","","",""
"null","","image-keyboard-response","418","707726","0.0-6.0-0.66","","img/green.png","null","trial","null","true","0.2,0.8","4:nogo_d","",""
"null","","html-keyboard-response","419","708728","0.0-6.0-1.66","","<img src=""img/green-r.png"">","null","trial","null","","0.2,0.8","4:nogo_d","1",""
"null","","html-keyboard-response","420","709742","0.0-6.0-2.66","","<div style=""font-size:60px;"">+</div>","null","","","","","","",""
"475","","image-keyboard-response","421","710218","0.0-6.0-0.67","","img/blue.png","32","trial","32","true","0.8,0.2","3:go_c","",""
"null","","html-keyboard-response","422","711229","0.0-6.0-1.67","","<img src=""img/blue-r.png"" border=""10"">","null","trial","32","","0.8,0.2","3:go_c","1",""
"null","","html-keyboard-response","423","712239","0.0-6.0-2.67","","<div style=""font-size:60px;"">+</div>","null","","","","","","",""
"549","","image-keyboard-response","424","712789","0.0-6.0-0.68","","img/blue.png","32","trial","32","true","0.8,0.2","3:go_c","",""
"null","","html-keyboard-response","425","713799","0.0-6.0-1.68","","<img src=""img/blue-r.png"" border=""10"">","null","trial","32","","0.8,0.2","3:go_c","1",""
"null","","html-keyboard-response","426","714809","0.0-6.0-2.68","","<div style=""font-size:60px;"">+</div>","null","","","","","","",""
"802","","image-keyboard-response","427","715611","0.0-6.0-0.69","","img/orange.png","32","trial","null","false","0.2,0.8","2:nogo_b","",""
"null","","html-keyboard-response","428","716617","0.0-6.0-1.69","","<img src=""img/orange-n.png"" border=""10"">","null","trial","null","","0.2,0.8","2:nogo_b","0",""
"null","","html-keyboard-response","429","717628","0.0-6.0-2.69","","<div style=""font-size:60px;"">+</div>","null","","","","","","",""
"514","","image-keyboard-response","430","718142","0.0-6.0-0.70","","img/grey.png","32","trial","32","true","0.8,0.2","1:go_a","",""
"null","","html-keyboard-response","431","719144","0.0-6.0-1.70","","<img src=""img/grey-r.png"" border=""10"">","null","trial","32","","0.8,0.2","1:go_a","1",""
"null","","html-keyboard-response","432","720147","0.0-6.0-2.70","","<div style=""font-size:60px;"">+</div>","null","","","","","","",""
"null","","image-keyboard-response","433","721657","0.0-6.0-0.71","","img/green.png","null","trial","null","true","0.2,0.8","4:nogo_d","",""
"null","","html-keyboard-response","434","722666","0.0-6.0-1.71","","<img src=""img/green-r.png"">","null","trial","null","","0.2,0.8","4:nogo_d","1",""
"null","","html-keyboard-response","435","723676","0.0-6.0-2.71","","<div style=""font-size:60px;"">+</div>","null","","","","","","",""
"925","","image-keyboard-response","436","724602","0.0-6.0-0.72","","img/green.png","32","trial","null","false","0.2,0.8","4:nogo_d","",""
"null","","html-keyboard-response","437","725610","0.0-6.0-1.72","","<img src=""img/green-n.png"" border=""10"">","null","trial","null","","0.2,0.8","4:nogo_d","0",""
"null","","html-keyboard-response","438","726614","0.0-6.0-2.72","","<div style=""font-size:60px;"">+</div>","null","","","","","","",""
"618","","image-keyboard-response","439","727232","0.0-6.0-0.73","","img/grey.png","32","trial","32","true","0.8,0.2","1:go_a","",""
"null","","html-keyboard-response","440","728243","0.0-6.0-1.73","","<img src=""img/grey-r.png"" border=""10"">","null","trial","32","","0.8,0.2","1:go_a","1",""
"null","","html-keyboard-response","441","729254","0.0-6.0-2.73","","<div style=""font-size:60px;"">+</div>","null","","","","","","",""
"514","","image-keyboard-response","442","729769","0.0-6.0-0.74","","img/blue.png","32","trial","32","true","0.8,0.2","3:go_c","",""
"null","","html-keyboard-response","443","730784","0.0-6.0-1.74","","<img src=""img/blue-r.png"" border=""10"">","null","trial","32","","0.8,0.2","3:go_c","1",""
"null","","html-keyboard-response","444","731799","0.0-6.0-2.74","","<div style=""font-size:60px;"">+</div>","null","","","","","","",""
"null","","image-keyboard-response","445","733308","0.0-6.0-0.75","","img/orange.png","null","trial","null","true","0.2,0.8","2:nogo_b","",""
"null","","html-keyboard-response","446","734318","0.0-6.0-1.75","","<img src=""img/orange-r.png"">","null","trial","null","","0.2,0.8","2:nogo_b","1",""
"null","","html-keyboard-response","447","735329","0.0-6.0-2.75","","<div style=""font-size:60px;"">+</div>","null","","","","","","",""
"null","","image-keyboard-response","448","736841","0.0-6.0-0.76","","img/green.png","null","trial","null","true","0.2,0.8","4:nogo_d","",""
"null","","html-keyboard-response","449","737854","0.0-6.0-1.76","","<img src=""img/green-n.png"">","null","trial","null","","0.2,0.8","4:nogo_d","0",""
"null","","html-keyboard-response","450","738864","0.0-6.0-2.76","","<div style=""font-size:60px;"">+</div>","null","","","","","","",""
"582","","image-keyboard-response","451","739447","0.0-6.0-0.77","","img/blue.png","32","trial","32","true","0.8,0.2","3:go_c","",""
"null","","html-keyboard-response","452","740463","0.0-6.0-1.77","","<img src=""img/blue-r.png"" border=""10"">","null","trial","32","","0.8,0.2","3:go_c","1",""
"null","","html-keyboard-response","453","741470","0.0-6.0-2.77","","<div style=""font-size:60px;"">+</div>","null","","","","","","",""
"603","","image-keyboard-response","454","742074","0.0-6.0-0.78","","img/grey.png","32","trial","32","true","0.8,0.2","1:go_a","",""
"null","","html-keyboard-response","455","743087","0.0-6.0-1.78","","<img src=""img/grey-n.png"" border=""10"">","null","trial","32","","0.8,0.2","1:go_a","0",""
"null","","html-keyboard-response","456","744094","0.0-6.0-2.78","","<div style=""font-size:60px;"">+</div>","null","","","","","","",""
"null","","image-keyboard-response","457","745603","0.0-6.0-0.79","","img/orange.png","null","trial","null","true","0.2,0.8","2:nogo_b","",""
"null","","html-keyboard-response","458","746618","0.0-6.0-1.79","","<img src=""img/orange-r.png"">","null","trial","null","","0.2,0.8","2:nogo_b","1",""
"null","","html-keyboard-response","459","747626","0.0-6.0-2.79","","<div style=""font-size:60px;"">+</div>","null","","","","","","",""
"null","","image-keyboard-response","460","749140","0.0-6.0-0.80","","img/green.png","null","trial","null","true","0.2,0.8","4:nogo_d","",""
"null","","html-keyboard-response","461","750151","0.0-6.0-1.80","","<img src=""img/green-r.png"">","null","trial","null","","0.2,0.8","4:nogo_d","1",""
"null","","html-keyboard-response","462","751160","0.0-6.0-2.80","","<div style=""font-size:60px;"">+</div>","null","","","","","","",""
"null","","image-keyboard-response","463","752676","0.0-6.0-0.81","","img/orange.png","null","trial","null","true","0.2,0.8","2:nogo_b","",""
"null","","html-keyboard-response","464","753686","0.0-6.0-1.81","","<img src=""img/orange-r.png"">","null","trial","null","","0.2,0.8","2:nogo_b","1",""
"null","","html-keyboard-response","465","754701","0.0-6.0-2.81","","<div style=""font-size:60px;"">+</div>","null","","","","","","",""
"429","","image-keyboard-response","466","755130","0.0-6.0-0.82","","img/grey.png","32","trial","32","true","0.8,0.2","1:go_a","",""
"null","","html-keyboard-response","467","756137","0.0-6.0-1.82","","<img src=""img/grey-r.png"" border=""10"">","null","trial","32","","0.8,0.2","1:go_a","1",""
"null","","html-keyboard-response","468","757141","0.0-6.0-2.82","","<div style=""font-size:60px;"">+</div>","null","","","","","","",""
"430","","image-keyboard-response","469","757570","0.0-6.0-0.83","","img/blue.png","32","trial","32","true","0.8,0.2","3:go_c","",""
"null","","html-keyboard-response","470","758586","0.0-6.0-1.83","","<img src=""img/blue-r.png"" border=""10"">","null","trial","32","","0.8,0.2","3:go_c","1",""
"null","","html-keyboard-response","471","759595","0.0-6.0-2.83","","<div style=""font-size:60px;"">+</div>","null","","","","","","",""
"622","","image-keyboard-response","472","760216","0.0-6.0-0.84","","img/blue.png","32","trial","32","true","0.8,0.2","3:go_c","",""
"null","","html-keyboard-response","473","761229","0.0-6.0-1.84","","<img src=""img/blue-r.png"" border=""10"">","null","trial","32","","0.8,0.2","3:go_c","1",""
"null","","html-keyboard-response","474","762236","0.0-6.0-2.84","","<div style=""font-size:60px;"">+</div>","null","","","","","","",""
"null","","image-keyboard-response","475","763747","0.0-6.0-0.85","","img/green.png","null","trial","null","true","0.2,0.8","4:nogo_d","",""
"null","","html-keyboard-response","476","764760","0.0-6.0-1.85","","<img src=""img/green-r.png"">","null","trial","null","","0.2,0.8","4:nogo_d","1",""
"null","","html-keyboard-response","477","765771","0.0-6.0-2.85","","<div style=""font-size:60px;"">+</div>","null","","","","","","",""
"544","","image-keyboard-response","478","766315","0.0-6.0-0.86","","img/grey.png","32","trial","32","true","0.8,0.2","1:go_a","",""
"null","","html-keyboard-response","479","767330","0.0-6.0-1.86","","<img src=""img/grey-n.png"" border=""10"">","null","trial","32","","0.8,0.2","1:go_a","0",""
"null","","html-keyboard-response","480","768339","0.0-6.0-2.86","","<div style=""font-size:60px;"">+</div>","null","","","","","","",""
"null","","image-keyboard-response","481","769844","0.0-6.0-0.87","","img/orange.png","null","trial","null","true","0.2,0.8","2:nogo_b","",""
"null","","html-keyboard-response","482","770857","0.0-6.0-1.87","","<img src=""img/orange-n.png"">","null","trial","null","","0.2,0.8","2:nogo_b","0",""
"null","","html-keyboard-response","483","771869","0.0-6.0-2.87","","<div style=""font-size:60px;"">+</div>","null","","","","","","",""
"586","","image-keyboard-response","484","772456","0.0-6.0-0.88","","img/blue.png","32","trial","32","true","0.8,0.2","3:go_c","",""
"null","","html-keyboard-response","485","773465","0.0-6.0-1.88","","<img src=""img/blue-r.png"" border=""10"">","null","trial","32","","0.8,0.2","3:go_c","1",""
"null","","html-keyboard-response","486","774476","0.0-6.0-2.88","","<div style=""font-size:60px;"">+</div>","null","","","","","","",""
"null","","image-keyboard-response","487","775990","0.0-6.0-0.89","","img/orange.png","null","trial","null","true","0.2,0.8","2:nogo_b","",""
"null","","html-keyboard-response","488","776991","0.0-6.0-1.89","","<img src=""img/orange-r.png"">","null","trial","null","","0.2,0.8","2:nogo_b","1",""
"null","","html-keyboard-response","489","777998","0.0-6.0-2.89","","<div style=""font-size:60px;"">+</div>","null","","","","","","",""
"null","","image-keyboard-response","490","779502","0.0-6.0-0.90","","img/green.png","null","trial","null","true","0.2,0.8","4:nogo_d","",""
"null","","html-keyboard-response","491","780516","0.0-6.0-1.90","","<img src=""img/green-r.png"">","null","trial","null","","0.2,0.8","4:nogo_d","1",""
"null","","html-keyboard-response","492","781520","0.0-6.0-2.90","","<div style=""font-size:60px;"">+</div>","null","","","","","","",""
"563","","image-keyboard-response","493","782084","0.0-6.0-0.91","","img/grey.png","32","trial","32","true","0.8,0.2","1:go_a","",""
"null","","html-keyboard-response","494","783098","0.0-6.0-1.91","","<img src=""img/grey-r.png"" border=""10"">","null","trial","32","","0.8,0.2","1:go_a","1",""
"null","","html-keyboard-response","495","784113","0.0-6.0-2.91","","<div style=""font-size:60px;"">+</div>","null","","","","","","",""
"491","","image-keyboard-response","496","784605","0.0-6.0-0.92","","img/grey.png","32","trial","32","true","0.8,0.2","1:go_a","",""
"null","","html-keyboard-response","497","785612","0.0-6.0-1.92","","<img src=""img/grey-r.png"" border=""10"">","null","trial","32","","0.8,0.2","1:go_a","1",""
"null","","html-keyboard-response","498","786624","0.0-6.0-2.92","","<div style=""font-size:60px;"">+</div>","null","","","","","","",""
"null","","image-keyboard-response","499","788131","0.0-6.0-0.93","","img/green.png","null","trial","null","true","0.2,0.8","4:nogo_d","",""
"null","","html-keyboard-response","500","789145","0.0-6.0-1.93","","<img src=""img/green-r.png"">","null","trial","null","","0.2,0.8","4:nogo_d","1",""
"null","","html-keyboard-response","501","790156","0.0-6.0-2.93","","<div style=""font-size:60px;"">+</div>","null","","","","","","",""
"998","","image-keyboard-response","502","791155","0.0-6.0-0.94","","img/orange.png","32","trial","null","false","0.2,0.8","2:nogo_b","",""
"null","","html-keyboard-response","503","792167","0.0-6.0-1.94","","<img src=""img/orange-n.png"" border=""10"">","null","trial","null","","0.2,0.8","2:nogo_b","0",""
"null","","html-keyboard-response","504","793176","0.0-6.0-2.94","","<div style=""font-size:60px;"">+</div>","null","","","","","","",""
"459","","image-keyboard-response","505","793635","0.0-6.0-0.95","","img/blue.png","32","trial","32","true","0.8,0.2","3:go_c","",""
"null","","html-keyboard-response","506","794643","0.0-6.0-1.95","","<img src=""img/blue-r.png"" border=""10"">","null","trial","32","","0.8,0.2","3:go_c","1",""
"null","","html-keyboard-response","507","795646","0.0-6.0-2.95","","<div style=""font-size:60px;"">+</div>","null","","","","","","",""
"null","","image-keyboard-response","508","797156","0.0-6.0-0.96","","img/green.png","null","trial","null","true","0.2,0.8","4:nogo_d","",""
"null","","html-keyboard-response","509","798159","0.0-6.0-1.96","","<img src=""img/green-n.png"">","null","trial","null","","0.2,0.8","4:nogo_d","0",""
"null","","html-keyboard-response","510","799169","0.0-6.0-2.96","","<div style=""font-size:60px;"">+</div>","null","","","","","","",""
"621","","image-keyboard-response","511","799791","0.0-6.0-0.97","","img/blue.png","32","trial","32","true","0.8,0.2","3:go_c","",""
"null","","html-keyboard-response","512","800798","0.0-6.0-1.97","","<img src=""img/blue-r.png"" border=""10"">","null","trial","32","","0.8,0.2","3:go_c","1",""
"null","","html-keyboard-response","513","801804","0.0-6.0-2.97","","<div style=""font-size:60px;"">+</div>","null","","","","","","",""
"467","","image-keyboard-response","514","802273","0.0-6.0-0.98","","img/grey.png","32","trial","32","true","0.8,0.2","1:go_a","",""
"null","","html-keyboard-response","515","803276","0.0-6.0-1.98","","<img src=""img/grey-r.png"" border=""10"">","null","trial","32","","0.8,0.2","1:go_a","1",""
"null","","html-keyboard-response","516","804287","0.0-6.0-2.98","","<div style=""font-size:60px;"">+</div>","null","","","","","","",""
"null","","image-keyboard-response","517","805798","0.0-6.0-0.99","","img/orange.png","null","trial","null","true","0.2,0.8","2:nogo_b","",""
"null","","html-keyboard-response","518","806801","0.0-6.0-1.99","","<img src=""img/orange-r.png"">","null","trial","null","","0.2,0.8","2:nogo_b","1",""
"null","","html-keyboard-response","519","807808","0.0-6.0-2.99","","<div style=""font-size:60px;"">+</div>","null","","","","","","",""
"532","","image-keyboard-response","520","808341","0.0-6.0-0.100","","img/grey.png","32","trial","32","true","0.8,0.2","1:go_a","",""
"null","","html-keyboard-response","521","809351","0.0-6.0-1.100","","<img src=""img/grey-r.png"" border=""10"">","null","trial","32","","0.8,0.2","1:go_a","1",""
"null","","html-keyboard-response","522","810365","0.0-6.0-2.100","","<div style=""font-size:60px;"">+</div>","null","","","","","","",""
"null","","image-keyboard-response","523","811877","0.0-6.0-0.101","","img/green.png","null","trial","null","true","0.2,0.8","4:nogo_d","",""
"null","","html-keyboard-response","524","812886","0.0-6.0-1.101","","<img src=""img/green-r.png"">","null","trial","null","","0.2,0.8","4:nogo_d","1",""
"null","","html-keyboard-response","525","813896","0.0-6.0-2.101","","<div style=""font-size:60px;"">+</div>","null","","","","","","",""
"493","","image-keyboard-response","526","814389","0.0-6.0-0.102","","img/blue.png","32","trial","32","true","0.8,0.2","3:go_c","",""
"null","","html-keyboard-response","527","815391","0.0-6.0-1.102","","<img src=""img/blue-r.png"" border=""10"">","null","trial","32","","0.8,0.2","3:go_c","1",""
"null","","html-keyboard-response","528","816394","0.0-6.0-2.102","","<div style=""font-size:60px;"">+</div>","null","","","","","","",""
"null","","image-keyboard-response","529","817907","0.0-6.0-0.103","","img/orange.png","null","trial","null","true","0.2,0.8","2:nogo_b","",""
"null","","html-keyboard-response","530","818915","0.0-6.0-1.103","","<img src=""img/orange-n.png"">","null","trial","null","","0.2,0.8","2:nogo_b","0",""
"null","","html-keyboard-response","531","819924","0.0-6.0-2.103","","<div style=""font-size:60px;"">+</div>","null","","","","","","",""
"550","","image-keyboard-response","532","820474","0.0-6.0-0.104","","img/grey.png","32","trial","32","true","0.8,0.2","1:go_a","",""
"null","","html-keyboard-response","533","821485","0.0-6.0-1.104","","<img src=""img/grey-r.png"" border=""10"">","null","trial","32","","0.8,0.2","1:go_a","1",""
"null","","html-keyboard-response","534","822488","0.0-6.0-2.104","","<div style=""font-size:60px;"">+</div>","null","","","","","","",""
"null","","image-keyboard-response","535","824004","0.0-6.0-0.105","","img/orange.png","null","trial","null","true","0.2,0.8","2:nogo_b","",""
"null","","html-keyboard-response","536","825005","0.0-6.0-1.105","","<img src=""img/orange-n.png"">","null","trial","null","","0.2,0.8","2:nogo_b","0",""
"null","","html-keyboard-response","537","826011","0.0-6.0-2.105","","<div style=""font-size:60px;"">+</div>","null","","","","","","",""
"423","","image-keyboard-response","538","826434","0.0-6.0-0.106","","img/blue.png","32","trial","32","true","0.8,0.2","3:go_c","",""
"null","","html-keyboard-response","539","827450","0.0-6.0-1.106","","<img src=""img/blue-r.png"" border=""10"">","null","trial","32","","0.8,0.2","3:go_c","1",""
"null","","html-keyboard-response","540","828461","0.0-6.0-2.106","","<div style=""font-size:60px;"">+</div>","null","","","","","","",""
"null","","image-keyboard-response","541","829965","0.0-6.0-0.107","","img/green.png","null","trial","null","true","0.2,0.8","4:nogo_d","",""
"null","","html-keyboard-response","542","830971","0.0-6.0-1.107","","<img src=""img/green-n.png"">","null","trial","null","","0.2,0.8","4:nogo_d","0",""
"null","","html-keyboard-response","543","831981","0.0-6.0-2.107","","<div style=""font-size:60px;"">+</div>","null","","","","","","",""
"572","","image-keyboard-response","544","832553","0.0-6.0-0.108","","img/grey.png","32","trial","32","true","0.8,0.2","1:go_a","",""
"null","","html-keyboard-response","545","833565","0.0-6.0-1.108","","<img src=""img/grey-r.png"" border=""10"">","null","trial","32","","0.8,0.2","1:go_a","1",""
"null","","html-keyboard-response","546","834569","0.0-6.0-2.108","","<div style=""font-size:60px;"">+</div>","null","","","","","","",""
"null","","image-keyboard-response","547","836076","0.0-6.0-0.109","","img/green.png","null","trial","null","true","0.2,0.8","4:nogo_d","",""
"null","","html-keyboard-response","548","837080","0.0-6.0-1.109","","<img src=""img/green-r.png"">","null","trial","null","","0.2,0.8","4:nogo_d","1",""
"null","","html-keyboard-response","549","838088","0.0-6.0-2.109","","<div style=""font-size:60px;"">+</div>","null","","","","","","",""
"503","","image-keyboard-response","550","838592","0.0-6.0-0.110","","img/blue.png","32","trial","32","true","0.8,0.2","3:go_c","",""
"null","","html-keyboard-response","551","839597","0.0-6.0-1.110","","<img src=""img/blue-r.png"" border=""10"">","null","trial","32","","0.8,0.2","3:go_c","1",""
"null","","html-keyboard-response","552","840599","0.0-6.0-2.110","","<div style=""font-size:60px;"">+</div>","null","","","","","","",""
"null","","image-keyboard-response","553","842110","0.0-6.0-0.111","","img/orange.png","null","trial","null","true","0.2,0.8","2:nogo_b","",""
"null","","html-keyboard-response","554","843125","0.0-6.0-1.111","","<img src=""img/orange-r.png"">","null","trial","null","","0.2,0.8","2:nogo_b","1",""
"null","","html-keyboard-response","555","844128","0.0-6.0-2.111","","<div style=""font-size:60px;"">+</div>","null","","","","","","",""
"522","","image-keyboard-response","556","844651","0.0-6.0-0.112","","img/blue.png","32","trial","32","true","0.8,0.2","3:go_c","",""
"null","","html-keyboard-response","557","845660","0.0-6.0-1.112","","<img src=""img/blue-r.png"" border=""10"">","null","trial","32","","0.8,0.2","3:go_c","1",""
"null","","html-keyboard-response","558","846669","0.0-6.0-2.112","","<div style=""font-size:60px;"">+</div>","null","","","","","","",""
"null","","image-keyboard-response","559","848179","0.0-6.0-0.113","","img/orange.png","null","trial","null","true","0.2,0.8","2:nogo_b","",""
"null","","html-keyboard-response","560","849181","0.0-6.0-1.113","","<img src=""img/orange-r.png"">","null","trial","null","","0.2,0.8","2:nogo_b","1",""
"null","","html-keyboard-response","561","850188","0.0-6.0-2.113","","<div style=""font-size:60px;"">+</div>","null","","","","","","",""
"463","","image-keyboard-response","562","850651","0.0-6.0-0.114","","img/grey.png","32","trial","32","true","0.8,0.2","1:go_a","",""
"null","","html-keyboard-response","563","851659","0.0-6.0-1.114","","<img src=""img/grey-r.png"" border=""10"">","null","trial","32","","0.8,0.2","1:go_a","1",""
"null","","html-keyboard-response","564","852670","0.0-6.0-2.114","","<div style=""font-size:60px;"">+</div>","null","","","","","","",""
"null","","image-keyboard-response","565","854171","0.0-6.0-0.115","","img/green.png","null","trial","null","true","0.2,0.8","4:nogo_d","",""
"null","","html-keyboard-response","566","855176","0.0-6.0-1.115","","<img src=""img/green-n.png"">","null","trial","null","","0.2,0.8","4:nogo_d","0",""
"null","","html-keyboard-response","567","856185","0.0-6.0-2.115","","<div style=""font-size:60px;"">+</div>","null","","","","","","",""
"489","","image-keyboard-response","568","856676","0.0-6.0-0.116","","img/grey.png","32","trial","32","true","0.8,0.2","1:go_a","",""
"null","","html-keyboard-response","569","857678","0.0-6.0-1.116","","<img src=""img/grey-r.png"" border=""10"">","null","trial","32","","0.8,0.2","1:go_a","1",""
"null","","html-keyboard-response","570","858683","0.0-6.0-2.116","","<div style=""font-size:60px;"">+</div>","null","","","","","","",""
"894","","image-keyboard-response","571","859578","0.0-6.0-0.117","","img/blue.png","32","trial","32","true","0.8,0.2","3:go_c","",""
"null","","html-keyboard-response","572","860580","0.0-6.0-1.117","","<img src=""img/blue-r.png"" border=""10"">","null","trial","32","","0.8,0.2","3:go_c","1",""
"null","","html-keyboard-response","573","861581","0.0-6.0-2.117","","<div style=""font-size:60px;"">+</div>","null","","","","","","",""
"null","","image-keyboard-response","574","863082","0.0-6.0-0.118","","img/orange.png","null","trial","null","true","0.2,0.8","2:nogo_b","",""
"null","","html-keyboard-response","575","864088","0.0-6.0-1.118","","<img src=""img/orange-r.png"">","null","trial","null","","0.2,0.8","2:nogo_b","1",""
"null","","html-keyboard-response","576","865096","0.0-6.0-2.118","","<div style=""font-size:60px;"">+</div>","null","","","","","","",""
"null","","image-keyboard-response","577","866611","0.0-6.0-0.119","","img/green.png","null","trial","null","true","0.2,0.8","4:nogo_d","",""
"null","","html-keyboard-response","578","867617","0.0-6.0-1.119","","<img src=""img/green-r.png"">","null","trial","null","","0.2,0.8","4:nogo_d","1",""
"null","","html-keyboard-response","579","868626","0.0-6.0-2.119","","<div style=""font-size:60px;"">+</div>","null","","","","","","",""
"16277","","instructions","580","884903","0.0-7.0","[{""page_index"":0,""viewing_time"":16277}]","","","","","","","","",""
"1367","","image-keyboard-response","581","886270","0.0-8.0-0.0","","img/blue.png","32","trial","null","false","0.4,0.6","2:nogo_b","",""
"null","","html-keyboard-response","582","887272","0.0-8.0-1.0","","<img src=""img/blue-n.png"" border=""10"">","null","trial","null","","0.4,0.6","2:nogo_b","0",""
"null","","html-keyboard-response","583","888283","0.0-8.0-2.0","","<div style=""font-size:60px;"">+</div>","null","","","","","","",""
"507","","image-keyboard-response","584","888791","0.0-8.0-0.1","","img/yellow.png","32","trial","null","false","0.4,0.6","4:nogo_d","",""
"null","","html-keyboard-response","585","889794","0.0-8.0-1.1","","<img src=""img/yellow-r.png"" border=""10"">","null","trial","null","","0.4,0.6","4:nogo_d","1",""
"null","","html-keyboard-response","586","890802","0.0-8.0-2.1","","<div style=""font-size:60px;"">+</div>","null","","","","","","",""
"589","","image-keyboard-response","587","891392","0.0-8.0-0.2","","img/orange.png","32","trial","32","true","0.6,0.4","1:go_a","",""
"null","","html-keyboard-response","588","892397","0.0-8.0-1.2","","<img src=""img/orange-n.png"" border=""10"">","null","trial","32","","0.6,0.4","1:go_a","0",""
"null","","html-keyboard-response","589","893405","0.0-8.0-2.2","","<div style=""font-size:60px;"">+</div>","null","","","","","","",""
"477","","image-keyboard-response","590","893883","0.0-8.0-0.3","","img/grey.png","32","trial","32","true","0.6,0.4","3:go_c","",""
"null","","html-keyboard-response","591","894892","0.0-8.0-1.3","","<img src=""img/grey-r.png"" border=""10"">","null","trial","32","","0.6,0.4","3:go_c","1",""
"null","","html-keyboard-response","592","895906","0.0-8.0-2.3","","<div style=""font-size:60px;"">+</div>","null","","","","","","",""
"619","","image-keyboard-response","593","896525","0.0-8.0-0.4","","img/grey.png","32","trial","32","true","0.6,0.4","3:go_c","",""
"null","","html-keyboard-response","594","897540","0.0-8.0-1.4","","<img src=""img/grey-n.png"" border=""10"">","null","trial","32","","0.6,0.4","3:go_c","0",""
"null","","html-keyboard-response","595","898550","0.0-8.0-2.4","","<div style=""font-size:60px;"">+</div>","null","","","","","","",""
"570","","image-keyboard-response","596","899121","0.0-8.0-0.5","","img/orange.png","32","trial","32","true","0.6,0.4","1:go_a","",""
"null","","html-keyboard-response","597","900126","0.0-8.0-1.5","","<img src=""img/orange-r.png"" border=""10"">","null","trial","32","","0.6,0.4","1:go_a","1",""
"null","","html-keyboard-response","598","901141","0.0-8.0-2.5","","<div style=""font-size:60px;"">+</div>","null","","","","","","",""
"576","","image-keyboard-response","599","901717","0.0-8.0-0.6","","img/blue.png","32","trial","null","false","0.4,0.6","2:nogo_b","",""
"null","","html-keyboard-response","600","902721","0.0-8.0-1.6","","<img src=""img/blue-n.png"" border=""10"">","null","trial","null","","0.4,0.6","2:nogo_b","0",""
"null","","html-keyboard-response","601","903727","0.0-8.0-2.6","","<div style=""font-size:60px;"">+</div>","null","","","","","","",""
"500","","image-keyboard-response","602","904227","0.0-8.0-0.7","","img/yellow.png","32","trial","null","false","0.4,0.6","4:nogo_d","",""
"null","","html-keyboard-response","603","905238","0.0-8.0-1.7","","<img src=""img/yellow-n.png"" border=""10"">","null","trial","null","","0.4,0.6","4:nogo_d","0",""
"null","","html-keyboard-response","604","906252","0.0-8.0-2.7","","<div style=""font-size:60px;"">+</div>","null","","","","","","",""
"572","","image-keyboard-response","605","906823","0.0-8.0-0.8","","img/blue.png","32","trial","null","false","0.4,0.6","2:nogo_b","",""
"null","","html-keyboard-response","606","907834","0.0-8.0-1.8","","<img src=""img/blue-n.png"" border=""10"">","null","trial","null","","0.4,0.6","2:nogo_b","0",""
"null","","html-keyboard-response","607","908842","0.0-8.0-2.8","","<div style=""font-size:60px;"">+</div>","null","","","","","","",""
"650","","image-keyboard-response","608","909495","0.0-8.0-0.9","","img/orange.png","32","trial","32","true","0.6,0.4","1:go_a","",""
"null","","html-keyboard-response","609","910510","0.0-8.0-1.9","","<img src=""img/orange-n.png"" border=""10"">","null","trial","32","","0.6,0.4","1:go_a","0",""
"null","","html-keyboard-response","610","911518","0.0-8.0-2.9","","<div style=""font-size:60px;"">+</div>","null","","","","","","",""
"563","","image-keyboard-response","611","912082","0.0-8.0-0.10","","img/yellow.png","32","trial","null","false","0.4,0.6","4:nogo_d","",""
"null","","html-keyboard-response","612","913098","0.0-8.0-1.10","","<img src=""img/yellow-n.png"" border=""10"">","null","trial","null","","0.4,0.6","4:nogo_d","0",""
"null","","html-keyboard-response","613","914101","0.0-8.0-2.10","","<div style=""font-size:60px;"">+</div>","null","","","","","","",""
"762","","image-keyboard-response","614","914862","0.0-8.0-0.11","","img/grey.png","32","trial","32","true","0.6,0.4","3:go_c","",""
"null","","html-keyboard-response","615","915877","0.0-8.0-1.11","","<img src=""img/grey-n.png"" border=""10"">","null","trial","32","","0.6,0.4","3:go_c","0",""
"null","","html-keyboard-response","616","916878","0.0-8.0-2.11","","<div style=""font-size:60px;"">+</div>","null","","","","","","",""
"836","","image-keyboard-response","617","917715","0.0-8.0-0.12","","img/blue.png","32","trial","null","false","0.4,0.6","2:nogo_b","",""
"null","","html-keyboard-response","618","918716","0.0-8.0-1.12","","<img src=""img/blue-n.png"" border=""10"">","null","trial","null","","0.4,0.6","2:nogo_b","0",""
"null","","html-keyboard-response","619","919722","0.0-8.0-2.12","","<div style=""font-size:60px;"">+</div>","null","","","","","","",""
"894","","image-keyboard-response","620","920616","0.0-8.0-0.13","","img/orange.png","32","trial","32","true","0.6,0.4","1:go_a","",""
"null","","html-keyboard-response","621","921629","0.0-8.0-1.13","","<img src=""img/orange-n.png"" border=""10"">","null","trial","32","","0.6,0.4","1:go_a","0",""
"null","","html-keyboard-response","622","922637","0.0-8.0-2.13","","<div style=""font-size:60px;"">+</div>","null","","","","","","",""
"807","","image-keyboard-response","623","923444","0.0-8.0-0.14","","img/grey.png","32","trial","32","true","0.6,0.4","3:go_c","",""
"null","","html-keyboard-response","624","924455","0.0-8.0-1.14","","<img src=""img/grey-r.png"" border=""10"">","null","trial","32","","0.6,0.4","3:go_c","1",""
"null","","html-keyboard-response","625","925460","0.0-8.0-2.14","","<div style=""font-size:60px;"">+</div>","null","","","","","","",""
"669","","image-keyboard-response","626","926130","0.0-8.0-0.15","","img/yellow.png","32","trial","null","false","0.4,0.6","4:nogo_d","",""
"null","","html-keyboard-response","627","927142","0.0-8.0-1.15","","<img src=""img/yellow-n.png"" border=""10"">","null","trial","null","","0.4,0.6","4:nogo_d","0",""
"null","","html-keyboard-response","628","928145","0.0-8.0-2.15","","<div style=""font-size:60px;"">+</div>","null","","","","","","",""
"722","","image-keyboard-response","629","928867","0.0-8.0-0.16","","img/blue.png","32","trial","null","false","0.4,0.6","2:nogo_b","",""
"null","","html-keyboard-response","630","929880","0.0-8.0-1.16","","<img src=""img/blue-r.png"" border=""10"">","null","trial","null","","0.4,0.6","2:nogo_b","1",""
"null","","html-keyboard-response","631","930883","0.0-8.0-2.16","","<div style=""font-size:60px;"">+</div>","null","","","","","","",""
"null","","image-keyboard-response","632","932386","0.0-8.0-0.17","","img/orange.png","null","trial","32","false","0.6,0.4","1:go_a","",""
"null","","html-keyboard-response","633","933391","0.0-8.0-1.17","","<img src=""img/orange-n.png"">","null","trial","32","","0.6,0.4","1:go_a","0",""
"null","","html-keyboard-response","634","934404","0.0-8.0-2.17","","<div style=""font-size:60px;"">+</div>","null","","","","","","",""
"922","","image-keyboard-response","635","935327","0.0-8.0-0.18","","img/grey.png","32","trial","32","true","0.6,0.4","3:go_c","",""
"null","","html-keyboard-response","636","936341","0.0-8.0-1.18","","<img src=""img/grey-r.png"" border=""10"">","null","trial","32","","0.6,0.4","3:go_c","1",""
"null","","html-keyboard-response","637","937345","0.0-8.0-2.18","","<div style=""font-size:60px;"">+</div>","null","","","","","","",""
"543","","image-keyboard-response","638","937888","0.0-8.0-0.19","","img/yellow.png","32","trial","null","false","0.4,0.6","4:nogo_d","",""
"null","","html-keyboard-response","639","938889","0.0-8.0-1.19","","<img src=""img/yellow-n.png"" border=""10"">","null","trial","null","","0.4,0.6","4:nogo_d","0",""
"null","","html-keyboard-response","640","939896","0.0-8.0-2.19","","<div style=""font-size:60px;"">+</div>","null","","","","","","",""
"null","","image-keyboard-response","641","941410","0.0-8.0-0.20","","img/orange.png","null","trial","32","false","0.6,0.4","1:go_a","",""
"null","","html-keyboard-response","642","942415","0.0-8.0-1.20","","<img src=""img/orange-r.png"">","null","trial","32","","0.6,0.4","1:go_a","1",""
"null","","html-keyboard-response","643","943423","0.0-8.0-2.20","","<div style=""font-size:60px;"">+</div>","null","","","","","","",""
"533","","image-keyboard-response","644","943957","0.0-8.0-0.21","","img/grey.png","32","trial","32","true","0.6,0.4","3:go_c","",""
"null","","html-keyboard-response","645","944959","0.0-8.0-1.21","","<img src=""img/grey-r.png"" border=""10"">","null","trial","32","","0.6,0.4","3:go_c","1",""
"null","","html-keyboard-response","646","945968","0.0-8.0-2.21","","<div style=""font-size:60px;"">+</div>","null","","","","","","",""
"null","","image-keyboard-response","647","947474","0.0-8.0-0.22","","img/blue.png","null","trial","null","true","0.4,0.6","2:nogo_b","",""
"null","","html-keyboard-response","648","948478","0.0-8.0-1.22","","<img src=""img/blue-n.png"">","null","trial","null","","0.4,0.6","2:nogo_b","0",""
"null","","html-keyboard-response","649","949485","0.0-8.0-2.22","","<div style=""font-size:60px;"">+</div>","null","","","","","","",""
"722","","image-keyboard-response","650","950207","0.0-8.0-0.23","","img/yellow.png","32","trial","null","false","0.4,0.6","4:nogo_d","",""
"null","","html-keyboard-response","651","951217","0.0-8.0-1.23","","<img src=""img/yellow-n.png"" border=""10"">","null","trial","null","","0.4,0.6","4:nogo_d","0",""
"null","","html-keyboard-response","652","952223","0.0-8.0-2.23","","<div style=""font-size:60px;"">+</div>","null","","","","","","",""
"null","","image-keyboard-response","653","953738","0.0-8.0-0.24","","img/yellow.png","null","trial","null","true","0.4,0.6","4:nogo_d","",""
"null","","html-keyboard-response","654","954749","0.0-8.0-1.24","","<img src=""img/yellow-r.png"">","null","trial","null","","0.4,0.6","4:nogo_d","1",""
"null","","html-keyboard-response","655","955755","0.0-8.0-2.24","","<div style=""font-size:60px;"">+</div>","null","","","","","","",""
"null","","image-keyboard-response","656","957270","0.0-8.0-0.25","","img/orange.png","null","trial","32","false","0.6,0.4","1:go_a","",""
"null","","html-keyboard-response","657","958276","0.0-8.0-1.25","","<img src=""img/orange-n.png"">","null","trial","32","","0.6,0.4","1:go_a","0",""
"null","","html-keyboard-response","658","959279","0.0-8.0-2.25","","<div style=""font-size:60px;"">+</div>","null","","","","","","",""
"585","","image-keyboard-response","659","959865","0.0-8.0-0.26","","img/grey.png","32","trial","32","true","0.6,0.4","3:go_c","",""
"null","","html-keyboard-response","660","960871","0.0-8.0-1.26","","<img src=""img/grey-n.png"" border=""10"">","null","trial","32","","0.6,0.4","3:go_c","0",""
"null","","html-keyboard-response","661","961881","0.0-8.0-2.26","","<div style=""font-size:60px;"">+</div>","null","","","","","","",""
"1145","","image-keyboard-response","662","963027","0.0-8.0-0.27","","img/blue.png","32","trial","null","false","0.4,0.6","2:nogo_b","",""
"null","","html-keyboard-response","663","964028","0.0-8.0-1.27","","<img src=""img/blue-r.png"" border=""10"">","null","trial","null","","0.4,0.6","2:nogo_b","1",""
"null","","html-keyboard-response","664","965035","0.0-8.0-2.27","","<div style=""font-size:60px;"">+</div>","null","","","","","","",""
"617","","image-keyboard-response","665","965653","0.0-8.0-0.28","","img/grey.png","32","trial","32","true","0.6,0.4","3:go_c","",""
"null","","html-keyboard-response","666","966660","0.0-8.0-1.28","","<img src=""img/grey-n.png"" border=""10"">","null","trial","32","","0.6,0.4","3:go_c","0",""
"null","","html-keyboard-response","667","967662","0.0-8.0-2.28","","<div style=""font-size:60px;"">+</div>","null","","","","","","",""
"null","","image-keyboard-response","668","969176","0.0-8.0-0.29","","img/orange.png","null","trial","32","false","0.6,0.4","1:go_a","",""
"null","","html-keyboard-response","669","970178","0.0-8.0-1.29","","<img src=""img/orange-n.png"">","null","trial","32","","0.6,0.4","1:go_a","0",""
"null","","html-keyboard-response","670","971192","0.0-8.0-2.29","","<div style=""font-size:60px;"">+</div>","null","","","","","","",""
"751","","image-keyboard-response","671","971943","0.0-8.0-0.30","","img/blue.png","32","trial","null","false","0.4,0.6","2:nogo_b","",""
"null","","html-keyboard-response","672","972944","0.0-8.0-1.30","","<img src=""img/blue-n.png"" border=""10"">","null","trial","null","","0.4,0.6","2:nogo_b","0",""
"null","","html-keyboard-response","673","973959","0.0-8.0-2.30","","<div style=""font-size:60px;"">+</div>","null","","","","","","",""
"730","","image-keyboard-response","674","974689","0.0-8.0-0.31","","img/yellow.png","32","trial","null","false","0.4,0.6","4:nogo_d","",""
"null","","html-keyboard-response","675","975703","0.0-8.0-1.31","","<img src=""img/yellow-r.png"" border=""10"">","null","trial","null","","0.4,0.6","4:nogo_d","1",""
"null","","html-keyboard-response","676","976705","0.0-8.0-2.31","","<div style=""font-size:60px;"">+</div>","null","","","","","","",""
"695","","image-keyboard-response","677","977401","0.0-8.0-0.32","","img/yellow.png","32","trial","null","false","0.4,0.6","4:nogo_d","",""
"null","","html-keyboard-response","678","978411","0.0-8.0-1.32","","<img src=""img/yellow-n.png"" border=""10"">","null","trial","null","","0.4,0.6","4:nogo_d","0",""
"null","","html-keyboard-response","679","979419","0.0-8.0-2.32","","<div style=""font-size:60px;"">+</div>","null","","","","","","",""
"838","","image-keyboard-response","680","980259","0.0-8.0-0.33","","img/blue.png","32","trial","null","false","0.4,0.6","2:nogo_b","",""
"null","","html-keyboard-response","681","981274","0.0-8.0-1.33","","<img src=""img/blue-n.png"" border=""10"">","null","trial","null","","0.4,0.6","2:nogo_b","0",""
"null","","html-keyboard-response","682","982275","0.0-8.0-2.33","","<div style=""font-size:60px;"">+</div>","null","","","","","","",""
"709","","image-keyboard-response","683","982985","0.0-8.0-0.34","","img/grey.png","32","trial","32","true","0.6,0.4","3:go_c","",""
"null","","html-keyboard-response","684","983991","0.0-8.0-1.34","","<img src=""img/grey-r.png"" border=""10"">","null","trial","32","","0.6,0.4","3:go_c","1",""
"null","","html-keyboard-response","685","985003","0.0-8.0-2.34","","<div style=""font-size:60px;"">+</div>","null","","","","","","",""
"null","","image-keyboard-response","686","986518","0.0-8.0-0.35","","img/orange.png","null","trial","32","false","0.6,0.4","1:go_a","",""
"null","","html-keyboard-response","687","987519","0.0-8.0-1.35","","<img src=""img/orange-n.png"">","null","trial","32","","0.6,0.4","1:go_a","0",""
"null","","html-keyboard-response","688","988522","0.0-8.0-2.35","","<div style=""font-size:60px;"">+</div>","null","","","","","","",""
"null","","image-keyboard-response","689","990028","0.0-8.0-0.36","","img/orange.png","null","trial","32","false","0.6,0.4","1:go_a","",""
