"view_history","rt","trial_type","trial_index","time_elapsed","internal_node_id","subject_id","assignmentID","mturkID","hitID","task_version","stimulus","key_press","test_part","correct_response","correct","use_rew","which_stim","feedback_num","bonus","responses"
"[{""page_index"":0,""viewing_time"":765.0999999605119},{""page_index"":1,""viewing_time"":1194.514999864623},{""page_index"":2,""viewing_time"":712.4550000298768},{""page_index"":3,""viewing_time"":1040.2150000445545},{""page_index"":4,""viewing_time"":1408.9999999850988},{""page_index"":5,""viewing_time"":806.5700000151992},{""page_index"":6,""viewing_time"":916.1050000693649}]","6844.814999960363","instructions","0","6859","0.0-0.0","j7gcx","","","","v1","","","","","","","","","",""
"","1148.890000069514","image-keyboard-response","1","8010","0.0-1.0-0.0","j7gcx","","","","v1","img/test2.PNG","32","practice","null","false","","","","",""
"","null","html-keyboard-response","2","9513","0.0-1.0-1.0","j7gcx","","","","v1","<img src=""img/test2-neutral.PNG"" border=""10px; grey"">","null","","","","","","","",""
"","null","html-keyboard-response","3","11016","0.0-1.0-2.0","j7gcx","","","","v1","<div style=""font-size:60px;"">+</div>","null","","","","","","","",""
"","null","image-keyboard-response","4","13018","0.0-1.0-0.1","j7gcx","","","","v1","img/test3.PNG","null","practice","null","true","","","","",""
"","null","html-keyboard-response","5","14519","0.0-1.0-1.1","j7gcx","","","","v1","<img src=""img/test3-reward.PNG"">","null","","","","","","","",""
"","null","html-keyboard-response","6","16020","0.0-1.0-2.1","j7gcx","","","","v1","<div style=""font-size:60px;"">+</div>","null","","","","","","","",""
"","279.12999992258847","image-keyboard-response","7","16301","0.0-1.0-0.2","j7gcx","","","","v1","img/test1.PNG","32","practice","32","true","","","","",""
"","null","html-keyboard-response","8","18456","0.0-1.0-1.2","j7gcx","","","","v1","<img src=""img/test1-reward.PNG"" border=""10px; grey"">","null","","","","","","","",""
"","null","html-keyboard-response","9","20628","0.0-1.0-2.2","j7gcx","","","","v1","<div style=""font-size:60px;"">+</div>","null","","","","","","","",""
"[{""page_index"":0,""viewing_time"":223284.0749998577}]","223284.41499988548","instructions","10","243923","0.0-2.0","j7gcx","","","","v1","","","","","","","","","",""
"","676.1150001548231","image-keyboard-response","11","244601","0.0-3.0-0.0","j7gcx","","","","v1","img/yellow.png","32","trial","null","false","0.2,0.8","nogo_b","","",""
"","null","html-keyboard-response","12","246105","0.0-3.0-1.0","j7gcx","","","","v1","<img src=""img/yellow-n.png"" border=""10"">","null","trial","null","","0.2,0.8","nogo_b","0","",""
"","null","html-keyboard-response","13","247106","0.0-3.0-2.0","j7gcx","","","","v1","<div style=""font-size:60px;"">+</div>","null","","","","","","","",""
"","261.5200001746416","image-keyboard-response","14","247369","0.0-3.0-0.1","j7gcx","","","","v1","img/purple.png","32","trial","32","true","0.8,0.2","go_a","","",""
"","null","html-keyboard-response","15","248871","0.0-3.0-1.1","j7gcx","","","","v1","<img src=""img/purple-r.png"" border=""10"">","null","trial","32","","0.8,0.2","go_a","0","",""
"","null","html-keyboard-response","16","249875","0.0-3.0-2.1","j7gcx","","","","v1","<div style=""font-size:60px;"">+</div>","null","","","","","","","",""
"","null","image-keyboard-response","17","251376","0.0-3.0-0.2","j7gcx","","","","v1","img/yellow.png","null","trial","null","true","0.2,0.8","nogo_b","","",""
"","null","html-keyboard-response","18","252879","0.0-3.0-1.2","j7gcx","","","","v1","<img src=""img/yellow-r.png"">","null","trial","null","","0.2,0.8","nogo_b","0","",""
"","null","html-keyboard-response","19","253879","0.0-3.0-2.2","j7gcx","","","","v1","<div style=""font-size:60px;"">+</div>","null","","","","","","","",""
"","320.43499988503754","image-keyboard-response","20","254201","0.0-3.0-0.3","j7gcx","","","","v1","img/purple.png","32","trial","32","true","0.8,0.2","go_a","","",""
"","null","html-keyboard-response","21","255703","0.0-3.0-1.3","j7gcx","","","","v1","<img src=""img/purple-r.png"" border=""10"">","null","trial","32","","0.8,0.2","go_a","0","",""
"","null","html-keyboard-response","22","256706","0.0-3.0-2.3","j7gcx","","","","v1","<div style=""font-size:60px;"">+</div>","null","","","","","","","",""
"","616.5950000286102","image-keyboard-response","23","257324","0.0-3.0-0.4","j7gcx","","","","v1","img/purple.png","32","trial","32","true","0.8,0.2","go_a","","",""
"","null","html-keyboard-response","24","258826","0.0-3.0-1.4","j7gcx","","","","v1","<img src=""img/purple-r.png"" border=""10"">","null","trial","32","","0.8,0.2","go_a","0","",""
"","null","html-keyboard-response","25","259827","0.0-3.0-2.4","j7gcx","","","","v1","<div style=""font-size:60px;"">+</div>","null","","","","","","","",""
"","null","image-keyboard-response","26","261328","0.0-3.0-0.5","j7gcx","","","","v1","img/yellow.png","null","trial","null","true","0.2,0.8","nogo_b","","",""
"","null","html-keyboard-response","27","262831","0.0-3.0-1.5","j7gcx","","","","v1","<img src=""img/yellow-r.png"">","null","trial","null","","0.2,0.8","nogo_b","0","",""
"","null","html-keyboard-response","28","263834","0.0-3.0-2.5","j7gcx","","","","v1","<div style=""font-size:60px;"">+</div>","null","","","","","","","",""
"","313.76000004820526","image-keyboard-response","29","264149","0.0-3.0-0.6","j7gcx","","","","v1","img/purple.png","32","trial","32","true","0.8,0.2","go_a","","",""
"","null","html-keyboard-response","30","265652","0.0-3.0-1.6","j7gcx","","","","v1","<img src=""img/purple-r.png"" border=""10"">","null","trial","32","","0.8,0.2","go_a","0","",""
"","null","html-keyboard-response","31","266653","0.0-3.0-2.6","j7gcx","","","","v1","<div style=""font-size:60px;"">+</div>","null","","","","","","","",""
"","null","image-keyboard-response","32","268155","0.0-3.0-0.7","j7gcx","","","","v1","img/yellow.png","null","trial","null","true","0.2,0.8","nogo_b","","",""
"","null","html-keyboard-response","33","269657","0.0-3.0-1.7","j7gcx","","","","v1","<img src=""img/yellow-r.png"">","null","trial","null","","0.2,0.8","nogo_b","0","",""
"","null","html-keyboard-response","34","270659","0.0-3.0-2.7","j7gcx","","","","v1","<div style=""font-size:60px;"">+</div>","null","","","","","","","",""
"","303.8900000974536","image-keyboard-response","35","270964","0.0-3.0-0.8","j7gcx","","","","v1","img/purple.png","32","trial","32","true","0.8,0.2","go_a","","",""
"","null","html-keyboard-response","36","272466","0.0-3.0-1.8","j7gcx","","","","v1","<img src=""img/purple-r.png"" border=""10"">","null","trial","32","","0.8,0.2","go_a","0","",""
"","null","html-keyboard-response","37","273468","0.0-3.0-2.8","j7gcx","","","","v1","<div style=""font-size:60px;"">+</div>","null","","","","","","","",""
"","null","image-keyboard-response","38","274972","0.0-3.0-0.9","j7gcx","","","","v1","img/yellow.png","null","trial","null","true","0.2,0.8","nogo_b","","",""
"","null","html-keyboard-response","39","276475","0.0-3.0-1.9","j7gcx","","","","v1","<img src=""img/yellow-r.png"">","null","trial","null","","0.2,0.8","nogo_b","0","",""
"","null","html-keyboard-response","40","277477","0.0-3.0-2.9","j7gcx","","","","v1","<div style=""font-size:60px;"">+</div>","null","","","","","","","",""
"[{""page_index"":0,""viewing_time"":1171.4550000615418}]","1171.695000026375","instructions","41","278649","0.0-4.0","j7gcx","","","","v1","","","","","","","","","",""
"","null","image-keyboard-response","42","280151","0.0-5.0-0.0","j7gcx","","","","v1","img/grey.png","null","trial","null","true","0.4,0.6","nogo_b","","",""
"","null","html-keyboard-response","43","281655","0.0-5.0-1.0","j7gcx","","","","v1","<img src=""img/grey-r.png"">","null","trial","null","","0.4,0.6","nogo_b","0","",""
"","null","html-keyboard-response","44","282658","0.0-5.0-2.0","j7gcx","","","","v1","<div style=""font-size:60px;"">+</div>","null","","","","","","","",""
"","368.6200000811368","image-keyboard-response","45","283028","0.0-5.0-0.1","j7gcx","","","","v1","img/orange.png","32","trial","32","true","0.6,0.4","go_a","","",""
"","null","html-keyboard-response","46","284531","0.0-5.0-1.1","j7gcx","","","","v1","<img src=""img/orange-r.png"" border=""10"">","null","trial","32","","0.6,0.4","go_a","0","",""
"","null","html-keyboard-response","47","285533","0.0-5.0-2.1","j7gcx","","","","v1","<div style=""font-size:60px;"">+</div>","null","","","","","","","",""
"","542.2350000590086","image-keyboard-response","48","286076","0.0-5.0-0.2","j7gcx","","","","v1","img/yellow.png","32","trial","32","true","0.6,0.4","go_c","","",""
"","null","html-keyboard-response","49","287579","0.0-5.0-1.2","j7gcx","","","","v1","<img src=""img/yellow-n.png"" border=""10"">","null","trial","32","","0.6,0.4","go_c","0","",""
"","null","html-keyboard-response","50","288580","0.0-5.0-2.2","j7gcx","","","","v1","<div style=""font-size:60px;"">+</div>","null","","","","","","","",""
"","329.7399999573827","image-keyboard-response","51","288910","0.0-5.0-0.3","j7gcx","","","","v1","img/purple.png","32","trial","null","false","0.4,0.6","nogo_d","","",""
"","null","html-keyboard-response","52","290413","0.0-5.0-1.3","j7gcx","","","","v1","<img src=""img/purple-r.png"" border=""10"">","null","trial","null","","0.4,0.6","nogo_d","0","",""
"","null","html-keyboard-response","53","291415","0.0-5.0-2.3","j7gcx","","","","v1","<div style=""font-size:60px;"">+</div>","null","","","","","","","",""
"","388.4599998127669","image-keyboard-response","54","291804","0.0-5.0-0.4","j7gcx","","","","v1","img/purple.png","32","trial","null","false","0.4,0.6","nogo_d","","",""
"","null","html-keyboard-response","55","293308","0.0-5.0-1.4","j7gcx","","","","v1","<img src=""img/purple-r.png"" border=""10"">","null","trial","null","","0.4,0.6","nogo_d","0","",""
"","null","html-keyboard-response","56","294309","0.0-5.0-2.4","j7gcx","","","","v1","<div style=""font-size:60px;"">+</div>","null","","","","","","","",""
"","699.8799999710172","image-keyboard-response","57","295010","0.0-5.0-0.5","j7gcx","","","","v1","img/orange.png","32","trial","32","true","0.6,0.4","go_a","","",""
"","null","html-keyboard-response","58","296512","0.0-5.0-1.5","j7gcx","","","","v1","<img src=""img/orange-r.png"" border=""10"">","null","trial","32","","0.6,0.4","go_a","0","",""
"","null","html-keyboard-response","59","297513","0.0-5.0-2.5","j7gcx","","","","v1","<div style=""font-size:60px;"">+</div>","null","","","","","","","",""
"","630.9950000140816","image-keyboard-response","60","298146","0.0-5.0-0.6","j7gcx","","","","v1","img/yellow.png","32","trial","32","true","0.6,0.4","go_c","","",""
"","null","html-keyboard-response","61","299649","0.0-5.0-1.6","j7gcx","","","","v1","<img src=""img/yellow-n.png"" border=""10"">","null","trial","32","","0.6,0.4","go_c","0","",""
"","null","html-keyboard-response","62","300652","0.0-5.0-2.6","j7gcx","","","","v1","<div style=""font-size:60px;"">+</div>","null","","","","","","","",""
"","507.47499987483025","image-keyboard-response","63","301160","0.0-5.0-0.7","j7gcx","","","","v1","img/grey.png","32","trial","null","false","0.4,0.6","nogo_b","","",""
"","null","html-keyboard-response","64","302661","0.0-5.0-1.7","j7gcx","","","","v1","<img src=""img/grey-r.png"" border=""10"">","null","trial","null","","0.4,0.6","nogo_b","0","",""
"","null","html-keyboard-response","65","303663","0.0-5.0-2.7","j7gcx","","","","v1","<div style=""font-size:60px;"">+</div>","null","","","","","","","",""
"","378.7799999117851","image-keyboard-response","66","304043","0.0-5.0-0.8","j7gcx","","","","v1","img/grey.png","32","trial","null","false","0.4,0.6","nogo_b","","",""
"","null","html-keyboard-response","67","305545","0.0-5.0-1.8","j7gcx","","","","v1","<img src=""img/grey-r.png"" border=""10"">","null","trial","null","","0.4,0.6","nogo_b","0","",""
"","null","html-keyboard-response","68","306546","0.0-5.0-2.8","j7gcx","","","","v1","<div style=""font-size:60px;"">+</div>","null","","","","","","","",""
"","473.340000025928","image-keyboard-response","69","307022","0.0-5.0-0.9","j7gcx","","","","v1","img/purple.png","32","trial","null","false","0.4,0.6","nogo_d","","",""
"","null","html-keyboard-response","70","308526","0.0-5.0-1.9","j7gcx","","","","v1","<img src=""img/purple-r.png"" border=""10"">","null","trial","null","","0.4,0.6","nogo_d","0","",""
"","null","html-keyboard-response","71","309527","0.0-5.0-2.9","j7gcx","","","","v1","<div style=""font-size:60px;"">+</div>","null","","","","","","","",""
"","null","image-keyboard-response","72","311029","0.0-5.0-0.10","j7gcx","","","","v1","img/yellow.png","null","trial","32","false","0.6,0.4","go_c","","",""
"","null","html-keyboard-response","73","312531","0.0-5.0-1.10","j7gcx","","","","v1","<img src=""img/yellow-n.png"">","null","trial","32","","0.6,0.4","go_c","0","",""
"","null","html-keyboard-response","74","313533","0.0-5.0-2.10","j7gcx","","","","v1","<div style=""font-size:60px;"">+</div>","null","","","","","","","",""
"","740.5900000594556","image-keyboard-response","75","314274","0.0-5.0-0.11","j7gcx","","","","v1","img/orange.png","32","trial","32","true","0.6,0.4","go_a","","",""
"","null","html-keyboard-response","76","315776","0.0-5.0-1.11","j7gcx","","","","v1","<img src=""img/orange-r.png"" border=""10"">","null","trial","32","","0.6,0.4","go_a","0","",""
"","null","html-keyboard-response","77","316778","0.0-5.0-2.11","j7gcx","","","","v1","<div style=""font-size:60px;"">+</div>","null","","","","","","","",""
"","415.379999903962","image-keyboard-response","78","317194","0.0-5.0-0.12","j7gcx","","","","v1","img/purple.png","32","trial","null","false","0.4,0.6","nogo_d","","",""
"","null","html-keyboard-response","79","318696","0.0-5.0-1.12","j7gcx","","","","v1","<img src=""img/purple-n.png"" border=""10"">","null","trial","null","","0.4,0.6","nogo_d","0","",""
"","null","html-keyboard-response","80","319697","0.0-5.0-2.12","j7gcx","","","","v1","<div style=""font-size:60px;"">+</div>","null","","","","","","","",""
"","1008.5450001060963","image-keyboard-response","81","320707","0.0-5.0-0.13","j7gcx","","","","v1","img/orange.png","32","trial","32","true","0.6,0.4","go_a","","",""
"","null","html-keyboard-response","82","322209","0.0-5.0-1.13","j7gcx","","","","v1","<img src=""img/orange-r.png"" border=""10"">","null","trial","32","","0.6,0.4","go_a","0","",""
"","null","html-keyboard-response","83","323209","0.0-5.0-2.13","j7gcx","","","","v1","<div style=""font-size:60px;"">+</div>","null","","","","","","","",""
"","875.535000115633","image-keyboard-response","84","324085","0.0-5.0-0.14","j7gcx","","","","v1","img/yellow.png","32","trial","32","true","0.6,0.4","go_c","","",""
"","null","html-keyboard-response","85","325589","0.0-5.0-1.14","j7gcx","","","","v1","<img src=""img/yellow-r.png"" border=""10"">","null","trial","32","","0.6,0.4","go_c","0","",""
"","null","html-keyboard-response","86","326592","0.0-5.0-2.14","j7gcx","","","","v1","<div style=""font-size:60px;"">+</div>","null","","","","","","","",""
"","297.9300001170486","image-keyboard-response","87","326891","0.0-5.0-0.15","j7gcx","","","","v1","img/grey.png","32","trial","null","false","0.4,0.6","nogo_b","","",""
"","null","html-keyboard-response","88","328394","0.0-5.0-1.15","j7gcx","","","","v1","<img src=""img/grey-r.png"" border=""10"">","null","trial","null","","0.4,0.6","nogo_b","0","",""
"","null","html-keyboard-response","89","329394","0.0-5.0-2.15","j7gcx","","","","v1","<div style=""font-size:60px;"">+</div>","null","","","","","","","",""
"","278.6449999548495","image-keyboard-response","90","329674","0.0-5.0-0.16","j7gcx","","","","v1","img/grey.png","32","trial","null","false","0.4,0.6","nogo_b","","",""
"","null","html-keyboard-response","91","331176","0.0-5.0-1.16","j7gcx","","","","v1","<img src=""img/grey-n.png"" border=""10"">","null","trial","null","","0.4,0.6","nogo_b","0","",""
"","null","html-keyboard-response","92","332176","0.0-5.0-2.16","j7gcx","","","","v1","<div style=""font-size:60px;"">+</div>","null","","","","","","","",""
"","288.315000012517","image-keyboard-response","93","332466","0.0-5.0-0.17","j7gcx","","","","v1","img/orange.png","32","trial","32","true","0.6,0.4","go_a","","",""
"","null","html-keyboard-response","94","333968","0.0-5.0-1.17","j7gcx","","","","v1","<img src=""img/orange-n.png"" border=""10"">","null","trial","32","","0.6,0.4","go_a","0","",""
"","null","html-keyboard-response","95","334969","0.0-5.0-2.17","j7gcx","","","","v1","<div style=""font-size:60px;"">+</div>","null","","","","","","","",""
"","450.3099999856204","image-keyboard-response","96","335420","0.0-5.0-0.18","j7gcx","","","","v1","img/purple.png","32","trial","null","false","0.4,0.6","nogo_d","","",""
"","null","html-keyboard-response","97","336923","0.0-5.0-1.18","j7gcx","","","","v1","<img src=""img/purple-r.png"" border=""10"">","null","trial","null","","0.4,0.6","nogo_d","0","",""
"","null","html-keyboard-response","98","337926","0.0-5.0-2.18","j7gcx","","","","v1","<div style=""font-size:60px;"">+</div>","null","","","","","","","",""
"","218.58999994583428","image-keyboard-response","99","338145","0.0-5.0-0.19","j7gcx","","","","v1","img/yellow.png","32","trial","32","true","0.6,0.4","go_c","","",""
"","null","html-keyboard-response","100","339649","0.0-5.0-1.19","j7gcx","","","","v1","<img src=""img/yellow-r.png"" border=""10"">","null","trial","32","","0.6,0.4","go_c","0","",""
"","null","html-keyboard-response","101","340651","0.0-5.0-2.19","j7gcx","","","","v1","<div style=""font-size:60px;"">+</div>","null","","","","","","","",""
"[{""page_index"":0,""viewing_time"":1216.9700001832098}]","1217.2199999913573","instructions","102","341868","0.0-6.0","j7gcx","","","","v1","","","","","","","","","",""
"","578.5850000102073","image-keyboard-response","103","342448","0.0-7.0-0.0","j7gcx","","","","v1","img/pink.png","32","trial","32","true","0.8,0.2","go_a","","",""
"","null","html-keyboard-response","104","343950","0.0-7.0-1.0","j7gcx","","","","v1","<img src=""img/pink-n.png"" border=""10"">","null","trial","32","","0.8,0.2","go_a","0","",""
"","null","html-keyboard-response","105","344951","0.0-7.0-2.0","j7gcx","","","","v1","<div style=""font-size:60px;"">+</div>","null","","","","","","","",""
"","251.0299999266863","image-keyboard-response","106","345203","0.0-7.0-0.1","j7gcx","","","","v1","img/orange.png","32","trial","null","false","0.2,0.8","nogo_b","","",""
"","null","html-keyboard-response","107","346708","0.0-7.0-1.1","j7gcx","","","","v1","<img src=""img/orange-n.png"" border=""10"">","null","trial","null","","0.2,0.8","nogo_b","0","",""
"","null","html-keyboard-response","108","347709","0.0-7.0-2.1","j7gcx","","","","v1","<div style=""font-size:60px;"">+</div>","null","","","","","","","",""
"","114.5750000141561","image-keyboard-response","109","347825","0.0-7.0-0.2","j7gcx","","","","v1","img/green.png","32","trial","null","false","0.2,0.8","nogo_d","","",""
"","null","html-keyboard-response","110","349327","0.0-7.0-1.2","j7gcx","","","","v1","<img src=""img/green-n.png"" border=""10"">","null","trial","null","","0.2,0.8","nogo_d","0","",""
"","null","html-keyboard-response","111","350327","0.0-7.0-2.2","j7gcx","","","","v1","<div style=""font-size:60px;"">+</div>","null","","","","","","","",""
"","20.655000116676092","image-keyboard-response","112","350349","0.0-7.0-0.3","j7gcx","","","","v1","img/purple.png","32","trial","32","true","0.8,0.2","go_c","","",""
"","null","html-keyboard-response","113","351851","0.0-7.0-1.3","j7gcx","","","","v1","<img src=""img/purple-r.png"" border=""10"">","null","trial","32","","0.8,0.2","go_c","0","",""
"","null","html-keyboard-response","114","352854","0.0-7.0-2.3","j7gcx","","","","v1","<div style=""font-size:60px;"">+</div>","null","","","","","","","",""
"","277.87000010721385","image-keyboard-response","115","353133","0.0-7.0-0.4","j7gcx","","","","v1","img/orange.png","32","trial","null","false","0.2,0.8","nogo_b","","",""
"","null","html-keyboard-response","116","354637","0.0-7.0-1.4","j7gcx","","","","v1","<img src=""img/orange-n.png"" border=""10"">","null","trial","null","","0.2,0.8","nogo_b","0","",""
"","null","html-keyboard-response","117","355639","0.0-7.0-2.4","j7gcx","","","","v1","<div style=""font-size:60px;"">+</div>","null","","","","","","","",""
"","1140.0250000879169","image-keyboard-response","118","356780","0.0-7.0-0.5","j7gcx","","","","v1","img/green.png","32","trial","null","false","0.2,0.8","nogo_d","","",""
"","null","html-keyboard-response","119","358282","0.0-7.0-1.5","j7gcx","","","","v1","<img src=""img/green-n.png"" border=""10"">","null","trial","null","","0.2,0.8","nogo_d","0","",""
"","null","html-keyboard-response","120","359284","0.0-7.0-2.5","j7gcx","","","","v1","<div style=""font-size:60px;"">+</div>","null","","","","","","","",""
"","431.3249997794628","image-keyboard-response","121","359716","0.0-7.0-0.6","j7gcx","","","","v1","img/pink.png","32","trial","32","true","0.8,0.2","go_a","","",""
"","null","html-keyboard-response","122","361219","0.0-7.0-1.6","j7gcx","","","","v1","<img src=""img/pink-r.png"" border=""10"">","null","trial","32","","0.8,0.2","go_a","0","",""
"","null","html-keyboard-response","123","362222","0.0-7.0-2.6","j7gcx","","","","v1","<div style=""font-size:60px;"">+</div>","null","","","","","","","",""
"","679.0849999524653","image-keyboard-response","124","362902","0.0-7.0-0.7","j7gcx","","","","v1","img/purple.png","32","trial","32","true","0.8,0.2","go_c","","",""
"","null","html-keyboard-response","125","364406","0.0-7.0-1.7","j7gcx","","","","v1","<img src=""img/purple-r.png"" border=""10"">","null","trial","32","","0.8,0.2","go_c","0","",""
"","null","html-keyboard-response","126","365409","0.0-7.0-2.7","j7gcx","","","","v1","<div style=""font-size:60px;"">+</div>","null","","","","","","","",""
"","null","image-keyboard-response","127","366911","0.0-7.0-0.8","j7gcx","","","","v1","img/orange.png","null","trial","null","true","0.2,0.8","nogo_b","","",""
"","null","html-keyboard-response","128","368413","0.0-7.0-1.8","j7gcx","","","","v1","<img src=""img/orange-n.png"">","null","trial","null","","0.2,0.8","nogo_b","0","",""
"","null","html-keyboard-response","129","369414","0.0-7.0-2.8","j7gcx","","","","v1","<div style=""font-size:60px;"">+</div>","null","","","","","","","",""
"","null","image-keyboard-response","130","370916","0.0-7.0-0.9","j7gcx","","","","v1","img/green.png","null","trial","null","true","0.2,0.8","nogo_d","","",""
"","null","html-keyboard-response","131","372418","0.0-7.0-1.9","j7gcx","","","","v1","<img src=""img/green-r.png"">","null","trial","null","","0.2,0.8","nogo_d","0","",""
"","null","html-keyboard-response","132","373419","0.0-7.0-2.9","j7gcx","","","","v1","<div style=""font-size:60px;"">+</div>","null","","","","","","","",""
"","1033.15500007011","image-keyboard-response","133","374454","0.0-7.0-0.10","j7gcx","","","","v1","img/purple.png","32","trial","32","true","0.8,0.2","go_c","","",""
"","null","html-keyboard-response","134","375956","0.0-7.0-1.10","j7gcx","","","","v1","<img src=""img/purple-r.png"" border=""10"">","null","trial","32","","0.8,0.2","go_c","0","",""
"","null","html-keyboard-response","135","376959","0.0-7.0-2.10","j7gcx","","","","v1","<div style=""font-size:60px;"">+</div>","null","","","","","","","",""
"","348.1799999717623","image-keyboard-response","136","377309","0.0-7.0-0.11","j7gcx","","","","v1","img/pink.png","32","trial","32","true","0.8,0.2","go_a","","",""
"","null","html-keyboard-response","137","378811","0.0-7.0-1.11","j7gcx","","","","v1","<img src=""img/pink-r.png"" border=""10"">","null","trial","32","","0.8,0.2","go_a","0","",""
"","null","html-keyboard-response","138","379812","0.0-7.0-2.11","j7gcx","","","","v1","<div style=""font-size:60px;"">+</div>","null","","","","","","","",""
"","null","image-keyboard-response","139","381313","0.0-7.0-0.12","j7gcx","","","","v1","img/green.png","null","trial","null","true","0.2,0.8","nogo_d","","",""
"","null","html-keyboard-response","140","382815","0.0-7.0-1.12","j7gcx","","","","v1","<img src=""img/green-r.png"">","null","trial","null","","0.2,0.8","nogo_d","0","",""
"","null","html-keyboard-response","141","383818","0.0-7.0-2.12","j7gcx","","","","v1","<div style=""font-size:60px;"">+</div>","null","","","","","","","",""
"","1403.4049999900162","image-keyboard-response","142","385222","0.0-7.0-0.13","j7gcx","","","","v1","img/purple.png","32","trial","32","true","0.8,0.2","go_c","","",""
"","null","html-keyboard-response","143","386726","0.0-7.0-1.13","j7gcx","","","","v1","<img src=""img/purple-r.png"" border=""10"">","null","trial","32","","0.8,0.2","go_c","0","",""
"","null","html-keyboard-response","144","387727","0.0-7.0-2.13","j7gcx","","","","v1","<div style=""font-size:60px;"">+</div>","null","","","","","","","",""
"","741.4700000081211","image-keyboard-response","145","388469","0.0-7.0-0.14","j7gcx","","","","v1","img/pink.png","32","trial","32","true","0.8,0.2","go_a","","",""
"","null","html-keyboard-response","146","389974","0.0-7.0-1.14","j7gcx","","","","v1","<img src=""img/pink-r.png"" border=""10"">","null","trial","32","","0.8,0.2","go_a","0","",""
"","null","html-keyboard-response","147","390974","0.0-7.0-2.14","j7gcx","","","","v1","<div style=""font-size:60px;"">+</div>","null","","","","","","","",""
"","null","image-keyboard-response","148","392476","0.0-7.0-0.15","j7gcx","","","","v1","img/orange.png","null","trial","null","true","0.2,0.8","nogo_b","","",""
"","null","html-keyboard-response","149","393978","0.0-7.0-1.15","j7gcx","","","","v1","<img src=""img/orange-r.png"">","null","trial","null","","0.2,0.8","nogo_b","0","",""
"","null","html-keyboard-response","150","394979","0.0-7.0-2.15","j7gcx","","","","v1","<div style=""font-size:60px;"">+</div>","null","","","","","","","",""
"","null","image-keyboard-response","151","396481","0.0-7.0-0.16","j7gcx","","","","v1","img/orange.png","null","trial","null","true","0.2,0.8","nogo_b","","",""
"","null","html-keyboard-response","152","397985","0.0-7.0-1.16","j7gcx","","","","v1","<img src=""img/orange-n.png"">","null","trial","null","","0.2,0.8","nogo_b","0","",""
"","null","html-keyboard-response","153","398986","0.0-7.0-2.16","j7gcx","","","","v1","<div style=""font-size:60px;"">+</div>","null","","","","","","","",""
"","882.8250002115965","image-keyboard-response","154","399870","0.0-7.0-0.17","j7gcx","","","","v1","img/green.png","32","trial","null","false","0.2,0.8","nogo_d","","",""
"","null","html-keyboard-response","155","401374","0.0-7.0-1.17","j7gcx","","","","v1","<img src=""img/green-n.png"" border=""10"">","null","trial","null","","0.2,0.8","nogo_d","0","",""
"","null","html-keyboard-response","156","402378","0.0-7.0-2.17","j7gcx","","","","v1","<div style=""font-size:60px;"">+</div>","null","","","","","","","",""
"","922.5549998227507","image-keyboard-response","157","403302","0.0-7.0-0.18","j7gcx","","","","v1","img/pink.png","32","trial","32","true","0.8,0.2","go_a","","",""
"","null","html-keyboard-response","158","404804","0.0-7.0-1.18","j7gcx","","","","v1","<img src=""img/pink-r.png"" border=""10"">","null","trial","32","","0.8,0.2","go_a","0","",""
"","null","html-keyboard-response","159","405805","0.0-7.0-2.18","j7gcx","","","","v1","<div style=""font-size:60px;"">+</div>","null","","","","","","","",""
"","658.3300000056624","image-keyboard-response","160","406464","0.0-7.0-0.19","j7gcx","","","","v1","img/purple.png","32","trial","32","true","0.8,0.2","go_c","","",""
"","null","html-keyboard-response","161","407966","0.0-7.0-1.19","j7gcx","","","","v1","<img src=""img/purple-r.png"" border=""10"">","null","trial","32","","0.8,0.2","go_c","0","",""
"","null","html-keyboard-response","162","408969","0.0-7.0-2.19","j7gcx","","","","v1","<div style=""font-size:60px;"">+</div>","null","","","","","","","",""
"[{""page_index"":0,""viewing_time"":965.1000001467764}]","965.3650000691414","instructions","163","409935","0.0-8.0","j7gcx","","","","v1","","","","","","","","","",""
"","624.1099999751896","image-keyboard-response","164","410560","0.0-9.0-0.0","j7gcx","","","","v1","img/blue.png","32","trial","32","true","0.8,0.2","go_a","","",""
"","null","html-keyboard-response","165","412062","0.0-9.0-1.0","j7gcx","","","","v1","<img src=""img/blue-r.png"" border=""10"">","null","trial","32","","0.8,0.2","go_a","0","",""
"","null","html-keyboard-response","166","413063","0.0-9.0-2.0","j7gcx","","","","v1","<div style=""font-size:60px;"">+</div>","null","","","","","","","",""
"","263.10000009834766","image-keyboard-response","167","413327","0.0-9.0-0.1","j7gcx","","","","v1","img/orange.png","32","trial","null","false","0.4,0.6","nogo_d","","",""
"","null","html-keyboard-response","168","414829","0.0-9.0-1.1","j7gcx","","","","v1","<img src=""img/orange-r.png"" border=""10"">","null","trial","null","","0.4,0.6","nogo_d","0","",""
"","null","html-keyboard-response","169","415830","0.0-9.0-2.1","j7gcx","","","","v1","<div style=""font-size:60px;"">+</div>","null","","","","","","","",""
"","605.1449999213219","image-keyboard-response","170","416436","0.0-9.0-0.2","j7gcx","","","","v1","img/green.png","32","trial","32","true","0.6,0.4","go_c","","",""
"","null","html-keyboard-response","171","417938","0.0-9.0-1.2","j7gcx","","","","v1","<img src=""img/green-n.png"" border=""10"">","null","trial","32","","0.6,0.4","go_c","0","",""
"","null","html-keyboard-response","172","418942","0.0-9.0-2.2","j7gcx","","","","v1","<div style=""font-size:60px;"">+</div>","null","","","","","","","",""
"","227.08500013686717","image-keyboard-response","173","419170","0.0-9.0-0.3","j7gcx","","","","v1","img/pink.png","32","trial","null","false","0.2,0.8","nogo_b","","",""
"","null","html-keyboard-response","174","420919","0.0-9.0-1.3","j7gcx","","","","v1","<img src=""img/pink-n.png"" border=""10"">","null","trial","null","","0.2,0.8","nogo_b","0","",""
"","null","html-keyboard-response","175","421921","0.0-9.0-2.3","j7gcx","","","","v1","<div style=""font-size:60px;"">+</div>","null","","","","","","","",""
"","265.27500012889504","image-keyboard-response","176","422188","0.0-9.0-0.4","j7gcx","","","","v1","img/blue.png","32","trial","32","true","0.8,0.2","go_a","","",""
"","null","html-keyboard-response","177","423693","0.0-9.0-1.4","j7gcx","","","","v1","<img src=""img/blue-r.png"" border=""10"">","null","trial","32","","0.8,0.2","go_a","0","",""
"","null","html-keyboard-response","178","424695","0.0-9.0-2.4","j7gcx","","","","v1","<div style=""font-size:60px;"">+</div>","null","","","","","","","",""
"","582.0349999703467","image-keyboard-response","179","425278","0.0-9.0-0.5","j7gcx","","","","v1","img/pink.png","32","trial","null","false","0.2,0.8","nogo_b","","",""
"","null","html-keyboard-response","180","426780","0.0-9.0-1.5","j7gcx","","","","v1","<img src=""img/pink-n.png"" border=""10"">","null","trial","null","","0.2,0.8","nogo_b","0","",""
"","null","html-keyboard-response","181","427782","0.0-9.0-2.5","j7gcx","","","","v1","<div style=""font-size:60px;"">+</div>","null","","","","","","","",""
"","256.6849999129772","image-keyboard-response","182","428040","0.0-9.0-0.6","j7gcx","","","","v1","img/green.png","32","trial","32","true","0.6,0.4","go_c","","",""
"","null","html-keyboard-response","183","429545","0.0-9.0-1.6","j7gcx","","","","v1","<img src=""img/green-r.png"" border=""10"">","null","trial","32","","0.6,0.4","go_c","0","",""
"","null","html-keyboard-response","184","430546","0.0-9.0-2.6","j7gcx","","","","v1","<div style=""font-size:60px;"">+</div>","null","","","","","","","",""
"","276.41499997116625","image-keyboard-response","185","430823","0.0-9.0-0.7","j7gcx","","","","v1","img/orange.png","32","trial","null","false","0.4,0.6","nogo_d","","",""
"","null","html-keyboard-response","186","432328","0.0-9.0-1.7","j7gcx","","","","v1","<img src=""img/orange-n.png"" border=""10"">","null","trial","null","","0.4,0.6","nogo_d","0","",""
"","null","html-keyboard-response","187","433329","0.0-9.0-2.7","j7gcx","","","","v1","<div style=""font-size:60px;"">+</div>","null","","","","","","","",""
"","262.9700000397861","image-keyboard-response","188","433593","0.0-9.0-0.8","j7gcx","","","","v1","img/orange.png","32","trial","null","false","0.4,0.6","nogo_d","","",""
"","null","html-keyboard-response","189","435095","0.0-9.0-1.8","j7gcx","","","","v1","<img src=""img/orange-r.png"" border=""10"">","null","trial","null","","0.4,0.6","nogo_d","0","",""
"","null","html-keyboard-response","190","436096","0.0-9.0-2.8","j7gcx","","","","v1","<div style=""font-size:60px;"">+</div>","null","","","","","","","",""
"","274.2300000973046","image-keyboard-response","191","436371","0.0-9.0-0.9","j7gcx","","","","v1","img/green.png","32","trial","32","true","0.6,0.4","go_c","","",""
"","null","html-keyboard-response","192","437875","0.0-9.0-1.9","j7gcx","","","","v1","<img src=""img/green-r.png"" border=""10"">","null","trial","32","","0.6,0.4","go_c","0","",""
"","null","html-keyboard-response","193","438878","0.0-9.0-2.9","j7gcx","","","","v1","<div style=""font-size:60px;"">+</div>","null","","","","","","","",""
"","242.65999998897314","image-keyboard-response","194","439122","0.0-9.0-0.10","j7gcx","","","","v1","img/pink.png","32","trial","null","false","0.2,0.8","nogo_b","","",""
"","null","html-keyboard-response","195","440624","0.0-9.0-1.10","j7gcx","","","","v1","<img src=""img/pink-n.png"" border=""10"">","null","trial","null","","0.2,0.8","nogo_b","0","",""
"","null","html-keyboard-response","196","441627","0.0-9.0-2.10","j7gcx","","","","v1","<div style=""font-size:60px;"">+</div>","null","","","","","","","",""
"","244.84999990090728","image-keyboard-response","197","441873","0.0-9.0-0.11","j7gcx","","","","v1","img/blue.png","32","trial","32","true","0.8,0.2","go_a","","",""
"","null","html-keyboard-response","198","443377","0.0-9.0-1.11","j7gcx","","","","v1","<img src=""img/blue-r.png"" border=""10"">","null","trial","32","","0.8,0.2","go_a","0","",""
"","null","html-keyboard-response","199","444378","0.0-9.0-2.11","j7gcx","","","","v1","<div style=""font-size:60px;"">+</div>","null","","","","","","","",""
"","509.24000004306436","image-keyboard-response","200","444889","0.0-9.0-0.12","j7gcx","","","","v1","img/pink.png","32","trial","null","false","0.2,0.8","nogo_b","","",""
"","null","html-keyboard-response","201","446391","0.0-9.0-1.12","j7gcx","","","","v1","<img src=""img/pink-r.png"" border=""10"">","null","trial","null","","0.2,0.8","nogo_b","0","",""
"","null","html-keyboard-response","202","447394","0.0-9.0-2.12","j7gcx","","","","v1","<div style=""font-size:60px;"">+</div>","null","","","","","","","",""
"","415.22000008262694","image-keyboard-response","203","447810","0.0-9.0-0.13","j7gcx","","","","v1","img/green.png","32","trial","32","true","0.6,0.4","go_c","","",""
"","null","html-keyboard-response","204","449312","0.0-9.0-1.13","j7gcx","","","","v1","<img src=""img/green-r.png"" border=""10"">","null","trial","32","","0.6,0.4","go_c","0","",""
"","null","html-keyboard-response","205","450313","0.0-9.0-2.13","j7gcx","","","","v1","<div style=""font-size:60px;"">+</div>","null","","","","","","","",""
"","289.9650000035763","image-keyboard-response","206","450604","0.0-9.0-0.14","j7gcx","","","","v1","img/orange.png","32","trial","null","false","0.4,0.6","nogo_d","","",""
"","null","html-keyboard-response","207","452107","0.0-9.0-1.14","j7gcx","","","","v1","<img src=""img/orange-n.png"" border=""10"">","null","trial","null","","0.4,0.6","nogo_d","0","",""
"","null","html-keyboard-response","208","453109","0.0-9.0-2.14","j7gcx","","","","v1","<div style=""font-size:60px;"">+</div>","null","","","","","","","",""
"","493.58000000938773","image-keyboard-response","209","453603","0.0-9.0-0.15","j7gcx","","","","v1","img/blue.png","32","trial","32","true","0.8,0.2","go_a","","",""
"","null","html-keyboard-response","210","455108","0.0-9.0-1.15","j7gcx","","","","v1","<img src=""img/blue-r.png"" border=""10"">","null","trial","32","","0.8,0.2","go_a","0","",""
"","null","html-keyboard-response","211","456109","0.0-9.0-2.15","j7gcx","","","","v1","<div style=""font-size:60px;"">+</div>","null","","","","","","","",""
"","268.64499994553626","image-keyboard-response","212","456379","0.0-9.0-0.16","j7gcx","","","","v1","img/blue.png","32","trial","32","true","0.8,0.2","go_a","","",""
"","null","html-keyboard-response","213","457881","0.0-9.0-1.16","j7gcx","","","","v1","<img src=""img/blue-r.png"" border=""10"">","null","trial","32","","0.8,0.2","go_a","0","",""
"","null","html-keyboard-response","214","458883","0.0-9.0-2.16","j7gcx","","","","v1","<div style=""font-size:60px;"">+</div>","null","","","","","","","",""
"","223.46500004641712","image-keyboard-response","215","459108","0.0-9.0-0.17","j7gcx","","","","v1","img/pink.png","32","trial","null","false","0.2,0.8","nogo_b","","",""
"","null","html-keyboard-response","216","460610","0.0-9.0-1.17","j7gcx","","","","v1","<img src=""img/pink-r.png"" border=""10"">","null","trial","null","","0.2,0.8","nogo_b","0","",""
"","null","html-keyboard-response","217","461611","0.0-9.0-2.17","j7gcx","","","","v1","<div style=""font-size:60px;"">+</div>","null","","","","","","","",""
"","237.16500005684793","image-keyboard-response","218","461849","0.0-9.0-0.18","j7gcx","","","","v1","img/orange.png","32","trial","null","false","0.4,0.6","nogo_d","","",""
"","null","html-keyboard-response","219","463353","0.0-9.0-1.18","j7gcx","","","","v1","<img src=""img/orange-n.png"" border=""10"">","null","trial","null","","0.4,0.6","nogo_d","0","",""
"","null","html-keyboard-response","220","464354","0.0-9.0-2.18","j7gcx","","","","v1","<div style=""font-size:60px;"">+</div>","null","","","","","","","",""
"","246.85999983921647","image-keyboard-response","221","464602","0.0-9.0-0.19","j7gcx","","","","v1","img/green.png","32","trial","32","true","0.6,0.4","go_c","","",""
"","null","html-keyboard-response","222","466106","0.0-9.0-1.19","j7gcx","","","","v1","<img src=""img/green-n.png"" border=""10"">","null","trial","32","","0.6,0.4","go_c","0","",""
"","null","html-keyboard-response","223","467109","0.0-9.0-2.19","j7gcx","","","","v1","<div style=""font-size:60px;"">+</div>","null","","","","","","","",""
"[{""page_index"":0,""viewing_time"":1290.515000000596}]","1290.769999846816","instructions","224","468400","0.0-10.0","j7gcx","","","","v1","","","","","","","","","",""
"","674.4450000114739","image-keyboard-response","225","469076","0.0-11.0-0.0","j7gcx","","","","v1","img/grey.png","32","trial","null","false","0,1","nogo_d","","",""
"","null","html-keyboard-response","226","470578","0.0-11.0-1.0","j7gcx","","","","v1","<img src=""img/grey-n.png"" border=""10"">","null","trial","null","","0,1","nogo_d","0","",""
"","null","html-keyboard-response","227","471579","0.0-11.0-2.0","j7gcx","","","","v1","<div style=""font-size:60px;"">+</div>","null","","","","","","","",""
"","291.2399999331683","image-keyboard-response","228","471871","0.0-11.0-0.1","j7gcx","","","","v1","img/yellow.png","32","trial","32","true","0.8,0.2","go_a","","",""
"","null","html-keyboard-response","229","473376","0.0-11.0-1.1","j7gcx","","","","v1","<img src=""img/yellow-r.png"" border=""10"">","null","trial","32","","0.8,0.2","go_a","0","",""
"","null","html-keyboard-response","230","474377","0.0-11.0-2.1","j7gcx","","","","v1","<div style=""font-size:60px;"">+</div>","null","","","","","","","",""
"","393.12499994412065","image-keyboard-response","231","474771","0.0-11.0-0.2","j7gcx","","","","v1","img/purple.png","32","trial","null","false","0.2,0.8","nogo_b","","",""
"","null","html-keyboard-response","232","476273","0.0-11.0-1.2","j7gcx","","","","v1","<img src=""img/purple-n.png"" border=""10"">","null","trial","null","","0.2,0.8","nogo_b","0","",""
"","null","html-keyboard-response","233","477275","0.0-11.0-2.2","j7gcx","","","","v1","<div style=""font-size:60px;"">+</div>","null","","","","","","","",""
"","303.31000010482967","image-keyboard-response","234","477579","0.0-11.0-0.3","j7gcx","","","","v1","img/orange.png","32","trial","32","true","1,0","go_c","","",""
"","null","html-keyboard-response","235","479082","0.0-11.0-1.3","j7gcx","","","","v1","<img src=""img/orange-r.png"" border=""10"">","null","trial","32","","1,0","go_c","0","",""
"","null","html-keyboard-response","236","480083","0.0-11.0-2.3","j7gcx","","","","v1","<div style=""font-size:60px;"">+</div>","null","","","","","","","",""
"","287.44999994523823","image-keyboard-response","237","480372","0.0-11.0-0.4","j7gcx","","","","v1","img/orange.png","32","trial","32","true","1,0","go_c","","",""
"","null","html-keyboard-response","238","481877","0.0-11.0-1.4","j7gcx","","","","v1","<img src=""img/orange-r.png"" border=""10"">","null","trial","32","","1,0","go_c","0","",""
"","null","html-keyboard-response","239","482879","0.0-11.0-2.4","j7gcx","","","","v1","<div style=""font-size:60px;"">+</div>","null","","","","","","","",""
"","245.60999986715615","image-keyboard-response","240","483125","0.0-11.0-0.5","j7gcx","","","","v1","img/grey.png","32","trial","null","false","0,1","nogo_d","","",""
"","null","html-keyboard-response","241","484629","0.0-11.0-1.5","j7gcx","","","","v1","<img src=""img/grey-n.png"" border=""10"">","null","trial","null","","0,1","nogo_d","0","",""
"","null","html-keyboard-response","242","485630","0.0-11.0-2.5","j7gcx","","","","v1","<div style=""font-size:60px;"">+</div>","null","","","","","","","",""
"","414.1000001691282","image-keyboard-response","243","486046","0.0-11.0-0.6","j7gcx","","","","v1","img/purple.png","32","trial","null","false","0.2,0.8","nogo_b","","",""
"","null","html-keyboard-response","244","487548","0.0-11.0-1.6","j7gcx","","","","v1","<img src=""img/purple-r.png"" border=""10"">","null","trial","null","","0.2,0.8","nogo_b","0","",""
"","null","html-keyboard-response","245","488549","0.0-11.0-2.6","j7gcx","","","","v1","<div style=""font-size:60px;"">+</div>","null","","","","","","","",""
"","null","image-keyboard-response","246","490050","0.0-11.0-0.7","j7gcx","","","","v1","img/yellow.png","null","trial","32","false","0.8,0.2","go_a","","",""
"","null","html-keyboard-response","247","491553","0.0-11.0-1.7","j7gcx","","","","v1","<img src=""img/yellow-n.png"">","null","trial","32","","0.8,0.2","go_a","0","",""
"","null","html-keyboard-response","248","492555","0.0-11.0-2.7","j7gcx","","","","v1","<div style=""font-size:60px;"">+</div>","null","","","","","","","",""
"","330.2750000730157","image-keyboard-response","249","492887","0.0-11.0-0.8","j7gcx","","","","v1","img/grey.png","32","trial","null","false","0,1","nogo_d","","",""
"","null","html-keyboard-response","250","494389","0.0-11.0-1.8","j7gcx","","","","v1","<img src=""img/grey-n.png"" border=""10"">","null","trial","null","","0,1","nogo_d","0","",""
"","null","html-keyboard-response","251","495392","0.0-11.0-2.8","j7gcx","","","","v1","<div style=""font-size:60px;"">+</div>","null","","","","","","","",""
"","1066.690000006929","image-keyboard-response","252","496460","0.0-11.0-0.9","j7gcx","","","","v1","img/orange.png","32","trial","32","true","1,0","go_c","","",""
"","null","html-keyboard-response","253","497963","0.0-11.0-1.9","j7gcx","","","","v1","<img src=""img/orange-r.png"" border=""10"">","null","trial","32","","1,0","go_c","0","",""
"","null","html-keyboard-response","254","498964","0.0-11.0-2.9","j7gcx","","","","v1","<div style=""font-size:60px;"">+</div>","null","","","","","","","",""
"","null","image-keyboard-response","255","500465","0.0-11.0-0.10","j7gcx","","","","v1","img/purple.png","null","trial","null","true","0.2,0.8","nogo_b","","",""
"","null","html-keyboard-response","256","501968","0.0-11.0-1.10","j7gcx","","","","v1","<img src=""img/purple-r.png"">","null","trial","null","","0.2,0.8","nogo_b","0","",""
"","null","html-keyboard-response","257","502969","0.0-11.0-2.10","j7gcx","","","","v1","<div style=""font-size:60px;"">+</div>","null","","","","","","","",""
"","null","image-keyboard-response","258","504472","0.0-11.0-0.11","j7gcx","","","","v1","img/yellow.png","null","trial","32","false","0.8,0.2","go_a","","",""
"","null","html-keyboard-response","259","505976","0.0-11.0-1.11","j7gcx","","","","v1","<img src=""img/yellow-n.png"">","null","trial","32","","0.8,0.2","go_a","0","",""
"","null","html-keyboard-response","260","506978","0.0-11.0-2.11","j7gcx","","","","v1","<div style=""font-size:60px;"">+</div>","null","","","","","","","",""
"","925.2500000875443","image-keyboard-response","261","507905","0.0-11.0-0.12","j7gcx","","","","v1","img/orange.png","32","trial","32","true","1,0","go_c","","",""
"","null","html-keyboard-response","262","509407","0.0-11.0-1.12","j7gcx","","","","v1","<img src=""img/orange-r.png"" border=""10"">","null","trial","32","","1,0","go_c","0","",""
"","null","html-keyboard-response","263","510408","0.0-11.0-2.12","j7gcx","","","","v1","<div style=""font-size:60px;"">+</div>","null","","","","","","","",""
"","1191.8600001372397","image-keyboard-response","264","511600","0.0-11.0-0.13","j7gcx","","","","v1","img/yellow.png","32","trial","32","true","0.8,0.2","go_a","","",""
"","null","html-keyboard-response","265","513103","0.0-11.0-1.13","j7gcx","","","","v1","<img src=""img/yellow-r.png"" border=""10"">","null","trial","32","","0.8,0.2","go_a","0","",""
"","null","html-keyboard-response","266","514105","0.0-11.0-2.13","j7gcx","","","","v1","<div style=""font-size:60px;"">+</div>","null","","","","","","","",""
"","null","image-keyboard-response","267","515608","0.0-11.0-0.14","j7gcx","","","","v1","img/grey.png","null","trial","null","true","0,1","nogo_d","","",""
"","null","html-keyboard-response","268","517111","0.0-11.0-1.14","j7gcx","","","","v1","<img src=""img/grey-r.png"">","null","trial","null","","0,1","nogo_d","0","",""
"","null","html-keyboard-response","269","518112","0.0-11.0-2.14","j7gcx","","","","v1","<div style=""font-size:60px;"">+</div>","null","","","","","","","",""
"","870.3700001351535","image-keyboard-response","270","518984","0.0-11.0-0.15","j7gcx","","","","v1","img/purple.png","32","trial","null","false","0.2,0.8","nogo_b","","",""
"","null","html-keyboard-response","271","520486","0.0-11.0-1.15","j7gcx","","","","v1","<img src=""img/purple-n.png"" border=""10"">","null","trial","null","","0.2,0.8","nogo_b","0","",""
"","null","html-keyboard-response","272","521488","0.0-11.0-2.15","j7gcx","","","","v1","<div style=""font-size:60px;"">+</div>","null","","","","","","","",""
"","648.2199998572469","image-keyboard-response","273","522137","0.0-11.0-0.16","j7gcx","","","","v1","img/yellow.png","32","trial","32","true","0.8,0.2","go_a","","",""
"","null","html-keyboard-response","274","523642","0.0-11.0-1.16","j7gcx","","","","v1","<img src=""img/yellow-r.png"" border=""10"">","null","trial","32","","0.8,0.2","go_a","0","",""
"","null","html-keyboard-response","275","524645","0.0-11.0-2.16","j7gcx","","","","v1","<div style=""font-size:60px;"">+</div>","null","","","","","","","",""
"","605.7899999432266","image-keyboard-response","276","525252","0.0-11.0-0.17","j7gcx","","","","v1","img/purple.png","32","trial","null","false","0.2,0.8","nogo_b","","",""
"","null","html-keyboard-response","277","526756","0.0-11.0-1.17","j7gcx","","","","v1","<img src=""img/purple-n.png"" border=""10"">","null","trial","null","","0.2,0.8","nogo_b","0","",""
"","null","html-keyboard-response","278","527758","0.0-11.0-2.17","j7gcx","","","","v1","<div style=""font-size:60px;"">+</div>","null","","","","","","","",""
"","528.0249998904765","image-keyboard-response","279","528287","0.0-11.0-0.18","j7gcx","","","","v1","img/grey.png","32","trial","null","false","0,1","nogo_d","","",""
"","null","html-keyboard-response","280","529792","0.0-11.0-1.18","j7gcx","","","","v1","<img src=""img/grey-n.png"" border=""10"">","null","trial","null","","0,1","nogo_d","0","",""
"","null","html-keyboard-response","281","530794","0.0-11.0-2.18","j7gcx","","","","v1","<div style=""font-size:60px;"">+</div>","null","","","","","","","",""
"","458.9700000360608","image-keyboard-response","282","531255","0.0-11.0-0.19","j7gcx","","","","v1","img/orange.png","32","trial","32","true","1,0","go_c","","",""
"","null","html-keyboard-response","283","532756","0.0-11.0-1.19","j7gcx","","","","v1","<img src=""img/orange-r.png"" border=""10"">","null","trial","32","","1,0","go_c","0","",""
"","null","html-keyboard-response","284","533760","0.0-11.0-2.19","j7gcx","","","","v1","<div style=""font-size:60px;"">+</div>","null","","","","","","","",""
"[{""page_index"":0,""viewing_time"":1471.1799998767674}]","1471.4149998035282","instructions","285","535232","0.0-12.0","j7gcx","","","","v1","","","","","","","","","108",""
"[{""page_index"":0,""viewing_time"":939.1499999910593}]","939.394999993965","instructions","286","536172","0.0-13.0","j7gcx","","","","v1","","","","","","","","","",""
"","3935.9699999913573","survey-text","287","540116","0.0-14.0","j7gcx","","","","v1","","","","","","","","","","{""Q0"":""lsdkjlaksd""}"
"","1404.609999852255","survey-text","288","541524","0.0-15.0","j7gcx","","","","v1","","","","","","","","","","{""Q0"":""ssdf""}"
